"Time (s)","Acceleration x (m/s^2)","Acceleration y (m/s^2)","Acceleration z (m/s^2)","Absolute acceleration (m/s^2)"
1.067625009E-3,-1.972897339E-1,-4.306544495E-1,8.008346558E-2,4.804163355E-1
1.100762500E-2,-7.095245361E-2,-4.120930481E-1,8.143066406E-2,4.260116008E-1
2.094662501E-2,-2.888992310E-2,-4.559518433E-1,2.469863892E-2,4.575333144E-1
3.088662500E-2,-1.213975525E-1,-5.831872559E-1,2.709365845E-2,5.963042910E-1
4.082562501E-2,-2.091151428E-1,-7.212002563E-1,4.086502075E-2,7.520165574E-1
5.076562500E-2,-2.186952209E-1,-8.369096375E-1,2.544708252E-2,8.653859803E-1
6.070462501E-2,-2.639012146E-1,-9.241781616E-1,9.250762939E-2,9.655603487E-1
7.064362502E-2,-7.182064819E-1,-1.200503540E0,3.072660370E0,3.376132558E0
8.058362501E-2,-5.535488892E-1,-1.945504303E0,4.673581238E0,5.092520491E0
9.052262502E-2,8.330177307E-1,-1.974094849E0,-8.024812317E-1,2.288000249E0
1.004626250E-1,2.270628204E0,-2.368075562E0,-1.085542603E0,3.455710788E0
1.104016250E-1,3.879781952E0,-3.678450623E0,-9.684860229E-1,5.433384963E0
1.203416250E-1,6.678811340E0,-6.453978882E0,-1.064586182E0,9.348460198E0
1.302806250E-1,1.190594147E1,-1.355985214E1,-4.285737762E0,1.854692914E1
1.402206250E-1,2.010304550E1,-2.255434799E1,-4.640050964E0,3.056732119E1
1.501596250E-1,3.285113571E1,-3.478062332E1,-2.442770233E0,4.790465533E1
1.600986250E-1,4.907784210E1,-5.025110229E1,1.586700439E0,7.025898865E1
1.700386250E-1,5.408148697E1,-5.273189346E1,5.483247528E0,7.573325442E1
1.799776250E-1,4.300227631E1,-3.982543259E1,8.041278076E0,5.916014707E1
1.899176250E-1,2.664429291E1,-1.815140396E1,1.101035385E1,3.406786906E1
1.998566250E-1,1.880793869E1,-5.136269073E0,6.863078156E0,2.066934105E1
2.097966250E-1,1.663610504E1,-2.832559662E0,1.247805176E0,1.692159576E1
2.197356250E-1,1.400382889E1,-2.402354279E0,-1.502276001E0,1.428759472E1
2.296746250E-1,9.693093109E0,-1.449435883E0,-2.012265472E0,1.000530513E1
2.396146250E-1,5.476361847E0,-5.990542603E-1,-1.469494171E0,5.701650481E0
2.495536250E-1,2.418520660E0,8.801696777E-2,-8.018824768E-1,2.549510674E0
2.594936250E-1,-9.984237671E-2,6.204597473E-1,-1.980381775E-1,6.589066079E-1
2.694326250E-1,-1.681752777E0,1.046623535E0,7.035369873E-1,2.102065061E0
2.793726250E-1,-2.939886475E0,1.283281403E0,1.376537476E0,3.490644505E0
2.893116250E-1,-4.346810760E0,1.410516815E0,4.008663940E-1,4.587484642E0
2.992506250E-1,-5.877377930E0,1.484013977E0,-2.370021515E0,6.508676578E0
3.091906250E-1,-1.152558243E1,6.979985046E-1,-6.453978882E0,1.322800422E1
3.191296250E-1,-1.734398300E1,-2.054477692E0,-2.337988129E0,1.762103327E1
3.290696250E-1,-9.508975983E0,-1.982477417E0,2.223925323E0,9.964772190E0
3.390086250E-1,-6.685098267E0,-1.653012543E0,2.229463806E0,7.238335317E0
3.489486250E-1,-5.108726349E0,-1.174757080E0,5.488486633E0,7.589639295E0
3.588876250E-1,-2.761756897E0,-3.932322693E-1,4.391417999E0,5.202545994E0
3.688266250E-1,-4.787045288E-1,-1.299298096E-1,1.144370270E0,1.247246205E0
3.787666250E-1,1.018781433E0,-9.400451660E-2,5.373825073E-2,1.024519525E0
3.887056250E-1,1.910177765E0,3.607498169E-2,2.185455322E-2,1.910643378E0
3.986452917E-1,2.388882294E0,7.469467163E-2,-3.068618774E-2,2.390246755E0
4.085842917E-1,2.672392731E0,1.137634277E-2,-7.110214233E-2,2.673362647E0
4.185242917E-1,2.614912262E0,2.963836670E-2,-8.113128662E-2,2.616338445E0
4.284632917E-1,2.195783844E0,1.661544800E-1,-1.038839722E-1,2.204510349E0
4.384022917E-1,1.883982239E0,2.330653381E-1,-3.592529297E-1,1.932038094E0
4.483422917E-1,2.253414001E0,5.658233643E-2,4.052073669E-1,2.290255277E0
4.582812917E-1,3.215014343E0,-8.012837219E-1,1.786385193E0,3.764245593E0
4.682212917E-1,2.064207458E0,-1.592238922E0,-2.009122009E0,3.291314094E0
4.781602917E-1,3.214864655E0,-2.426603851E0,-2.307301941E0,4.641918057E0
4.881002917E-1,5.664819946E0,-3.980821838E0,-2.102228394E0,7.235778586E0
4.980392917E-1,1.073268127E1,-7.608527985E0,-2.536026306E0,1.339819297E1
5.079782917E-1,2.214180588E1,-1.497590744E1,-3.754492493E0,2.699321369E1
5.179182917E-1,3.983321640E1,-2.551234680E1,-5.716013489E0,4.764701227E1
5.278572917E-1,5.962685532E1,-3.616898621E1,-5.008883972E0,6.991885552E1
5.377972917E-1,7.274692200E1,-4.166675354E1,8.071215820E-1,8.383844259E1
5.477362917E-1,6.098423264E1,-3.235910889E1,1.035681290E1,6.981011482E1
5.576762917E-1,3.468901382E1,-1.522394165E1,7.670199738E0,3.865136535E1
5.676152917E-1,2.412368454E1,-8.428672485E0,-1.874701538E0,2.562243512E1
5.775542917E-1,1.897424286E1,-5.704786835E0,-3.703897705E0,2.015652111E1
5.874942917E-1,1.261217285E1,-3.090323639E0,-3.674858093E0,1.349524310E1
5.974332917E-1,7.694598999E0,-1.858235779E0,-4.116739197E0,8.922299904E0
6.073732917E-1,3.905079346E0,-9.556127930E-1,-3.916904755E0,5.612930016E0
6.173122917E-1,1.149609375E0,9.205856323E-2,-2.859952698E0,3.083732467E0
6.272522917E-1,-1.206191711E0,1.320853271E0,-6.137237549E-3,1.788739633E0
6.371912917E-1,-4.011208649E0,2.182012482E0,4.169130249E0,6.183253215E0
6.471302917E-1,-5.348078613E0,2.154619446E0,5.338049469E0,7.857423365E0
6.570702917E-1,-5.451663208E0,1.601369934E0,3.990102539E0,6.943049450E0
6.670092917E-1,-5.140909424E0,1.182840271E0,1.795067139E0,5.572282014E0
6.769492917E-1,-4.330345001E0,9.874964905E-1,-4.683760071E-1,4.466140754E0
6.868882917E-1,-3.943699036E0,5.457650757E-1,-1.270857239E0,4.179198455E0
6.968282917E-1,-4.267475739E0,-2.163002014E-1,-6.487509155E-1,4.321922339E0
7.067672917E-1,-4.805307312E0,-9.568103027E-1,5.046006775E-1,4.925554401E0
7.167062917E-1,-5.257217560E0,-1.466949463E0,1.226100311E0,5.594068213E0
7.266462917E-1,-4.630919952E0,-1.303639069E0,3.135978699E-1,4.821124148E0
7.365852917E-1,-3.578757935E0,-9.821076965E-1,-5.381309509E-1,3.749883838E0
7.465252917E-1,-2.848726044E0,-7.545808411E-1,-5.760021973E-1,3.002733896E0
7.564642917E-1,-2.278561707E0,-6.415658569E-1,-4.781057739E-1,2.414960731E0
7.664042917E-1,-1.837129669E0,-6.080355835E-1,-4.228706360E-1,1.980800916E0
7.763432917E-1,-1.454525299E0,-6.478527832E-1,-3.854484558E-1,1.638269693E0
7.862822917E-1,-1.257534943E0,-7.756869507E-1,-2.821632385E-1,1.504227533E0
7.962222917E-1,-1.124910736E0,-1.032852173E0,-1.904040527E-1,1.538980662E0
8.061612917E-1,-7.984396362E-1,-1.363065491E0,-1.422042847E-1,1.586088094E0
8.161012917E-1,-1.992356873E-1,-1.520388336E0,3.592529297E-2,1.533807738E0
8.260402917E-1,2.396516418E-1,-1.610950012E0,2.086660767E-1,1.641990981E0
8.359802917E-1,1.422641602E0,-2.450404358E0,3.061134338E0,4.171202954E0
8.459192917E-1,2.437830505E0,-3.884871368E0,5.167554016E0,6.909331200E0
8.558582917E-1,2.135010223E0,-3.222947845E0,-7.842192078E-1,3.944700399E0
8.657982917E-1,4.983287201E0,-4.723577271E0,-7.170089722E-1,6.903581348E0
8.757372917E-1,8.833430786E0,-7.107819214E0,-8.373587036E-1,1.136889454E1
8.856772917E-1,1.464749039E1,-1.064526306E1,-1.327140198E0,1.815576772E1
8.956162917E-1,2.586291779E1,-1.775203445E1,-3.067720642E0,3.151882221E1
9.055562917E-1,4.192391876E1,-2.534574326E1,-3.388353882E0,4.910705252E1
9.154952917E-1,5.769916397E1,-3.094425110E1,-2.383194122E0,6.551656137E1
9.254342917E-1,5.915832962E1,-2.992427216E1,-2.849025421E0,6.635726768E1
9.353742917E-1,4.458373764E1,-1.759321472E1,-1.031205597E0,4.794052827E1
9.453132917E-1,2.979269577E1,6.031707001E0,1.181852325E1,3.261385752E1
9.552532917E-1,1.873039993E1,1.424901901E1,1.240889557E1,2.660532115E1
9.651922917E-1,2.083038300E1,7.455246735E0,1.713187408E0,2.219055138E1
9.751322917E-1,2.097213821E1,4.239034882E0,-4.111500092E0,2.178771284E1
9.850712917E-1,1.492067230E1,1.959874420E0,-6.863826599E0,1.654024441E1
9.950102917E-1,1.031759445E1,1.344653778E0,-5.618715820E0,1.182500810E1
1.004950292E0,6.258485413E0,1.449136505E0,-3.447780304E0,7.290804160E0
1.014889292E0,1.802401886E0,1.711241455E0,-1.047521667E0,2.697091307E0
1.024829292E0,-1.466949463E0,1.733096008E0,1.232985992E0,2.583760236E0
1.034768292E0,-2.611170044E0,1.262025604E0,1.594035187E0,3.309360331E0
1.044708292E0,-2.546055450E0,1.053209839E0,1.405577087E-1,2.758877632E0
1.054647292E0,-1.892514496E0,1.287023621E0,-9.363029480E-1,2.472792779E0
1.064586292E0,-1.530267792E0,1.179547119E0,-8.434959412E-1,2.108206898E0
1.074526292E0,-1.856140137E0,6.265969849E-1,-5.400769043E-1,2.032132636E0
1.084465292E0,-2.394869843E0,8.277786255E-2,-2.389031982E-1,2.408179494E0
1.094405292E0,-2.334994354E0,-3.558100891E-1,-1.297801208E-1,2.365511009E0
1.104344292E0,-2.587519226E0,-7.261399841E-1,6.601272583E-2,2.688288062E0
1.114284292E0,-3.545676727E0,-1.136736145E0,1.210981750E-1,3.725406996E0
1.124223292E0,-4.133953400E0,-1.242416382E0,2.375559998E-1,4.323147237E0
1.134162292E0,-3.890559540E0,-1.203647003E0,1.266366577E-1,4.074463951E0
1.144102292E0,-3.766617279E0,-1.248553619E0,1.309776306E-1,3.970320769E0
1.154041292E0,-4.201013947E0,-1.512155457E0,1.609153748E-1,4.467776411E0
1.163981292E0,-4.413422241E0,-1.720671844E0,1.234931946E-1,4.738592412E0
1.173920292E0,-4.573140106E0,-1.882635040E0,4.909790039E-2,4.945739149E0
1.183860292E0,-4.436773682E0,-2.172881470E0,-5.897735596E-2,4.940632845E0
1.193799292E0,-3.472029877E0,-2.207609253E0,2.636916504E0,4.886906867E0
1.203738292E0,-2.086062012E0,-1.415905609E0,5.610333252E0,6.150795283E0
1.213678292E0,1.848655701E-1,-1.386566620E0,1.680405579E0,2.186436640E0
1.223617292E0,1.586401062E0,-2.230062561E0,-2.655477905E-1,2.749611424E0
1.233557292E0,3.751947784E0,-3.018023987E0,1.570234680E-1,4.817700419E0
1.243496292E0,3.573668518E0,-3.038531342E0,-2.170486450E-2,4.690868842E0
1.253436292E0,4.872517548E0,-3.366798706E0,-4.707710266E-1,5.941244494E0
1.263375292E0,1.005294479E1,-5.170697479E0,-1.211879883E0,1.136954108E1
1.273314292E0,2.474324615E1,-9.281748505E0,-1.492845612E0,2.646899457E1
1.283254292E0,4.830215515E1,-1.436742279E1,-2.255359955E0,5.044410450E1
1.293193292E0,7.274796982E1,-1.851784195E1,-8.345146179E-1,7.507245832E1
1.303133292E0,7.278898453E1,-1.608734619E1,-1.466949463E-1,7.454569401E1
1.313072292E0,4.216327103E1,6.867269440E0,1.438957672E0,4.274308614E1
1.323012292E0,1.894505356E1,3.387021652E1,7.882907410E0,3.960109659E1
1.332951292E0,2.320609268E1,3.093167725E1,1.108115662E1,4.022540773E1
1.342890292E0,2.766906189E1,1.705179062E1,5.620063019E0,3.298371807E1
1.352830292E0,2.067844894E1,1.016087036E1,1.119372253E0,2.306717433E1
1.362769292E0,1.340597214E1,5.689368896E0,-2.050436096E0,1.470691319E1
1.372709292E0,7.397616577E0,3.383414154E0,-3.528761902E0,8.867039129E0
1.382648292E0,3.429518280E0,2.710563354E0,-3.215313721E0,5.426508238E0
1.392586917E0,2.606080627E-1,2.001038818E0,-2.381996613E0,3.121855342E0
1.402526917E0,-1.402283936E0,1.446142731E0,-1.585053864E0,2.563225465E0
1.412465917E0,-1.475781097E0,1.068927155E0,-7.914042664E-1,1.986669530E0
1.422405917E0,-2.121089172E0,6.062393188E-2,5.550457764E-1,2.193346838E0
1.432344917E0,-3.898043976E0,-1.813628540E0,2.369422760E0,4.908987628E0
1.442284917E0,-4.052522736E0,-2.294877777E0,1.591490479E0,4.921610151E0
1.452223917E0,-3.156186676E0,-1.771566010E0,7.319778442E-2,3.620126845E0
1.462162917E0,-3.177891541E0,-2.071242828E0,-4.951702881E-1,3.825471881E0
1.472102917E0,-4.744683380E0,-3.589535522E0,1.082249451E0,6.047152182E0
1.482041917E0,-6.070775757E0,-4.371808777E0,2.660417633E0,7.940078857E0
1.491981917E0,-6.479875031E0,-4.315076752E0,2.246528320E0,8.102811690E0
1.501920917E0,-7.057823181E0,-4.617298279E0,1.635798340E0,8.591166839E0
1.511860917E0,-5.921236725E0,-3.421884155E0,4.357438660E-1,6.852751874E0
1.521799917E0,-4.229305115E0,-2.401605835E0,-1.914518738E-1,4.867379804E0
1.531738917E0,-3.385659485E0,-2.051334229E0,-1.845661926E-1,3.962918993E0
1.541678917E0,-3.358865204E0,-2.169139252E0,-1.023870850E-1,3.999702947E0
1.551617917E0,-3.306174774E0,-2.191592560E0,1.269360352E-1,3.968624742E0
1.561557917E0,-2.852617950E0,-1.823358307E0,4.740641785E-1,3.418596427E0
1.571496917E0,-9.217831421E-1,-3.016227722E-1,2.488125916E0,2.670473933E0
1.581436917E0,9.057664490E-1,1.868115234E-1,2.463876343E0,2.631729097E0
1.591375917E0,9.807604980E-1,-8.321195984E-1,-2.902464294E-1,1.318543579E0
1.601315917E0,1.560205536E0,-5.465135193E-1,-3.153941345E-1,1.682971123E0
1.611254917E0,2.329755249E0,-4.833448792E-1,-1.901046753E-1,2.386948173E0
1.621193917E0,4.399650879E0,-6.107299805E-2,4.384382629E-1,4.421864525E0
1.631133917E0,1.487097565E1,3.986210632E-1,1.336869965E0,1.493626582E1
1.641072917E0,3.227109192E1,4.400848389E-2,-1.844913483E0,3.232381500E1
1.651012917E0,6.058216873E1,8.816665649E-1,-7.490124207E0,6.104980315E1
1.660951917E0,7.919446426E1,6.046376495E0,-1.184397034E1,8.030318469E1
1.670891917E0,7.378890518E1,1.900118683E1,-7.193291473E0,7.653490100E1
1.680830917E0,4.684942612E1,3.114932465E1,3.285517731E0,5.635551242E1
1.690769917E0,2.987996429E1,2.486284744E1,5.604944458E0,3.927325873E1
1.700709917E0,2.474728775E1,1.441098221E1,3.048859863E0,2.879930912E1
1.710648917E0,1.748304382E1,8.066725159E0,1.407223663E0,1.930567674E1
1.720588917E0,1.053718781E1,4.558620300E0,-7.574249268E-2,1.148124918E1
1.730527917E0,4.946912842E0,2.768343201E0,-8.705895996E-1,5.735293976E0
1.740466917E0,7.635621643E-1,1.874402161E0,-1.150956573E0,2.328328085E0
1.750406917E0,-1.520388336E0,1.670376434E0,-1.259331207E0,2.586049732E0
1.760345917E0,-1.636696472E0,1.504221954E0,-1.033600616E0,2.451487154E0
1.770285917E0,-1.732497253E0,4.218228149E-1,-3.439846802E-1,1.815986421E0
1.780224917E0,-2.889890442E0,-1.382974091E0,1.696422272E0,3.625180358E0
1.790164917E0,-4.334087219E0,-3.216660919E0,3.435206451E0,6.397801408E0
1.800103917E0,-5.101092224E0,-4.095333710E0,3.712280273E0,7.521563993E0
1.810043917E0,-5.854774933E0,-4.451143799E0,3.837270355E0,8.295523758E0
1.819982917E0,-5.704337769E0,-4.240232391E0,2.377206573E0,7.494674856E0
1.829921917E0,-5.543422394E0,-4.245621185E0,7.881111145E-1,7.026802275E0
1.839861917E0,-5.457950134E0,-4.323159943E0,2.507286072E-1,6.967194298E0
1.849800917E0,-4.734953613E0,-3.738026733E0,-2.899470520E-1,6.039594264E0
1.859740917E0,-3.831881561E0,-3.145259399E0,-6.366261292E-1,4.998126231E0
1.869679917E0,-3.391647034E0,-2.902613983E0,-5.728587341E-1,4.500733792E0
1.879618917E0,-3.112926636E0,-2.646795959E0,-3.447331238E-1,4.100570938E0
1.889558917E0,-2.801125031E0,-2.353555756E0,-1.095721436E-1,3.660263950E0
1.899497917E0,-2.308649139E0,-1.943708038E0,-1.721420288E-2,3.017972517E0
1.909437917E0,-2.032473450E0,-1.690883789E0,5.643264771E-2,2.644469882E0
1.919376917E0,-1.519490204E0,-1.490600281E0,6.706054688E-2,2.129609540E0
1.929316917E0,-4.592449951E-1,-1.262624359E0,-1.556762695E-2,1.343640052E0
1.939255917E0,9.166937256E-1,-2.122586060E-1,3.498225403E-1,1.003870964E0
1.949194917E0,1.253493347E0,-1.122665405E-2,-1.929487610E-1,1.268306285E0
1.959134917E0,1.456471252E0,-7.306306458E-1,-3.260220337E-1,1.661752092E0
1.969073917E0,1.889221344E0,-1.550775146E-1,-1.716929626E-1,1.903335177E0
1.979013917E0,3.308120728E0,7.458988953E-1,9.613009644E-1,3.524787576E0
1.988952917E0,4.006568298E0,1.070573730E0,6.120771790E-1,4.192058696E0
1.998892917E0,1.011865814E1,5.069956970E-1,-5.221142578E-1,1.014479623E1
2.008831917E0,2.848920639E1,1.110989685E0,-1.496288452E0,2.855009734E1
2.018770917E0,5.324203262E1,4.802912292E0,-4.057612152E0,5.361199699E1
2.028710917E0,7.799276321E1,1.363948654E1,-4.618795166E0,7.931103313E1
2.038649917E0,7.760027939E1,2.403671539E1,-1.903292084E0,8.126001211E1
2.048589917E0,5.786052841E1,2.850911499E1,6.487958221E0,6.482826534E1
2.058528917E0,3.694197876E1,2.011097900E1,6.180946655E0,4.251312001E1
2.068468917E0,2.425630875E1,1.167003204E1,3.368744659E0,2.712759854E1
2.078407917E0,1.377151199E1,7.887996826E0,2.294578400E0,1.603558937E1
2.088347917E0,6.298152924E0,5.887107697E0,1.162033539E0,8.699143017E0
2.098286917E0,1.063388672E0,4.384532318E0,9.220825195E-2,4.512584789E0
2.108225917E0,-2.217488708E0,3.007096710E0,-2.372566223E-1,3.743818572E0
2.118165917E0,-3.515140228E0,2.142195282E0,4.334985352E-1,4.139218819E0
2.128104917E0,-4.523742828E0,5.777984619E-1,1.716330872E0,4.872770454E0
2.138044917E0,-4.912783813E0,-1.542242889E0,2.350561981E0,5.660309140E0
2.147983917E0,-3.882027283E0,-2.257006531E0,1.033151550E0,4.607777819E0
2.157923917E0,-3.647914124E0,-2.947969666E0,4.569996643E-1,4.712393372E0
2.167862917E0,-3.453169098E0,-3.441493378E0,2.326162720E-1,4.880815897E0
2.177801917E0,-2.769241333E0,-3.569028168E0,7.065307617E-2,4.517925573E0
2.187741917E0,-2.132914581E0,-3.979624329E0,1.841171265E-1,4.518919508E0
2.197680917E0,-1.736239471E0,-4.171076202E0,5.016069031E-1,4.545768766E0
2.207620917E0,-1.676813049E0,-3.463497620E0,3.788621521E-1,3.866659320E0
2.217559917E0,-1.532213745E0,-2.008223877E0,8.831634521E-3,2.526008729E0
2.227498917E0,-1.212478638E0,-9.630972290E-1,-1.163081360E-1,1.552800149E0
2.237438917E0,-1.016536102E0,-7.891589355E-1,-5.583389282E-2,1.288112921E0
2.247377917E0,-1.004561005E0,-7.122189331E-1,3.682342529E-2,1.231971828E0
2.257317917E0,-9.996212769E-1,-5.471122742E-1,1.121168518E-1,1.145052281E0
2.267256917E0,-9.651928711E-1,-3.730242920E-1,1.092727661E-1,1.040521474E0
2.277196917E0,-8.599617004E-1,-2.436932373E-1,-4.221221924E-2,8.948197537E-1
2.287135917E0,-8.020321655E-1,-1.796264648E-1,-3.192860413E-1,8.817396654E-1
2.297074917E0,-9.024732971E-1,-9.684860229E-2,-6.036946106E-1,1.090084807E0
2.307014917E0,-9.099577332E-1,-2.275268555E-2,-6.429130554E-1,1.114395781E0
2.316953917E0,-5.538482666E-3,2.571652222E-1,-3.146456909E-1,4.064068615E-1
2.326893917E0,8.011340332E-1,7.161108398E-1,-2.186952209E-1,1.096566493E0
2.336832917E0,1.011596375E0,1.165476379E0,-6.375242615E-1,1.669760342E0
2.346772917E0,1.181193695E0,2.036515045E0,-1.210532684E0,2.647263012E0
2.356711917E0,4.685855713E0,3.908372498E0,-2.518512726E0,6.601176084E0
2.366650917E0,1.615380798E1,7.032974854E0,-4.571643219E0,1.820187269E1
2.376590917E0,3.184283249E1,1.201671112E1,-5.980663147E0,3.455626801E1
2.386529917E0,5.527630234E1,2.008104126E1,-4.694837036E0,5.899796024E1
2.396470125E0,7.850095642E1,3.270803329E1,7.046895905E0,8.533389914E1
2.406409125E0,7.062867691E1,3.258154633E1,4.958738251E0,7.793943962E1
2.416349125E0,3.393592987E1,2.342972763E1,8.847351837E0,4.217671286E1
2.426288125E0,1.705253906E1,1.565265015E1,-2.115700378E0,2.324372460E1
2.436227125E0,1.203647003E1,1.090811646E1,-3.007695465E0,1.651998328E1
2.446167125E0,1.042028091E1,8.317154388E0,-3.730991364E0,1.384476825E1
2.456106125E0,8.136929169E0,6.483168182E0,-4.421954498E0,1.130463478E1
2.466046125E0,5.149591370E0,4.886588287E0,-3.547173615E0,7.935961001E0
2.475985125E0,2.344275055E0,3.110830994E0,-3.198997650E0,5.040484200E0
2.485925125E0,5.450166321E-1,1.644180908E0,-2.934647369E0,3.407716122E0
2.495864125E0,-3.983216858E-1,5.789959717E-1,-2.433339844E0,2.532792786E0
2.505803125E0,-5.984555054E-1,-2.600093079E-1,-1.669777679E0,1.792738500E0
2.515743125E0,-1.325493622E0,-2.842139740E0,4.534071350E-1,3.168638457E0
2.525682125E0,-2.622247009E0,-7.850125580E0,3.801494751E0,9.107799588E0
2.535622125E0,-1.307081909E0,-6.468049622E0,4.361031189E0,7.909660047E0
2.545561125E0,-3.513194275E-1,-5.481750641E0,5.965394897E0,8.109189338E0
2.555501125E0,-8.807684326E-1,-3.707041168E0,4.030219116E0,5.546221541E0
2.565440125E0,-1.170715485E0,-2.706671448E0,2.096989288E0,3.618564515E0
2.575379125E0,-1.164877625E0,-2.116897888E0,6.168672180E-1,2.493736496E0
2.585319125E0,-9.259744263E-1,-1.594484253E0,-2.583627319E-1,1.861870020E0
2.595258125E0,-7.475454712E-1,-1.281485138E0,-3.309617615E-1,1.520053972E0
2.605198125E0,-6.511459351E-1,-1.120270386E0,-2.592608643E-1,1.321443514E0
2.615137125E0,-5.998027039E-1,-9.827064514E-1,-1.441502380E-1,1.160282097E0
2.625077125E0,-5.815406799E-1,-8.431965637E-1,-9.894424438E-2,1.029057807E0
2.635016125E0,-5.490582275E-1,-7.623646545E-1,-5.792953491E-2,9.412866910E-1
2.644955125E0,-3.643423462E-1,-7.174580383E-1,2.769241333E-2,8.051448638E-1
2.654895125E0,-4.490661621E-4,-5.116360474E-1,1.347198486E-3,5.116380181E-1
2.664834125E0,5.203179932E-1,-1.710942078E-1,-2.198927307E-1,5.902176336E-1
2.674774125E0,1.150657196E0,2.568658447E-1,-4.743635559E-1,1.270831550E0
2.684713125E0,2.420915680E0,2.351759491E0,-1.409918060E0,3.657796382E0
2.694653125E0,3.703748016E0,5.849535828E0,-6.447093201E-1,6.953450142E0
2.704592125E0,4.026177521E0,1.629810791E0,1.467548218E0,4.584766779E0
2.714531125E0,6.594386902E0,2.475851440E-1,2.044897614E0,6.908606463E0
2.724471125E0,9.739646301E0,2.138902130E0,1.339414673E0,1.006129435E1
2.734410125E0,1.464584381E1,3.763174438E0,-2.600093079E-1,1.512381657E1
2.744350125E0,2.303020844E1,5.613626404E0,-1.858684845E0,2.377725828E1
2.754289125E0,3.621568909E1,9.017847290E0,-2.515069885E0,3.740619310E1
2.764229125E0,5.287110397E1,1.505898468E1,-1.049916687E0,5.498389746E1
2.774168125E0,6.139243378E1,2.205438766E1,2.293231201E0,6.527392933E1
2.784107125E0,4.894072723E1,2.606454849E1,6.109844513E0,5.578427798E1
2.794047125E0,3.165871536E1,2.411889450E1,8.227790222E0,4.064101207E1
2.803986125E0,1.842967529E1,1.961850311E1,8.152945862E0,2.812488439E1
2.813926125E0,1.159488831E1,1.229558121E1,5.071304169E0,1.764485415E1
2.823865125E0,8.789871368E0,9.202862549E0,6.860982513E0,1.445778679E1
2.833805125E0,1.115600098E1,6.771917725E0,-1.096020813E0,1.309643039E1
2.843744125E0,8.901239777E0,5.133874054E0,-3.223247223E0,1.076931080E1
2.853683125E0,5.530399475E0,3.684587860E0,-2.177072754E0,6.992935852E0
2.863623125E0,3.018473053E0,2.508333893E0,-7.454498291E-1,3.994823392E0
2.873562125E0,1.051114197E0,1.187929688E0,3.219804382E-1,1.618545458E0
2.883502125E0,-2.227368164E-1,-3.622467041E-2,6.786886597E-1,7.152217928E-1
2.893441125E0,-1.782493286E0,-2.118095398E0,3.123255157E0,4.173527670E0
2.903381125E0,-4.088148651E0,-5.544769592E0,6.590045929E0,9.533421976E0
2.913320125E0,-3.991449738E0,-5.893244934E0,5.157524872E0,8.789884508E0
2.923259125E0,-2.725681915E0,-4.860991516E0,3.114124146E0,6.384069988E0
2.933199125E0,-1.807491302E0,-4.110302582E0,2.087708588E0,4.951781424E0
2.943138125E0,-1.310524750E0,-3.035238190E0,1.002914429E0,3.454849250E0
2.953078125E0,-1.133742371E0,-1.713037720E0,-9.954299927E-2,2.056642604E0
2.963017125E0,-1.251996460E0,-8.307723999E-1,-6.770420837E-1,1.648048512E0
2.972957125E0,-1.028361511E0,-5.677693176E-1,-6.116281128E-1,1.324378475E0
2.982896125E0,-7.881111145E-1,-4.935237122E-1,-3.833528137E-1,1.005805231E0
2.992835125E0,-6.481521606E-1,-4.784051514E-1,-2.140548706E-1,8.335419605E-1
3.002775125E0,-5.791456604E-1,-5.514532471E-1,-1.689985657E-1,8.173560392E-1
3.012714125E0,-5.998027039E-1,-7.096742249E-1,-2.853067017E-1,9.720085920E-1
3.022654125E0,-3.844006348E-1,-8.512797546E-1,-3.571572876E-1,1.000001198E0
3.032593125E0,-1.242416382E-1,-8.906478882E-1,-5.281018066E-1,1.042871595E0
3.042533125E0,1.466949463E-1,-6.735992432E-1,-1.048120422E0,1.254516547E0
3.052472125E0,6.489006042E-1,-3.135978699E-1,-1.504820709E0,1.668502618E0
3.062411125E0,1.491348724E0,1.013392639E-1,-1.852996674E0,2.380753523E0
3.072351125E0,2.987038422E0,1.406924286E0,-2.899320831E0,4.394075075E0
3.082290125E0,5.597310333E0,3.576362915E0,-3.686683502E0,7.596834203E0
3.092230125E0,8.115224304E0,2.850821686E0,-2.439926147E0,8.940765593E0
3.102169125E0,1.183109711E1,4.380490723E0,-2.485581207E0,1.285852525E1
3.112109125E0,1.810470108E1,6.543792114E0,-3.277883606E0,1.952808074E1
3.122048125E0,2.860566422E1,9.007967834E0,-5.532345428E0,3.049646464E1
3.131987125E0,4.565161697E1,1.437475754E1,-5.450465698E0,4.817064835E1
3.141927125E0,6.274966141E1,2.042113403E1,-1.880090332E-1,6.598922692E1
3.151866125E0,6.178925858E1,2.274385391E1,2.768941956E0,6.590039761E1
3.161806125E0,3.816628281E1,1.988824219E1,8.484805756E0,4.386569559E1
3.171745125E0,1.841770020E1,1.778451691E1,1.370819366E1,2.904161317E1
3.181685125E0,9.642348633E0,1.440140213E1,1.294208679E1,2.163036941E1
3.191624125E0,1.163440613E1,9.858349457E0,3.913611603E0,1.574365954E1
3.201563125E0,1.230740662E1,7.171586609E0,-8.714877319E-1,1.427106874E1
3.211503125E0,7.727979584E0,5.784121857E0,-9.945318604E-1,9.703959384E0
3.221442125E0,3.008743286E0,4.594545593E0,-4.007167053E-1,5.506628664E0
3.231382125E0,-5.837860107E-2,3.470532990E0,-1.360670471E-1,3.473689902E0
3.241321125E0,-1.525477753E0,2.801125031E0,1.225950623E-1,3.191929410E0
3.251261125E0,-1.470841370E0,1.903741150E0,-6.643185425E-1,2.495781206E0
3.261200125E0,-1.996847534E-1,1.143771515E0,-1.169817352E0,1.648198992E0
3.271139125E0,1.118623810E0,6.836283875E-1,-6.662644958E-1,1.470569746E0
3.281079125E0,1.686093750E0,4.302053833E-1,-2.933898926E-2,1.740359038E0
3.291018125E0,1.589843903E0,2.526745605E-1,2.528242493E-1,1.629530045E0
3.300958125E0,1.263372803E0,5.837860107E-2,2.797682190E-1,1.295295007E0
3.310897125E0,8.783734131E-1,-2.543211365E-1,7.185058594E-2,9.172685539E-1
3.320836125E0,4.270619202E-1,-7.273374939E-1,1.490899658E-1,8.565217636E-1
3.330776125E0,-3.038681030E-2,-1.269360352E0,3.764671326E-1,1.324358925E0
3.340715125E0,-3.144960022E-1,-1.676663361E0,5.046006775E-1,1.778968691E0
3.350655125E0,-5.764512634E-1,-2.088157654E0,6.703060913E-1,2.267599767E0
3.360594125E0,-8.604107666E-1,-2.677182770E0,8.216413879E-1,2.929626058E0
3.370534125E0,-1.048120422E0,-3.222947845E0,8.963360596E-1,3.505619427E0
3.380473125E0,-1.064137115E0,-3.153043213E0,8.782237244E-1,3.441706875E0
3.390412125E0,-1.033450928E0,-2.738704834E0,8.372090149E-1,3.044576148E0
3.400352250E0,-9.865983582E-1,-2.538870392E0,6.210585022E-1,2.793734570E0
3.410291250E0,-1.152752838E0,-2.822081451E0,2.378553772E-1,3.057704695E0
3.420231250E0,-1.376387787E0,-3.176843719E0,1.049317932E-1,3.463782620E0
3.430170250E0,-2.989283752E-1,-9.975256348E-1,1.355880432E0,1.709627828E0
3.440110250E0,2.054328003E0,1.271156616E0,3.476670227E0,4.233596409E0
3.450049250E0,3.556454315E0,8.009843445E-1,2.344724121E0,4.334475103E0
3.459988250E0,5.152435455E0,8.937913513E-1,9.581575012E-1,5.316438648E0
3.469928250E0,8.321345673E0,2.394121399E0,1.313518524E0,8.757964489E0
3.479867250E0,1.399290161E1,4.697531433E0,1.421893158E0,1.482868427E1
3.489807250E0,2.315025879E1,7.377707977E0,-4.261637878E-1,2.430116607E1
3.499746250E0,3.933834549E1,1.265363663E1,-4.255500641E0,4.154189730E1
3.509686250E0,5.957895493E1,1.945160019E1,-6.424190826E0,6.300227653E1
3.519625250E0,7.163668076E1,2.566502930E1,-3.633244629E0,7.618207286E1
3.529564250E0,5.907031265E1,2.526565979E1,-6.210585022E-1,6.424983358E1
3.539504250E0,3.121144547E1,1.952090607E1,3.202290802E0,3.695233102E1
3.549443250E0,1.406415344E1,1.648132690E1,8.737031250E0,2.336172647E1
3.559383250E0,5.243895264E0,1.334924011E1,1.200787949E1,1.870534199E1
3.569322250E0,4.079766083E0,9.964927826E0,8.963061218E0,1.401002299E1
3.579262250E0,5.080435181E0,7.209607544E0,3.764970703E0,9.589800152E0
3.589201250E0,3.693269806E0,4.927752686E0,9.641450500E-1,6.233182499E0
3.599140250E0,2.007176056E0,2.802023163E0,-7.226971436E-1,3.521701391E0
3.609080250E0,1.598226471E0,1.468296661E0,-1.231040039E0,2.495131763E0
3.619019250E0,1.507814484E0,6.882687378E-1,-8.482859802E-1,1.861936486E0
3.628959250E0,1.257235565E0,9.729766846E-3,-8.134085083E-1,1.497454285E0
3.638898250E0,9.060658264E-1,-5.508544922E-1,-8.598120117E-1,1.365163964E0
3.648838250E0,6.090834045E-1,-9.880952454E-1,-7.984396362E-1,1.408836634E0
3.658777250E0,4.385879517E-1,-1.735191650E0,-4.067042542E-1,1.835390369E0
3.668716250E0,2.203417969E-1,-2.690355377E0,1.657054138E-1,2.704444647E0
3.678656250E0,5.523513794E-2,-3.255280609E0,6.218069458E-1,3.314596000E0
3.688595250E0,-1.407073975E-1,-3.340603180E0,6.444099426E-1,3.405097994E0
3.698535250E0,-3.620970154E-1,-3.060236206E0,5.590873718E-1,3.131890575E0
3.708474250E0,-6.617738342E-1,-2.903212738E0,5.213658142E-1,3.022980503E0
3.718414250E0,-9.846524048E-1,-3.264561310E0,5.737568665E-1,3.457759079E0
3.728353250E0,-1.184187469E0,-4.082909546E0,4.168830872E-1,4.271561990E0
3.738292250E0,-1.458716583E0,-4.790188751E0,1.700463867E-1,5.010257290E0
3.748232250E0,-1.528621216E0,-4.711153107E0,6.990463257E-2,4.953436491E0
3.758171250E0,-1.588646393E0,-3.946243744E0,2.472857666E-1,4.261195525E0
3.768111250E0,-1.448238373E0,-3.098855896E0,3.906875610E-1,3.442809756E0
3.778050250E0,-1.304986267E0,-2.200573883E0,6.128256226E-1,2.630792621E0
3.787990250E0,-1.341061249E0,-9.283694458E-1,1.038240967E0,1.933457888E0
3.797929250E0,-1.370998993E0,3.947291565E-1,1.551224213E0,2.107544994E0
3.807868250E0,-1.279239807E0,2.134860535E0,2.470911713E0,3.507062685E0
3.817808250E0,-2.004331970E-1,3.357967072E0,3.074157257E0,4.557034031E0
3.827747250E0,1.196611633E0,1.148711243E0,1.377734985E0,2.156286301E0
3.837687250E0,2.798580322E0,5.180726624E-1,5.167254639E-1,2.892655581E0
3.847626250E0,5.359754333E0,1.760638733E0,2.218386841E-1,5.645885906E0
3.857566250E0,8.809181213E0,3.346441040E0,-3.426374817E-1,9.429620445E0
3.867505250E0,1.513607437E1,6.287075958E0,-1.503323822E0,1.645867716E1
3.877444250E0,3.043665665E1,1.128967300E1,-6.630611572E0,3.313324304E1
3.887384250E0,5.368436279E1,1.913261353E1,-1.153291718E1,5.814701959E1
3.897323250E0,7.184624496E1,2.827215775E1,-5.957012329E0,7.743825808E1
3.907263250E0,7.309075699E1,3.265294785E1,2.281555481E0,8.008544971E1
3.917202250E0,4.635006454E1,2.452185654E1,3.615581360E0,5.256160538E1
3.927141250E0,2.435689957E1,1.627565460E1,3.238216095E0,2.947272523E1
3.937081250E0,1.100421661E1,1.486977814E1,1.162587387E1,2.184866194E1
3.947020250E0,2.885100403E0,1.240874588E1,1.725416977E1,2.144777735E1
3.956960250E0,3.257975006E0,8.707841949E0,1.336929840E1,1.628431921E1
3.966899250E0,7.894583130E0,6.255192261E0,3.231929169E0,1.057814914E1
3.976839250E0,8.279283142E0,4.772375793E0,-7.047344971E-1,9.582210119E0
3.986778250E0,5.960455170E0,3.461701355E0,-7.756869507E-1,6.936288081E0
3.996717250E0,3.179687805E0,1.625170441E0,-8.313711548E-1,3.666438530E0
4.006657250E0,1.440005493E0,4.200265503E-1,-1.473236389E0,2.102489853E0
4.016596250E0,5.969586182E-1,1.721420288E-2,-1.888023834E0,1.980224714E0
4.026536250E0,2.395019531E-2,-1.796264648E-2,-1.826651459E0,1.826896773E0
4.036475250E0,-3.399430847E-1,-1.634600830E-1,-1.225202179E0,1.281951980E0
4.046415250E0,-6.134243774E-1,-6.411167908E-1,-7.460485840E-1,1.159270760E0
4.056354250E0,-8.373587036E-1,-1.147663422E0,-5.737568665E-1,1.532154649E0
4.066293250E0,-1.016087036E0,-1.522783356E0,-6.047424316E-1,1.927956281E0
4.076233250E0,-1.236428833E0,-1.904639282E0,-8.470884705E-1,2.423626607E0
4.086172250E0,-1.218466187E0,-2.695744171E0,-5.568420410E-1,3.010277320E0
4.096112250E0,-1.089584198E0,-4.082610168E0,1.832189941E-1,4.229476175E0
4.106051250E0,-1.393452301E0,-4.953349457E0,3.402424622E-1,5.156854185E0
4.115991250E0,-2.055824890E0,-5.757477264E0,-2.993774414E-2,6.113579696E0
4.125930250E0,-2.300715637E0,-5.393883362E0,-3.113525391E-1,5.872325823E0
4.135869250E0,-1.984573059E0,-4.081262970E0,-3.293151855E-2,4.538317105E0
4.145809250E0,-1.947300568E0,-3.236120453E0,3.176394653E-1,3.790164893E0
4.155748250E0,-2.024090881E0,-2.280357971E0,4.960684204E-1,3.089184399E0
4.165688250E0,-1.907782745E0,-1.137185211E0,6.222560120E-1,2.306518535E0
4.175627250E0,-1.498384094E0,-1.663041687E-1,8.090675354E-1,1.710965297E0
4.185567250E0,-4.912783813E-1,1.222657471E0,1.494641876E0,1.992536092E0
4.195506250E0,1.590891724E0,1.730401611E0,1.773661652E0,2.944673474E0
4.205445250E0,3.345692596E0,-3.083587646E-2,1.046773224E0,3.505758689E0
4.215385250E0,5.034331055E0,-3.632945251E-1,1.163380737E0,5.179761271E0
4.225324250E0,7.558831329E0,5.857319641E-1,1.137634277E0,7.666369724E0
4.235264250E0,1.164024399E1,1.681603088E0,1.082099762E0,1.181075819E1
4.245203250E0,1.834540054E1,4.400998077E0,1.885329437E0,1.895987796E1
4.255143250E0,3.027229843E1,7.778424683E0,-1.062789917E-1,3.125583526E1
4.265082250E0,4.884208237E1,1.473954895E1,-4.632416840E0,5.122755703E1
4.275021250E0,6.640401215E1,2.285701859E1,-4.905000000E0,7.039882920E1
4.284961250E0,6.540888153E1,2.639700714E1,-1.486858063E0,7.055022690E1
4.294900250E0,3.718836639E1,2.485745865E1,5.884712677E0,4.511649021E1
4.304840250E0,1.801009781E1,1.825004883E1,7.631580048E0,2.675198907E1
4.314779250E0,1.236937775E1,1.315509384E1,3.774251404E0,1.844730261E1
4.324719250E0,7.593708801E0,1.060424835E1,2.558778992E0,1.329142003E1
4.334658250E0,4.887486420E0,8.440198517E0,3.742218018E-1,9.760354321E0
4.344597250E0,3.230881348E0,6.631509705E0,-2.004781036E0,7.644256815E0
4.354537250E0,1.249152374E0,5.362598419E0,-2.616558838E0,6.096246682E0
4.364476250E0,-1.688488770E-1,4.099524994E0,-2.511627045E0,4.810705305E0
4.374416250E0,-4.002676392E-1,3.436703339E0,-2.480641479E0,4.257314432E0
4.384355250E0,-4.670288086E-1,3.194806366E0,-1.959575043E0,3.776882044E0
4.394295250E0,-8.744815063E-1,2.170636139E0,-1.101858673E0,2.586594612E0
4.404234625E0,-7.774832153E-1,9.274713135E-1,-6.512956238E-1,1.374361371E0
4.414173625E0,-4.978646851E-1,-2.453398132E-1,2.427951050E-1,6.058137763E-1
4.424113625E0,2.457888794E-1,-9.470805359E-1,1.217118988E0,1.561650520E0
4.434052625E0,8.321195984E-1,-5.215155029E-1,1.116827545E0,1.487180289E0
4.443992625E0,6.189628601E-1,9.984237671E-2,7.782316589E-1,9.993638163E-1
4.453931625E0,4.385879517E-2,7.370672607E-1,1.023870850E-1,7.454360173E-1
4.463871625E0,-1.585203552E-1,7.360194397E-1,-1.511856079E-1,7.679260424E-1
4.473810625E0,-8.158035278E-2,3.499722290E-1,2.694396973E-3,3.593649605E-1
4.483749625E0,-6.137237549E-3,5.568420410E-2,1.222956848E-1,1.345162845E-1
4.493689625E0,-6.780899048E-2,-1.924996948E-1,2.339634705E-1,3.104723775E-1
4.503628625E0,-1.413061523E-1,-4.343966675E-1,2.061213684E-1,5.011525835E-1
4.513568625E0,-2.209405518E-1,-5.668711853E-1,1.047821045E-3,6.084067439E-1
4.523507625E0,-2.920426941E-1,-6.039939880E-1,-9.654922485E-2,6.778048580E-1
4.533446625E0,-3.574566650E-1,-6.191125488E-1,-1.692979431E-1,7.346682306E-1
4.543386625E0,-4.507127380E-1,-6.185137939E-1,-2.269281006E-1,7.982466087E-1
4.553325625E0,-4.793032837E-1,-5.593867493E-1,-3.230282593E-1,8.043583961E-1
4.563265625E0,-4.981640625E-1,-4.152365112E-1,-5.044509888E-1,8.216201029E-1
4.573204625E0,-1.823208618E-1,2.926414490E-1,-8.544232178E-1,9.213679772E-1
4.583144625E0,1.958078156E0,2.642155609E0,-1.455573120E0,3.596352240E0
4.593083625E0,3.376977539E0,2.177072754E0,-4.502636719E-1,4.043063251E0
4.603022625E0,5.568570099E0,5.309758301E0,1.458117828E0,7.831258760E0
4.612962625E0,9.738448792E0,7.610473938E0,2.385738831E0,1.258763076E1
4.622901625E0,1.776879959E1,7.601642303E0,4.670288086E-2,1.932659788E1
4.632841625E0,3.011302963E1,1.182540894E1,-3.966601410E0,3.259399909E1
4.642780625E0,4.505151489E1,1.755818756E1,-5.716462555E0,4.868887849E1
4.652720625E0,6.084352524E1,2.369527542E1,-1.623673553E0,6.531490608E1
4.662659625E0,6.588983139E1,2.740905258E1,8.360414429E0,7.185139229E1
4.672598625E0,3.772874268E1,1.996637970E1,5.638923798E0,4.305707612E1
4.682538625E0,1.888338181E1,1.373214386E1,5.437143402E0,2.397324366E1
4.692477625E0,1.176164154E1,1.125120300E1,3.565285950E0,1.666244414E1
4.702417625E0,7.520660706E0,8.462951202E0,3.567680969E0,1.187056140E1
4.712356625E0,8.297545166E0,6.544839935E0,-1.005758514E0,1.061582478E1
4.722296625E0,5.720204773E0,5.165757751E0,-1.345402222E0,7.824059236E0
4.732235625E0,2.389780426E0,3.699706421E0,-5.528004456E-1,4.438971324E0
4.742174625E0,-2.118095398E-1,2.312391357E0,-6.617738342E-1,2.414531358E0
4.752114625E0,-2.506837006E0,4.059558105E-1,-2.432441711E-1,2.551117328E0
4.762053625E0,-3.519930267E0,-1.113983459E0,-5.637277222E-1,3.734790112E0
4.771993625E0,-2.556683350E0,-1.200802917E0,-2.729873199E0,3.928201253E0
4.781932625E0,-1.298399963E0,-8.918453979E-1,-2.850222931E0,3.256532118E0
4.791872625E0,-3.906875610E-1,-1.302591248E0,-1.586550751E0,2.089622936E0
4.801811625E0,2.797682190E-1,-1.954785004E0,-5.809419250E-1,2.058384849E0
4.811750625E0,7.286846924E-1,-2.461331635E0,3.502716064E-2,2.567169978E0
4.821690625E0,8.343649292E-1,-2.685565338E0,2.835104370E-1,2.826447273E0
4.831629625E0,7.069798279E-1,-2.763553162E0,4.746629333E-1,2.891773064E0
4.841569625E0,6.258485413E-1,-3.254681854E0,1.006956024E0,3.463899653E0
4.851508625E0,5.885760498E-1,-3.891158295E0,1.599873047E0,4.248191192E0
4.861448625E0,2.381547546E-1,-3.306623840E0,1.478625183E0,3.629987788E0
4.871387625E0,5.538482666E-3,-2.675236816E0,1.353784790E0,2.998275497E0
4.881326625E0,-9.639953613E-2,-2.596051483E0,1.067729645E0,2.808704820E0
4.891266625E0,-3.532653809E-1,-2.507884827E0,7.370672607E-1,2.637716983E0
4.901205625E0,-5.505551147E-1,-2.343376923E0,5.129832458E-1,2.461235086E0
4.911145625E0,-9.232800293E-1,-2.318079529E0,8.532257080E-1,2.637031062E0
4.921084625E0,-1.106798401E0,-8.334667969E-1,2.006128235E0,2.438077131E0
4.931024625E0,-6.227050781E-2,1.532662811E0,2.999911652E0,3.369332698E0
4.940963625E0,1.746867371E0,9.047186279E-1,1.984273682E0,2.794173125E0
4.950902625E0,3.968397675E0,8.339158630E-1,1.215173035E0,4.233230595E0
4.960842625E0,7.176526337E0,2.292632446E0,1.660946045E0,7.714754407E0
4.970781625E0,1.159668457E1,5.566773834E0,2.516117706E0,1.310736100E1
4.980721625E0,1.744517258E1,9.807305603E0,1.270857239E0,2.005323833E1
4.990660625E0,2.806453949E1,1.246682510E1,-2.173480225E0,3.078577791E1
5.000600625E0,4.408916611E1,1.967658234E1,-7.299869843E0,4.882940262E1
5.010539625E0,6.044415573E1,2.678305435E1,-7.354655914E0,6.652006409E1
5.020478625E0,6.692058792E1,2.858006744E1,-3.657494202E0,7.285988338E1
5.030418625E0,4.600862457E1,2.193074478E1,-9.783654785E-1,5.097752741E1
5.040357625E0,2.218446716E1,1.525298126E1,3.112327881E0,2.710148715E1
5.050297625E0,1.003812561E1,1.266276764E1,8.650211792E0,1.832855188E1
5.060236625E0,5.857319641E0,1.074794952E1,9.852361908E0,1.571291340E1
5.070176625E0,7.115303650E0,8.593779144E0,5.445226593E0,1.241495383E1
5.080115625E0,6.750811615E0,6.895560608E0,2.658172302E0,1.000940026E1
5.090054625E0,4.564158783E0,5.250780945E0,1.320104828E0,7.081307978E0
5.099994625E0,2.427352295E0,3.501817932E0,-1.444496155E-1,4.263289069E0
5.109933625E0,8.632548523E-1,2.073787537E0,-1.198707275E0,2.546115241E0
5.119873625E0,1.362167358E-2,1.287921753E0,-1.475631409E0,1.958677116E0
5.129812625E0,-3.782633972E-1,7.035369873E-1,-1.281185760E0,1.509796159E0
5.139751625E0,-5.155279541E-1,-1.164578247E-1,-9.095086670E-1,1.051920868E0
5.149691625E0,-7.111711121E-1,-1.294957123E0,-5.414241028E-1,1.573473343E0
5.159630625E0,-9.502239990E-1,-2.569706268E0,-1.646575928E-1,2.744709106E0
5.169570625E0,-8.988807678E-1,-3.317102051E0,-1.282832336E-1,3.439129139E0
5.179509625E0,-6.433621216E-1,-3.647914124E0,1.191522217E-1,3.706128644E0
5.189449625E0,-4.143383789E-1,-3.873195648E0,4.326004028E-1,3.919242775E0
5.199388625E0,-2.890489197E-1,-3.858226776E0,8.223898315E-1,3.955475720E0
5.209327625E0,-3.980223083E-1,-3.244503021E0,9.192384338E-1,3.395617898E0
5.219267625E0,-6.526428223E-1,-2.731519775E0,8.818162537E-1,2.943593525E0
5.229206625E0,-7.282356262E-1,-2.880310364E0,7.773335266E-1,3.070954629E0
5.239146625E0,-5.412744141E-1,-3.482358398E0,5.695655823E-1,3.569902374E0
5.249085625E0,-4.484674072E-1,-4.253854065E0,2.850073242E-1,4.286913411E0
5.259025625E0,-4.411326599E-1,-4.888833618E0,-1.374142456E-1,4.910618581E0
5.268964625E0,-5.923182678E-1,-5.694757690E0,-4.138893127E-1,5.740419013E0
5.278903625E0,-9.126521301E-1,-5.285508728E0,-1.369651794E-1,5.365472569E0
5.288843625E0,-1.142274628E0,-3.465742950E0,5.517526245E-1,3.690609229E0
5.298782625E0,-1.360820160E0,-8.520281982E-1,1.787283325E0,2.402533089E0
5.308722625E0,-8.834628296E-1,1.619781647E0,3.593876495E0,4.039820221E0
5.318661625E0,1.263522491E0,1.828747101E0,3.800895996E0,4.403136997E0
5.328601625E0,3.879781952E0,7.963439941E-2,2.480791168E0,4.605797917E0
5.338540625E0,7.619155884E0,4.363426208E-1,2.688708801E0,8.091420535E0
5.348479625E0,1.496483047E1,4.138144684E0,5.184319153E0,1.636910375E1
5.358419625E0,2.653681641E1,8.496780853E0,2.832409973E0,2.800750714E1
5.368358625E0,4.576373383E1,1.344953156E1,-4.871918793E0,4.794731302E1
5.378298625E0,6.987215012E1,2.144725021E1,-7.558382263E0,7.347946003E1
5.388237625E0,7.881440460E1,2.957579681E1,-2.464624786E0,8.421705590E1
5.398177500E0,5.895595047E1,3.085982666E1,1.672621765E0,6.656523613E1
5.408116500E0,2.731025803E1,2.365216507E1,8.858877869E0,3.719885513E1
5.418055500E0,9.453441467E0,1.813149536E1,1.483310440E1,2.526142644E1
5.427995500E0,3.423680420E0,1.340537338E1,1.205937241E1,1.835358510E1
5.437934500E0,5.770649872E0,9.145831146E0,4.981191559E0,1.190625452E1
5.447874500E0,6.350394287E0,6.304589539E0,4.894821167E-1,8.961860833E0
5.457813500E0,3.829785919E0,4.301155701E0,-1.548829193E0,5.963729741E0
5.467753500E0,1.412313080E0,2.831212463E0,-2.244582367E0,3.879245062E0
5.477692500E0,-2.320175171E-2,1.821262665E0,-1.852098541E0,2.597653753E0
5.487631500E0,-6.798861694E-1,1.139280853E0,-1.278042297E0,1.842172136E0
5.497571500E0,-6.692582703E-1,6.824308777E-1,-9.533674622E-1,1.350010390E0
5.507510500E0,-4.718188477E-1,4.343966675E-1,-9.916877747E-1,1.180998786E0
5.517450500E0,-5.195695496E-1,3.514691162E-1,-1.118773499E0,1.282629018E0
5.527389500E0,-6.920109558E-1,1.116677856E-1,-1.118324432E0,1.319847868E0
5.537329500E0,-1.127156067E0,-3.875440979E-1,-1.161135406E0,1.664003203E0
5.547268500E0,-1.703607330E0,-8.637039185E-1,-1.040785675E0,2.175200500E0
5.557207500E0,-2.140399017E0,-1.172661438E0,-8.545729065E-1,2.585872706E0
5.567147500E0,-2.491269379E0,-1.335073700E0,-9.859996033E-1,2.993499644E0
5.577086500E0,-2.669099579E0,-1.661694489E0,-1.373543701E0,3.431026586E0
5.587026500E0,-2.747087402E0,-1.995650024E0,-1.747316437E0,3.818667693E0
5.596965500E0,-2.729124756E0,-2.173180847E0,-2.054028625E0,4.048440505E0
5.606905500E0,-2.718496857E0,-2.235750732E0,-1.670376434E0,3.896018985E0
5.616844500E0,-2.651735687E0,-2.198328552E0,-1.213975525E0,3.652134602E0
5.626783500E0,-2.515069885E0,-2.226020966E0,-1.062789917E0,3.522821068E0
5.636723500E0,-2.790646820E0,-3.011138306E0,-1.496587830E0,4.369718378E0
5.646662500E0,-2.584375763E0,-2.727178802E0,-9.186396790E-1,3.867867780E0
5.656602500E0,-2.012415161E0,-1.771566010E0,-1.598675537E-1,2.685855272E0
5.666541500E0,-1.548829193E0,-8.901988220E-1,2.754272461E-2,1.786640539E0
5.676481500E0,-1.376836853E0,1.697919159E0,2.583327942E0,3.384108811E0
5.686420500E0,-1.832938385E0,3.644620972E0,9.704768829E0,1.052736734E1
5.696359500E0,3.643423462E-1,-4.957690430E-1,1.157991943E0,1.311288538E0
5.706299500E0,1.273701324E0,2.035766602E-2,3.459306335E-1,1.319999054E0
5.716238500E0,1.695973206E0,1.046773224E0,1.252894592E0,2.354103684E0
5.726178500E0,4.925507355E0,2.486479340E0,-6.406677246E-2,5.517907824E0
5.736117500E0,1.115555191E1,4.967569885E0,1.446891174E0,1.229701521E1
5.746056500E0,3.575195343E1,1.206910217E1,2.897973633E-1,3.773525386E1
5.755996500E0,6.951379532E1,2.278801208E1,-1.962269440E0,7.317999546E1
5.765935500E0,7.963844101E1,3.211212250E1,8.762777710E-1,8.587338098E1
5.775875500E0,7.464392715E1,3.771616882E1,1.761836243E0,8.365004076E1
5.785814500E0,4.318744125E1,2.825434479E1,6.619684296E0,5.203156063E1
5.795754500E0,1.909803543E1,1.655557251E1,8.649762726E0,2.671404750E1
5.805693500E0,1.016536102E1,1.028825546E1,7.063211975E0,1.609570528E1
5.815632500E0,5.855972443E0,5.860313416E0,3.452720032E0,8.975353040E0
5.825572500E0,2.667752380E0,3.715872803E0,1.899549866E-1,4.578285306E0
5.835511500E0,-2.148033142E-1,1.965712280E0,-1.855391693E0,2.711575846E0
5.845451500E0,-1.835483093E0,8.500822449E-1,-2.874472504E0,3.514858487E0
5.855390500E0,-1.840572510E0,3.996688843E-1,-2.623893585E0,3.229900916E0
5.865330500E0,-1.698218536E0,-2.841091919E-1,-1.920206909E0,2.579119773E0
5.875269500E0,-2.100132751E0,-1.008602600E0,-1.192570038E0,2.617261942E0
5.885208500E0,-2.768193512E0,-2.000290375E0,-6.821315002E-1,3.482723114E0
5.895148500E0,-3.495980072E0,-2.794239349E0,-6.280938721E-1,4.519308810E0
5.905087500E0,-4.181853790E0,-3.484753418E0,-7.264393616E-1,5.491732118E0
5.915027500E0,-4.842879181E0,-4.007017365E0,-7.918533325E-1,6.335353078E0
5.924966500E0,-4.556674347E0,-3.656147003E0,-1.363664246E0,5.999189294E0
5.934906500E0,-3.868555298E0,-3.258124695E0,-1.117426300E0,5.179743059E0
5.944845500E0,-3.935915222E0,-3.334465942E0,-3.546125793E-1,5.170671314E0
5.954784500E0,-4.604425049E0,-3.854634247E0,-2.576142883E-1,6.010432624E0
5.964724500E0,-4.873265991E0,-4.266727295E0,-3.276686096E-1,6.485449094E0
5.974663500E0,-4.495751038E0,-4.657115479E0,-2.490820312E-1,6.477850248E0
5.984603500E0,-4.528383179E0,-5.915398865E0,-6.286926270E-2,7.449976543E0
5.994542500E0,-4.513414307E0,-6.348148956E0,4.614903259E-1,7.802748054E0
6.004482500E0,-3.825295258E0,-5.796546021E0,9.172924805E-1,7.005301926E0
6.014421500E0,-2.310894470E0,-5.064268799E0,1.155746613E0,5.685314587E0
6.024360500E0,-1.025667114E0,-3.052452393E0,2.477198639E0,4.062754206E0
6.034300500E0,1.194515991E0,1.418899384E0,5.193450165E0,5.514713821E0
6.044239500E0,3.090323639E0,8.684939575E-1,3.839216309E0,5.004394450E0
6.054179500E0,3.055895233E0,-1.208736420E0,1.182840271E0,3.492656656E0
6.064118500E0,3.427272949E0,-5.631289673E-1,1.391506348E0,3.741604471E0
6.074058500E0,4.495751038E0,-5.462141418E-1,1.585802307E0,4.798426434E0
6.083997500E0,7.414681091E0,-4.682263184E-1,1.096769257E0,7.509968999E0
6.093936500E0,2.084639969E1,9.214837646E-1,1.664538574E0,2.093304089E1
6.103876500E0,4.309613113E1,5.179229736E0,-3.233276367E-1,4.340743577E1
6.113815500E0,6.926875488E1,1.622850266E1,-6.480623474E0,7.143894724E1
6.123755500E0,7.961523926E1,3.434308319E1,-3.939208374E0,8.679603129E1
6.133694500E0,6.972560486E1,4.413362366E1,9.337582397E-1,8.252459400E1
6.143634500E0,4.375955154E1,3.533551941E1,6.542444916E0,5.662420744E1
6.153573500E0,2.575139969E1,2.127525787E1,8.593180389E0,3.449078040E1
6.163512500E0,1.513188309E1,1.237446716E1,6.892716522E0,2.072705634E1
6.173452500E0,8.485703888E0,7.027286682E0,3.368744659E0,1.152121388E1
6.183391500E0,3.850592651E0,4.268224182E0,3.712280273E-1,5.760435026E0
6.193331500E0,4.394860840E-1,2.363734589E0,-1.180145874E0,2.678270619E0
6.203270500E0,-1.759141846E0,8.746311951E-1,-1.452878723E0,2.443443542E0
6.213210500E0,-2.498304749E0,-6.631210327E-2,-1.076112213E0,2.721018450E0
6.223149500E0,-2.524949341E0,-6.005511475E-1,-4.962181091E-1,2.642397257E0
6.233088500E0,-2.675985260E0,-1.103654938E0,9.220825195E-2,2.896110097E0
6.243028500E0,-2.970872040E0,-1.741029510E0,1.633103943E-1,3.447308329E0
6.252967500E0,-3.289409637E0,-2.312541046E0,-1.161584473E-1,4.022630313E0
6.262907500E0,-3.525019684E0,-2.688858490E0,-2.493814087E-1,4.440485879E0
6.272846500E0,-3.660637665E0,-3.026705933E0,8.966354370E-2,4.750711154E0
6.282785500E0,-3.640279999E0,-3.502416687E0,1.323098602E0,5.221987268E0
6.292725500E0,-4.001478882E0,-3.753893738E0,1.719474335E0,5.749795077E0
6.302664500E0,-3.910917206E0,-3.313659210E0,5.230123901E-1,5.152586992E0
6.312604500E0,-4.235442352E0,-3.115471344E0,4.396357727E-1,5.276212015E0
6.322543500E0,-4.488565979E0,-3.115471344E0,2.424957275E-1,5.469203820E0
6.332483500E0,-4.342769165E0,-3.218008118E0,2.200424194E-2,5.405155359E0
6.342422500E0,-4.640050964E0,-4.293222198E0,-2.221380615E-1,6.325438729E0
6.352361500E0,-5.005441132E0,-5.218448181E0,-2.769241333E-2,7.231003334E0
6.362301500E0,-4.264931030E0,-4.652624817E0,4.520599365E-1,6.327788916E0
6.372240500E0,-3.135829010E0,-3.865112457E0,5.951623535E-1,5.012657590E0
6.382180500E0,-2.150877228E0,-3.228186951E0,8.117619324E-1,3.963132760E0
6.392119500E0,-1.031804352E0,-2.295326843E0,7.771838379E-1,2.633848943E0
6.402059125E0,4.587959290E-1,-3.067121887E-1,1.041833496E0,1.178975447E0
6.411998125E0,1.515298920E0,5.393284607E-1,8.749305725E-1,1.830985940E0
6.421937125E0,2.147135010E0,-3.890409851E-1,3.495231628E-1,2.209911328E0
6.431877125E0,3.531306610E0,-1.245410156E-1,1.678309937E0,3.911823243E0
6.441816125E0,4.791535950E0,6.574328613E-1,3.075953522E0,5.731712204E0
6.451756125E0,6.632707214E0,9.642947388E-1,1.421144714E0,6.851446682E0
6.461695125E0,1.010668304E1,1.848805389E0,-1.998194733E0,1.046689571E1
6.471635125E0,2.726101044E1,6.530020752E0,-3.814367981E0,2.829051545E1
6.481574125E0,5.579003403E1,2.076257401E1,-6.569388885E0,5.988964223E1
6.491513125E0,7.871920258E1,3.533402252E1,-5.396428070E0,8.645419271E1
6.501453125E0,7.848987946E1,4.474704803E1,-2.098635864E-1,9.034934160E1
6.511392125E0,5.736431030E1,3.822376328E1,5.290448456E0,6.913543968E1
6.521332125E0,2.591590759E1,2.368599472E1,9.246272278E0,3.630639287E1
6.531271125E0,1.234542755E1,1.382659744E1,8.872200165E0,2.054994681E1
6.541211125E0,7.745044098E0,7.568860474E0,4.521347809E0,1.173524363E1
6.551150125E0,5.112468567E0,4.402494965E0,-2.195933533E-1,6.750371694E0
6.561089125E0,1.780397644E0,2.303859100E0,-2.955753479E0,4.148983147E0
6.571029125E0,-2.933898926E-1,9.928852844E-1,-3.650309143E0,3.794292511E0
6.580968125E0,-1.096469879E0,4.228706360E-1,-2.880010986E0,3.110551246E0
6.590908125E0,-1.026116180E0,1.017883301E-2,-1.832040253E0,2.099854641E0
6.600847125E0,-1.256187744E0,-6.770420837E-1,-1.037342834E0,1.764220448E0
6.610787125E0,-1.847009125E0,-1.585053864E0,-6.966513062E-1,2.531632181E0
6.620726125E0,-2.621797943E0,-2.770887909E0,-4.932243347E-1,3.846415800E0
6.630665125E0,-2.939587097E0,-3.357218628E0,-6.271957397E-1,4.506158421E0
6.640605125E0,-3.007396088E0,-3.321293335E0,-1.247356110E0,4.650948066E0
6.650544125E0,-3.602109375E0,-3.309916992E0,-1.833237762E0,5.224127022E0
6.660484125E0,-4.582271118E0,-3.596121826E0,-2.068847809E0,6.181377844E0
6.670423125E0,-5.207670593E0,-4.084406433E0,-1.722917175E0,6.838907260E0
6.680363125E0,-5.687572632E0,-4.696782990E0,-1.420995026E0,7.511822665E0
6.690302125E0,-5.735622711E0,-5.009033661E0,-9.035211182E-1,7.668385522E0
6.700241125E0,-5.343438263E0,-5.080135803E0,-2.200424194E-1,7.376213860E0
6.710181125E0,-4.784500580E0,-5.211562500E0,5.614823914E-1,7.096977664E0
6.720120125E0,-4.502337341E0,-6.242768097E0,9.044192505E-1,7.749914143E0
6.730060125E0,-3.603905640E0,-6.120921478E0,1.109792175E0,7.189259647E0
6.739999125E0,-2.519710236E0,-4.813989258E0,1.610351257E0,5.667156555E0
6.749938125E0,-1.224004669E0,-2.936593323E0,2.481838989E0,4.035008370E0
6.759878125E0,1.355730743E0,-9.389973450E-1,3.559897156E0,3.923339091E0
6.769817125E0,3.401077423E0,-1.880539398E0,2.287393341E0,4.509537045E0
6.779757125E0,4.040847015E0,-1.980082397E0,1.211131439E0,4.660044020E0
6.789696125E0,4.048181763E0,-1.164278870E0,1.080153809E0,4.348569089E0
6.799636125E0,4.522096252E0,-1.003363495E0,5.578898621E-1,4.665547547E0
6.809575125E0,9.302555237E0,-1.085093536E0,-8.104147339E-1,9.400624126E0
6.819515125E0,2.130175278E1,-9.443861389E-1,-1.250798950E0,2.135933132E1
6.829454125E0,4.031940536E1,2.238744507E0,-1.113684082E-1,4.038166451E1
6.839393125E0,6.193894730E1,1.006057892E1,-1.680106201E0,6.277317259E1
6.849333125E0,6.873331833E1,2.354064697E1,2.803669739E-1,7.265335308E1
6.859272125E0,5.725758224E1,4.191838028E1,3.079096985E0,7.102860106E1
6.869212125E0,4.123295563E1,4.242507660E1,2.322719879E0,5.920674608E1
6.879151125E0,2.863275787E1,2.600287674E1,3.985013123E0,3.888270505E1
6.889091125E0,1.809557007E1,1.400278107E1,2.887794800E0,2.306223954E1
6.899030125E0,1.102562210E1,7.484286346E0,1.175954590E0,1.337765876E1
6.908969125E0,6.459816742E0,4.348157959E0,-1.663041687E-1,7.788669145E0
6.918909125E0,2.960094452E0,2.860551453E0,-1.119521942E0,4.265939891E0
6.928848125E0,2.448907471E-1,1.419647827E0,-1.948049011E0,2.422863261E0
6.938788125E0,-9.270222473E-1,5.980064392E-1,-1.668879547E0,2.000535151E0
6.948727125E0,-1.421593781E0,4.700225830E-2,-7.635621643E-1,1.614362186E0
6.958666125E0,-2.173779602E0,-7.321275330E-1,8.434959412E-1,2.443934100E0
6.968606125E0,-2.803819427E0,-1.665287018E0,1.630110168E0,3.645798046E0
6.978545125E0,-2.680326233E0,-1.831142120E0,6.988966370E-1,3.320494946E0
6.988485125E0,-2.352657623E0,-1.535656586E0,-7.780819702E-1,2.915244517E0
6.998424125E0,-2.371668091E0,-1.403331757E0,-1.454674988E0,3.116124014E0
7.008364125E0,-2.540966034E0,-1.473984833E0,-1.243913269E0,3.190056409E0
7.018303125E0,-2.921624451E0,-1.848056946E0,-1.152902527E0,3.644226686E0
7.028242125E0,-3.091970215E0,-2.064656525E0,-1.093176727E0,3.875322145E0
7.038182125E0,-3.237467651E0,-2.302062836E0,-8.280780029E-1,4.057881624E0
7.048121125E0,-3.720513153E0,-2.659519501E0,-4.159849548E-1,4.592200516E0
7.058061125E0,-4.359534302E0,-3.286266174E0,-6.316864014E-2,5.459768766E0
7.068000125E0,-5.267995148E0,-4.538861389E0,7.137158203E-1,6.990166368E0
7.077940125E0,-6.636599121E0,-6.480324097E0,1.486259308E0,9.394041464E0
7.087879125E0,-5.759872284E0,-6.588249664E0,1.823208618E0,8.938973768E0
7.097818125E0,-3.875291290E0,-5.640570374E0,2.533182220E0,7.297323406E0
7.107758125E0,-2.313888245E0,-3.945195923E0,3.379971313E0,5.687077963E0
7.117697125E0,-3.876937866E-1,-8.161029053E-1,4.800816650E0,4.885096819E0
7.127637125E0,2.102677460E0,1.547781372E-1,4.803960114E0,5.246259767E0
7.137576125E0,2.715353394E0,-1.688488770E0,1.271306305E0,3.440982141E0
7.147516125E0,3.344944153E0,-1.093476105E0,3.852987671E-1,3.540168996E0
7.157455125E0,4.216431885E0,-6.626719666E-1,1.692979431E-1,4.271544658E0
7.167394125E0,6.109096069E0,-5.249583435E-1,-1.963916016E0,6.438447186E0
7.177334125E0,1.562780182E1,-1.399589539E-1,-4.755011902E0,1.633578637E1
7.187273125E0,3.563130432E1,4.290827179E0,-2.605182495E0,3.598316303E1
7.197213125E0,5.912165588E1,1.209335175E1,-3.946842499E0,6.047476264E1
7.207152125E0,7.732709747E1,2.389825333E1,-3.280278625E0,8.100226382E1
7.217092125E0,6.851686844E1,3.864004761E1,3.529660034E0,7.874054254E1
7.227031125E0,4.555102615E1,4.009606979E1,8.838520203E0,6.132462993E1
7.236970125E0,2.857273270E1,2.755799286E1,1.011895752E1,4.096629499E1
7.246910125E0,1.764425858E1,1.436517746E1,6.343059540E0,2.362017334E1
7.256849125E0,1.131122818E1,7.627837830E0,2.200873260E0,1.381924875E1
7.266789125E0,6.740932159E0,4.124672699E0,-1.070573730E0,7.974911872E0
7.276728125E0,3.150797882E0,2.153571625E0,-3.272794189E0,5.027581908E0
7.286668125E0,6.953041077E-1,9.669891357E-1,-3.459605713E0,3.658877899E0
7.296607125E0,-7.967930603E-1,3.264710999E-1,-1.995350647E0,2.173220367E0
7.306546125E0,-1.770967255E0,-3.369493103E-1,-9.707313538E-1,2.047481188E0
7.316486125E0,-2.240840149E0,-1.059496765E0,-2.727328491E-1,2.493648166E0
7.326425125E0,-2.193837891E0,-1.552571411E0,4.580474854E-1,2.726391420E0
7.336365125E0,-2.029180298E0,-1.736838226E0,4.261637878E-1,2.704772685E0
7.346304125E0,-1.953437805E0,-1.645079041E0,2.484832764E-2,2.553981548E0
7.356244125E0,-1.996697845E0,-1.512754211E0,-3.140469360E-1,2.524649098E0
7.366183125E0,-2.430944824E0,-1.709145813E0,-7.857160950E-1,3.073763480E0
7.376122125E0,-3.069516907E0,-2.143841858E0,-1.486109619E0,4.028214710E0
7.386062125E0,-3.529660034E0,-2.475701752E0,-1.278042297E0,4.496775649E0
7.396001125E0,-3.726650391E0,-3.030298462E0,-6.242019653E-1,4.843579255E0
7.405941417E0,-4.667893066E0,-3.920048218E0,-6.721023560E-2,6.095942989E0
7.415880417E0,-7.393724670E0,-5.351072388E0,-1.263372803E0,9.213970428E0
7.425820417E0,-7.861052856E0,-6.269263000E0,-2.812351685E0,1.044074387E1
7.435759417E0,-4.070485382E0,-4.271517334E0,-1.191671906E0,6.019534327E0
7.445698417E0,-1.845961304E0,-2.938838654E0,9.520202637E-2,3.471802009E0
7.455638417E0,-2.980302429E-1,-2.628683624E0,4.884342957E-1,2.690235619E0
7.465577417E0,7.429051208E-1,-1.948947144E0,1.060694275E0,2.339951993E0
7.475517417E0,1.860481110E0,-9.419911194E-1,2.145787811E0,2.992180235E0
7.485456417E0,4.015699310E0,7.225474548E-1,3.999981995E0,5.713822865E0
7.495396417E0,4.353696442E0,1.383123779E-1,2.927013245E0,5.247971947E0
7.505335417E0,2.871179352E0,-6.722520447E-1,9.960287476E-1,3.112501719E0
7.515274417E0,3.097808075E0,-5.444178772E-1,8.683442688E-1,3.262947665E0
7.525214417E0,4.791236572E0,-5.713618469E-1,5.394781494E-1,4.855248596E0
7.535153417E0,1.186792053E1,-6.670129395E-1,4.249662781E-1,1.189424400E1
7.545093417E0,2.544049622E1,5.233117676E-1,-1.418300629E0,2.548537384E1
7.555032417E0,4.786042374E1,5.555547180E0,-3.131937103E0,4.828346813E1
7.564971417E0,6.913328659E1,1.572390198E1,-2.262844391E0,7.093499047E1
7.574911417E0,7.065577057E1,3.157893127E1,-2.821482697E0,7.744306024E1
7.584850417E0,5.418177841E1,4.315810226E1,-6.294410706E-1,6.927252774E1
7.594790417E0,3.698254440E1,3.445370316E1,4.217330017E0,5.072033245E1
7.604729417E0,2.189257416E1,1.966311035E1,6.295757904E0,3.009251202E1
7.614669417E0,1.244856308E1,1.016102005E1,5.371879120E0,1.694314423E1
7.624608417E0,8.142767029E0,5.508694611E0,2.010768585E0,1.003461815E1
7.634547417E0,5.102289734E0,3.569477234E0,-2.170486450E-1,6.230701274E0
7.644487417E0,2.239043884E0,2.258653107E0,-1.260828094E0,3.421186761E0
7.654426417E0,-1.511856079E-2,9.663903809E-1,-1.544937286E0,1.822352918E0
7.664366417E0,-1.001417542E0,2.383044434E-1,-9.207353210E-1,1.381079155E0
7.674305417E0,-1.387614441E0,-4.197271729E-1,-4.640350342E-1,1.522160717E0
7.684245417E0,-1.560205536E0,-1.038091278E0,-2.188449097E-1,1.886734722E0
7.694184417E0,-1.886526947E0,-1.716929626E0,-1.282832336E-1,2.554072797E0
7.704123417E0,-2.658471680E0,-2.577190704E0,-5.248086548E-1,3.739626682E0
7.714063417E0,-3.475472717E0,-3.194806366E0,-1.128652954E0,4.853818684E0
7.724002417E0,-4.033212891E0,-3.415447540E0,-1.571132813E0,5.513669054E0
7.733942417E0,-4.386178894E0,-3.365900574E0,-1.663790131E0,5.773737919E0
7.743881417E0,-4.408482513E0,-3.214565277E0,-1.194815369E0,5.585313935E0
7.753821417E0,-4.435875549E0,-3.314856720E0,-4.866380310E-1,5.558964250E0
7.763760417E0,-4.669689331E0,-3.817810822E0,4.969665527E-1,6.052161075E0
7.773699417E0,-5.310357056E0,-4.704417114E0,7.903564453E-1,7.138353855E0
7.783639417E0,-5.641618195E0,-5.758674774E0,8.961863708E-1,8.111309452E0
7.793578417E0,-5.227130127E0,-6.515650635E0,1.168619843E0,8.434587417E0
7.803518417E0,-3.820205841E0,-6.579418030E0,1.674867096E0,7.790243518E0
7.813457417E0,-1.983076172E0,-5.995781708E0,2.151326294E0,6.671596077E0
7.823397417E0,-5.213658142E-1,-4.186194763E0,2.328707428E0,4.818602203E0
7.833336417E0,3.562591553E-1,-2.197131042E0,2.324815521E0,3.218551322E0
7.843275417E0,9.810598755E-1,-1.006806335E0,2.433040466E0,2.809950780E0
7.853215417E0,1.972897339E0,8.996292114E-2,3.152294769E0,3.719862840E0
7.863154417E0,4.234843597E0,1.556762695E0,5.111271057E0,6.817807727E0
7.873094417E0,5.151687012E0,1.561702423E0,4.097579041E0,6.765275125E0
7.883033417E0,4.519252167E0,3.676354980E-1,1.151555328E0,4.678127369E0
7.892973417E0,7.139403534E0,3.591032410E-1,1.336570587E0,7.272307673E0
7.902912417E0,1.574575653E1,6.167175293E-1,1.635199585E0,1.584244511E1
7.912851417E0,3.393907333E1,2.648592224E0,-1.441352692E0,3.407276386E1
7.922791417E0,5.564303970E1,1.055589890E1,-5.879174194E0,5.693978888E1
7.932730417E0,6.905410126E1,2.402518936E1,-7.416627045E0,7.348935284E1
7.942670417E0,6.724975342E1,3.872357391E1,-3.187022552E0,7.766724937E1
7.952609417E0,5.108307220E1,4.081248001E1,-7.212002563E-1,6.538852285E1
7.962549417E0,2.914873489E1,2.825075226E1,2.934347992E0,4.069845387E1
7.972488417E0,1.375489655E1,1.628298935E1,6.748566284E0,2.235790840E1
7.982427417E0,7.439828796E0,9.722731476E0,5.354215851E0,1.336226729E1
7.992367417E0,6.048771515E0,6.406228180E0,8.023315430E-1,8.847097391E0
8.002306417E0,3.478616180E0,4.560117188E0,-9.021739197E-1,5.805975980E0
8.012246417E0,5.894741821E-1,2.652933197E0,1.270857239E-1,2.720603819E0
8.022185417E0,-1.622775421E0,9.669891357E-1,1.080453186E0,2.176200162E0
8.032125417E0,-2.406545563E0,1.681004333E-1,9.207353210E-1,2.582145006E0
8.042064417E0,-2.299218750E0,-2.963836670E-2,4.864883423E-1,2.350309809E0
8.052003417E0,-1.964664459E0,-1.757345581E-1,-1.035845947E-1,1.975226276E0
8.061943417E0,-1.702709198E0,-4.014651489E-1,-8.141569519E-1,1.929571046E0
8.071882417E0,-1.540895691E0,-6.397695923E-1,-1.385668488E0,2.168811153E0
8.081822417E0,-1.457369385E0,-7.920030212E-1,-1.319356384E0,2.119409252E0
8.091761417E0,-1.487157440E0,-9.220825195E-1,-1.220412140E0,2.133372733E0
8.101701417E0,-1.636397095E0,-1.083147583E0,-1.178199921E0,2.288920967E0
8.111640417E0,-1.947450256E0,-1.340163116E0,-1.138831787E0,2.624030777E0
8.121579417E0,-2.248623962E0,-1.596280518E0,-9.511221313E-1,2.917028372E0
8.131519417E0,-2.412982178E0,-1.808838501E0,-4.944218445E-1,3.055950371E0
8.141458417E0,-2.689606934E0,-2.088906097E0,-1.079255676E-1,3.407222046E0
8.151398417E0,-2.844085693E0,-2.322270813E0,-1.543290710E-1,3.674994234E0
8.161337417E0,-2.919977875E0,-2.536924438E0,-4.715194702E-2,3.868394977E0
8.171277417E0,-2.953957214E0,-2.815644836E0,-1.264869690E-1,4.082856601E0
8.181216417E0,-2.715503082E0,-3.011587372E0,-2.230361938E-2,4.055134146E0
8.191155417E0,-2.704725494E0,-3.713777161E0,4.564009094E-1,4.616923498E0
8.201095417E0,-2.163301392E0,-4.149521027E0,2.167043610E0,5.156983194E0
8.211034417E0,-2.694396973E-2,-3.038830719E0,3.913012848E0,4.954481574E0
8.220974417E0,2.124831390E0,-1.961520996E0,2.943628693E0,4.126429805E0
8.230913417E0,3.275338898E0,-1.390159149E0,1.612596588E0,3.906514445E0
8.240853417E0,4.215084686E0,-7.453001404E-1,1.487007751E0,4.531401909E0
8.250792417E0,5.531447296E0,-4.345463562E-1,7.439529419E-1,5.598143059E0
8.260731417E0,1.115779724E1,-9.879455566E-3,2.541714478E-1,1.116069622E1
8.270671417E0,2.293515610E1,2.384391632E0,-1.768422546E0,2.312647891E1
8.280610417E0,4.030099365E1,9.039851532E0,-3.705843658E0,4.146832867E1
8.290550417E0,6.022845428E1,2.458727051E1,2.342179413E0,6.509597822E1
8.300489417E0,6.827661804E1,3.747936127E1,9.442364502E-1,7.789281530E1
8.310429417E0,6.442153473E1,4.483192154E1,-1.279988251E0,7.849632919E1
8.320368417E0,4.110796555E1,3.574970810E1,2.252216492E0,5.452503040E1
8.330307417E0,1.937196579E1,1.986908203E1,4.787793732E0,2.815983750E1
8.340247417E0,9.369466095E0,1.112366821E1,6.229146423E0,1.582166725E1
8.350186417E0,7.199877777E0,6.811734924E0,1.759590912E0,1.006648563E1
8.360126417E0,5.494025116E0,4.691244507E0,-1.830693054E0,7.452752784E0
8.370065417E0,2.948119354E0,2.918480988E0,-2.429447937E0,4.807406398E0
8.380004417E0,7.435038757E-1,1.178199921E0,-1.662742310E0,2.169254493E0
8.389944417E0,-1.006806335E0,-1.240919495E-1,-1.254391479E-1,1.022151060E0
8.399883875E0,-1.956281891E0,-1.065933380E0,1.551074524E0,2.714605862E0
8.409823875E0,-2.662662964E0,-2.095941467E0,2.520009613E0,4.222936554E0
8.419762875E0,-3.140169983E0,-2.869832153E0,2.440375214E0,4.904287440E0
8.429702875E0,-5.616021423E0,-4.385280762E0,-1.575773163E0,7.297495807E0
8.439641875E0,-2.781949905E1,-1.465228043E1,-1.785681656E1,3.615908941E1
8.449580875E0,-2.876867523E0,-7.224127350E0,2.413431244E0,8.141807728E0
8.459520875E0,2.819985809E0,-4.366419983E0,6.120622101E0,8.029941365E0
8.469459875E0,1.128952332E0,-3.335513763E0,3.265758820E0,4.802641575E0
8.479399875E0,1.062041473E0,-2.371967468E0,2.508184204E0,3.611806994E0
8.489338875E0,4.300556946E-1,-2.420915680E0,1.705702972E0,2.992524563E0
8.499278875E0,-1.586700439E-1,-2.354154510E0,1.169068909E0,2.633237884E0
8.509217875E0,-5.721102905E-1,-2.261946259E0,9.719288635E-1,2.527519887E0
8.519156875E0,-8.526269531E-1,-2.252515869E0,7.683522034E-1,2.528075468E0
8.529096875E0,-9.677375793E-1,-2.557880859E0,7.390132141E-1,2.832915644E0
8.539035875E0,-7.514373779E-1,-2.407443695E0,1.335073700E0,2.853570581E0
8.548975875E0,-1.511856079E-2,-3.826043701E-1,2.705024872E0,2.731990892E0
8.558914875E0,8.662486267E-1,1.797462158E0,3.993246002E0,4.463997147E0
8.568854875E0,1.836081848E0,2.802023163E0,4.912334747E0,5.945886227E0
8.578793875E0,2.711162109E0,1.373094635E0,3.332220612E0,4.509931603E0
8.588732875E0,3.254981232E0,-4.749623108E-1,7.587721252E-1,3.375829847E0
8.598672875E0,5.175188141E0,-1.910028076E-1,8.978329468E-1,5.255964076E0
8.608611875E0,8.719667358E0,2.938389587E-1,3.830534363E-1,8.733021820E0
8.618551875E0,1.495629822E1,9.087602234E-1,-1.044827271E0,1.502026516E1
8.628490875E0,2.547941528E1,2.890339508E0,-4.198469238E0,2.598426081E1
8.638430875E0,4.039050751E1,7.931107178E0,-7.950866089E0,4.192268872E1
8.648369875E0,5.425722153E1,1.962778381E1,-4.041296082E0,5.783967548E1
8.658308875E0,6.213399170E1,3.225103363E1,-7.554789734E-1,7.000951966E1
8.668248875E0,6.030150238E1,3.461207382E1,-1.941163330E0,6.955598435E1
8.678187875E0,3.936439133E1,2.757281204E1,1.147663422E0,4.807423842E1
8.688127875E0,1.937406143E1,1.740311005E1,5.632636871E0,2.664486993E1
8.698066875E0,9.299860840E0,1.220621704E1,8.902736664E0,1.774085303E1
8.708006875E0,7.480095062E0,8.563092957E0,4.905598755E0,1.238318547E1
8.717945875E0,6.702162781E0,6.014492798E0,3.068618774E-2,9.005223551E0
8.727884875E0,3.731290741E0,4.035907288E0,-1.636546783E0,5.734924899E0
8.737824875E0,8.864566040E-1,2.283651123E0,-9.062155151E-1,2.611913919E0
8.747763875E0,-7.842192078E-1,8.939410400E-1,6.391708374E-2,1.190888636E0
8.757703875E0,-1.956431580E0,-4.864883423E-2,4.062551880E-1,1.998758243E0
8.767642875E0,-2.454595642E0,-4.251159668E-1,3.435356140E-1,2.514712721E0
8.777582875E0,-2.362537079E0,-5.990542603E-1,5.084925842E-1,2.489781549E0
8.787521875E0,-2.335293732E0,-9.448352051E-1,6.131250000E-1,2.592726874E0
8.797460875E0,-2.255359955E0,-1.327439575E0,4.291575623E-1,2.651965415E0
8.807400875E0,-2.121388550E0,-1.497336273E0,1.930984497E-1,2.603765025E0
8.817339875E0,-1.864672394E0,-1.457369385E0,-1.317260742E-2,2.366664779E0
8.827279875E0,-1.642833710E0,-1.347946930E0,-1.676513672E-1,2.131659097E0
8.837218875E0,-1.317260742E0,-1.244961090E0,-1.556762695E-1,1.819158893E0
8.847158875E0,-1.115480347E0,-1.352886658E0,1.657054138E-1,1.761265737E0
8.857097875E0,-1.081201630E0,-1.782343597E0,6.095324707E-1,2.171928980E0
8.867036875E0,-1.024319916E0,-2.477647705E0,1.239871674E0,2.953853620E0
8.876976875E0,-1.370100861E0,-2.814297638E0,1.428180084E0,3.440515356E0
8.886915875E0,-1.887275391E0,-2.706372070E0,1.335073700E0,3.559308917E0
8.896855875E0,-2.252815247E0,-2.355352020E0,1.204994202E0,3.474891466E0
8.906794875E0,-2.135459290E0,-1.452579346E0,6.987469482E-1,2.675522459E0
8.916734875E0,-1.708696747E0,-8.307723999E-1,3.808081055E-1,1.937741512E0
8.926673875E0,-1.340462494E0,-6.994953918E-1,3.571572876E-1,1.553607038E0
8.936612875E0,-6.018983459E-1,-5.551954651E-1,3.568579102E-1,8.932363581E-1
8.946552875E0,6.388714600E-1,-2.224374390E-1,2.790197754E-1,7.317699035E-1
8.956491875E0,2.893333282E0,1.245110779E0,9.812095642E-1,3.299159066E0
8.966431875E0,4.415667572E0,2.178270264E0,1.292861481E0,5.090625920E0
8.976370875E0,6.290369110E0,2.382295990E0,1.780247955E0,6.957971005E0
8.986310875E0,1.088222031E1,4.289030914E0,2.540666656E0,1.196969056E1
8.996249875E0,2.002296204E1,7.390281830E0,-4.284091187E-1,2.134757149E1
9.006188875E0,3.937936020E1,1.401565430E1,-5.233566742E0,4.212555989E1
9.016128875E0,6.259203918E1,2.403776321E1,-4.626429291E0,6.720849111E1
9.026067875E0,7.815053513E1,3.267061111E1,-2.260000305E0,8.473477782E1
9.036007875E0,6.595419754E1,3.401331894E1,-2.218386841E0,7.424138521E1
9.045946875E0,3.179912338E1,2.382415741E1,-8.511300659E-1,3.974291316E1
9.055886875E0,1.476589417E1,1.504162079E1,2.577490082E0,2.123500510E1
9.065825875E0,8.858129425E0,9.761500854E0,4.409380646E0,1.389949616E1
9.075764875E0,6.333778839E0,6.540948029E0,2.251318359E0,9.379189189E0
9.085704875E0,4.311484222E0,4.214635620E0,-8.005352783E-1,6.082179407E0
9.095643875E0,2.199376373E0,2.528541870E0,-1.654210052E0,3.737270571E0
9.105583875E0,8.803193665E-1,1.466799774E0,-9.915380859E-1,1.977273765E0
9.115522875E0,-2.888992310E-2,7.997868347E-1,-4.502636719E-1,9.182760929E-1
9.125462875E0,-4.799020386E-1,4.013154602E-1,7.813751221E-2,6.304486784E-1
9.135401875E0,-9.735754395E-1,-8.936416626E-2,6.048921204E-1,1.149664981E0
9.145340875E0,-1.220561829E0,-3.233276367E-1,1.005908203E0,1.614361561E0
9.155280875E0,-2.147584076E0,-9.873468018E-1,2.735860748E0,3.615508969E0
9.165219875E0,-5.729635162E0,-4.221521301E0,3.135978699E-1,7.123784445E0
9.175159875E0,-1.224319016E1,-9.899064789E0,-9.821076965E0,1.855642050E1
9.185098875E0,-1.329729813E1,-8.343349915E0,-1.593586121E0,1.577875603E1
9.195038875E0,-1.174996582E1,-8.074658661E0,5.376818848E0,1.523719102E1
9.204977875E0,-5.045408020E0,-5.918542328E0,9.282047882E0,1.210957052E1
9.214916875E0,-4.273612976E-1,-3.524570618E0,6.146218872E0,7.097974510E0
9.224856875E0,5.697152710E-1,-2.414778442E0,3.748355255E0,4.495097055E0
9.234795875E0,8.237370300E-1,-1.539398804E0,2.101180573E0,2.731895161E0
9.244735875E0,8.382568359E-1,-7.473957825E-1,1.151255951E0,1.608311302E0
9.254674875E0,6.397695923E-1,-6.917115784E-1,9.833052063E-1,1.361858718E0
9.264614875E0,6.848258972E-1,-9.768685913E-1,1.791175232E0,2.152107680E0
9.274553875E0,5.989045715E-1,-7.866142273E-1,4.512965240E0,4.619989598E0
9.284492875E0,3.662882996E-1,2.568658447E-1,5.293142853E0,5.312015478E0
9.294432875E0,9.008267212E-1,4.095483398E-1,2.775677948E0,2.946796005E0
9.304371875E0,1.488354950E0,2.924917603E-1,5.634283447E-1,1.618086335E0
9.314311875E0,2.300865326E0,6.520440674E-1,-2.978805542E-2,2.391658429E0
9.324250875E0,3.994593201E0,1.325493622E0,3.370989990E-1,4.222243943E0
9.334190875E0,6.059399414E0,1.403780823E0,-2.121538239E0,6.571746066E0
9.344129875E0,1.049258057E1,1.475032654E0,-4.179009705E0,1.139008737E1
9.354068875E0,1.896526154E1,3.918701019E0,-2.276915131E0,1.949927448E1
9.364008875E0,3.588742172E1,1.171628586E1,3.829486542E0,3.794526794E1
9.373947875E0,5.398568619E1,2.193882797E1,2.324665833E0,5.831955553E1
9.383887875E0,6.864096039E1,3.109379013E1,-3.397933960E-2,7.535520143E1
9.393826875E0,7.403170029E1,3.487477753E1,-2.341580658E0,8.186834403E1
9.403766792E0,5.068983994E1,2.731504807E1,-1.604962463E0,5.760336473E1
9.413705792E0,2.488530075E1,1.653386765E1,-6.333329773E-1,2.988391011E1
9.423644792E0,1.269525009E1,1.036549484E1,2.152523804E0,1.653016083E1
9.433584792E0,6.947801971E0,6.991062012E0,3.830085297E0,1.057432994E1
9.443523792E0,3.570375366E0,4.180356903E0,2.347568207E0,5.977795629E0
9.453463792E0,1.243913269E0,1.894011383E0,1.264869690E0,2.595090494E0
9.463402792E0,-2.371069336E-1,2.918930054E-2,3.174897766E-1,3.973304311E-1
9.473342792E0,-6.059399414E-1,-5.806425476E-1,9.415420532E-2,8.444962967E-1
9.483281792E0,-3.561094666E-1,-5.526507568E-1,3.203338623E-1,7.313348033E-1
9.493220792E0,-3.682342529E-1,-5.960604858E-1,6.511459351E-1,9.564912946E-1
9.503160792E0,-5.736071777E-1,-8.231382751E-1,9.677375793E-1,1.393950443E0
9.513099792E0,-8.554710388E-1,-1.232087860E0,1.206042023E0,1.924684014E0
9.523039792E0,-1.005459137E0,-1.675316162E0,1.329535217E0,2.363323129E0
9.532978792E0,-1.145118713E0,-2.054477692E0,1.156944122E0,2.621201090E0
9.542918792E0,-1.264420624E0,-2.171234894E0,7.262896729E-1,2.615438236E0
9.552857792E0,-1.352138214E0,-2.003733215E0,2.160008240E-1,2.426907684E0
9.562796792E0,-1.438508606E0,-1.837878113E0,-1.999841309E-1,2.342455255E0
9.572736792E0,-1.467099152E0,-1.781146088E0,-3.920347595E-1,2.340630804E0
9.582675792E0,-1.568887482E0,-1.812131653E0,-3.950285339E-1,2.429254330E0
9.592615792E0,-1.575922852E0,-1.870959320E0,-3.366499329E-1,2.469282242E0
9.602554792E0,-1.609602814E0,-2.024689636E0,-2.631527710E-1,2.599892060E0
9.612494792E0,-1.537153473E0,-2.232607269E0,-2.230361938E-1,2.719764909E0
9.622433792E0,-1.401984558E0,-2.434836731E0,-1.613644409E-1,2.814254624E0
9.632372792E0,-1.268611908E0,-2.429897003E0,-1.044827271E-1,2.743117252E0
9.642312792E0,-1.071172485E0,-2.281256104E0,-8.113128662E-2,2.521531715E0
9.652251792E0,-8.904981995E-1,-2.290087738E0,-1.158590698E-1,2.459860202E0
9.662191792E0,-3.228785706E-1,-1.867516479E0,-1.172062683E-1,1.898843248E0
9.672130792E0,9.967771912E-1,-5.261558533E-1,1.329235840E-1,1.134933227E0
9.682070792E0,2.683170319E0,9.101074219E-1,6.580316162E-1,2.908728947E0
9.692009792E0,4.733456726E0,1.290915527E0,1.876048737E0,5.252773966E0
9.701948792E0,7.065906372E0,4.677772522E-1,1.978735199E0,7.352634997E0
9.711888792E0,1.142199783E1,8.173004150E-1,1.407373352E0,1.153736167E1
9.721827792E0,2.008403503E1,3.194806366E0,4.736151123E-1,2.034206386E1
9.731767792E0,3.806733856E1,9.811197510E0,-1.868564301E0,3.935572886E1
9.741706792E0,5.833968201E1,2.043984512E1,-4.560416565E0,6.198470105E1
9.751646792E0,7.101786758E1,2.984852966E1,-3.242706757E0,7.710374431E1
9.761585792E0,6.704991898E1,3.140933395E1,5.300477600E-1,7.404403315E1
9.771524792E0,3.980133270E1,2.094309860E1,3.848197632E0,4.513942943E1
9.781464792E0,1.771161850E1,1.387090530E1,8.975186005E0,2.422101170E1
9.791403792E0,7.842641144E0,1.091455307E1,1.207299408E1,1.806631326E1
9.801343792E0,4.658163300E0,8.338859253E0,9.521250458E0,1.348663298E1
9.811282792E0,4.270469513E0,5.606291656E0,4.640799408E0,8.438272047E0
9.821222792E0,3.109633484E0,3.654949493E0,1.157542877E0,4.936434109E0
9.831161792E0,1.365011444E0,1.970352631E0,-4.032614136E-1,2.430671821E0
9.841100792E0,9.101074219E-2,7.441026306E-1,-1.159937897E0,1.381096522E0
9.851040792E0,-5.525010681E-1,3.876937866E-2,-1.545985107E0,1.642202925E0
9.860979792E0,-9.939331055E-1,-2.423460388E-1,-1.625769196E0,1.920874826E0
9.870919792E0,-1.129551086E0,-1.317260742E-1,-1.806742859E0,2.134843595E0
9.880858792E0,-1.113983459E0,3.293151855E-3,-2.087409210E0,2.366061538E0
9.890798792E0,-1.032702484E0,-6.406677246E-2,-1.846560059E0,2.116686803E0
9.900737792E0,-1.082249451E0,-2.845582581E-1,-1.354383545E0,1.756869962E0
9.910676792E0,-1.324894867E0,-5.294490051E-1,-1.291514282E0,1.924492608E0
9.920616792E0,-1.448687439E0,-5.863307190E-1,-1.268911285E0,2.013110742E0
9.930555792E0,-1.339264984E0,-4.483177185E-1,-1.204844513E0,1.856413148E0
9.940495792E0,-1.646875305E0,-5.182223511E-1,-1.250349884E0,2.131695923E0
9.950434792E0,-1.963167572E0,-6.786886597E-1,-1.390757904E0,2.499770542E0
9.960374792E0,-1.916614380E0,-6.448590088E-1,-1.409019928E0,2.464668533E0
9.970313792E0,-1.689835968E0,-4.990621948E-1,-1.295256500E0,2.186846605E0
9.980252792E0,-1.443747711E0,-3.574566650E-1,-1.118025055E0,1.860688782E0
9.990192792E0,-1.291214905E0,-2.769241333E-1,-9.129515076E-1,1.605429339E0
1.000013179E1,-2.072739716E0,-1.170266418E0,6.421646118E-2,2.381154588E0
1.001007179E1,-2.607577515E0,-1.650767212E0,3.207829285E-1,3.102804307E0
1.002001079E1,-2.491568756E0,-6.981481934E-1,5.767506409E-1,2.651031322E0
1.002995079E1,-3.450025635E0,9.036708069E-1,2.706222382E0,4.476933927E0
1.003988979E1,-4.007466431E0,2.104324036E0,5.537584534E0,7.152119218E0
1.004982879E1,-1.491797791E0,2.411036224E0,5.918991394E0,6.563003538E0
1.005976879E1,1.793420563E0,2.161505127E0,3.698808289E0,4.644313134E0
1.006970779E1,2.016606445E0,4.875361633E-1,-2.418969727E-1,2.088757337E0
1.007964779E1,2.168839874E0,1.600621490E0,-5.755531311E-1,2.756286807E0
1.008958679E1,3.352428589E0,2.918930054E0,-9.665400696E-1,4.548970192E0
1.009952679E1,5.409001923E0,5.034630432E0,-2.618055725E0,7.839580420E0
1.010946579E1,2.493065643E1,1.060888870E1,-5.726042633E0,2.769248479E1
1.011940479E1,5.829447601E1,2.197684891E1,-2.506986694E0,6.234992224E1
1.012934479E1,7.854197113E1,3.178310669E1,2.093396759E0,8.475487838E1
1.013928379E1,7.791761948E1,3.213951553E1,-1.920805664E0,8.430773024E1
1.014922379E1,5.271677490E1,2.055136322E1,5.598058777E0,5.685732273E1
1.015916279E1,2.047292633E1,1.172586594E1,1.581850525E1,2.840531205E1
1.016910279E1,1.005414230E1,8.295000458E0,1.221340210E1,1.786225072E1
1.017904179E1,7.161258087E0,5.760471039E0,5.494324493E0,1.070767228E1
1.018898079E1,4.732708282E0,3.058290253E0,1.633103943E0,5.866744876E0
1.019892079E1,2.357747040E0,1.217418365E0,-2.468367004E-1,2.664959087E0
1.020885979E1,6.053411865E-1,2.809657288E-1,-9.999206543E-1,1.202173452E0
1.021879979E1,-1.866618347E-1,-5.807922363E-2,-7.744894409E-1,7.987801518E-1
1.022873879E1,-5.408253479E-1,-1.878593445E-1,-6.387217712E-1,8.577579445E-1
1.023867879E1,-8.083190918E-1,-3.869453430E-1,-5.622308350E-1,1.057927202E0
1.024861779E1,-9.391470337E-1,-5.700146484E-1,-7.032376099E-1,1.304399090E0
1.025855679E1,-9.571096802E-1,-6.735992432E-1,-1.063538361E0,1.581426168E0
1.026849679E1,-1.172661438E0,-8.327183533E-1,-1.207389221E0,1.877856074E0
1.027843579E1,-1.610500946E0,-1.285377045E0,-1.212179260E0,2.390666435E0
1.028837579E1,-1.960922241E0,-1.738335114E0,-1.314566345E0,2.931741748E0
1.029831479E1,-2.280357971E0,-2.269879761E0,-1.576072540E0,3.582790987E0
1.030825479E1,-2.913541260E0,-3.114423523E0,-1.766476593E0,4.616145157E0
1.031819379E1,-3.419788513E0,-3.823798370E0,-1.832189941E0,5.447321125E0
1.032813279E1,-3.261717224E0,-3.854185181E0,-1.654958496E0,5.313419829E0
1.033807279E1,-2.806663513E0,-3.464096375E0,-1.068328400E0,4.584610053E0
1.034801179E1,-2.610421600E0,-3.171305237E0,-5.225633240E-1,4.140597815E0
1.035795179E1,-2.668201447E0,-2.909349976E0,-2.032772827E-1,3.952839219E0
1.036789079E1,-2.559377747E0,-2.600392456E0,-1.240919495E-1,3.650733377E0
1.037783079E1,-2.185754700E0,-2.225272522E0,-1.175056458E-1,3.121404969E0
1.038776979E1,-1.750310211E0,-1.786834259E0,-1.118174744E-1,2.503770287E0
1.039770879E1,-1.145567780E0,-1.248553619E0,-3.487747192E-2,1.694823919E0
1.040764842E1,-5.733078003E-2,-2.317181396E-1,3.327580261E-1,4.095216948E-1
1.041758742E1,2.623594208E0,4.084556122E0,3.056943054E0,5.736875989E0
1.042752742E1,4.376898193E0,3.709286499E0,5.037923584E0,7.635228757E0
1.043746642E1,3.045267334E0,3.230282593E-1,1.490300903E0,3.405730050E0
1.044740642E1,3.246149597E0,-2.411485291E-1,3.144960022E-1,3.270251910E0
1.045734542E1,7.169490967E0,8.996292114E-1,1.291813660E0,7.340280374E0
1.046728442E1,1.770922348E1,2.995420990E0,8.199948120E-1,1.797947537E1
1.047722442E1,4.106859741E1,9.153016205E0,-2.939138031E0,4.217873791E1
1.048716342E1,6.677688675E1,2.224778549E1,-7.099736023E-1,7.038906610E1
1.049710342E1,7.654662048E1,3.280443283E1,-3.161276093E0,8.333972395E1
1.050704242E1,6.583489563E1,3.473856079E1,-4.125570831E0,7.455213896E1
1.051698242E1,3.940346008E1,2.268936722E1,3.744613037E0,4.562304438E1
1.052692142E1,1.992102402E1,1.295510971E1,1.054182816E1,2.599638833E1
1.053686042E1,1.018003052E1,8.393046570E0,1.074555450E1,1.701596878E1
1.054680042E1,5.412145386E0,5.629044342E0,7.196434937E0,1.061913997E1
1.055673942E1,2.611918488E0,3.001558228E0,4.153113556E0,5.751506080E0
1.056667942E1,6.607260132E-1,1.208886108E0,2.151176605E0,2.554510770E0
1.057661842E1,-5.373825073E-1,8.382568359E-2,1.122216339E0,1.247067046E0
1.058655842E1,-1.038690033E0,-5.369334412E-1,9.581575012E-1,1.511701129E0
1.059649742E1,-1.318009186E0,-8.755293274E-1,7.804769897E-1,1.764325409E0
1.060643742E1,-1.551822968E0,-1.192420349E0,4.809498596E-1,2.015275063E0
1.061637642E1,-1.630708923E0,-1.608704681E0,3.173400879E-1,2.312541259E0
1.062631542E1,-1.691332855E0,-2.204465790E0,4.029620361E-1,2.807606569E0
1.063625542E1,-1.754800873E0,-2.766397247E0,3.246748352E-1,3.292065246E0
1.064619442E1,-1.833237762E0,-3.145708466E0,-4.790039062E-3,3.640915460E0
1.065613442E1,-1.992207184E0,-3.260220337E0,-3.965254211E-1,3.841244397E0
1.066607342E1,-2.178719330E0,-3.287613373E0,-8.749305725E-1,4.039891473E0
1.067601342E1,-2.426903229E0,-3.386407928E0,-1.226848755E0,4.343129725E0
1.068595242E1,-2.525099030E0,-3.453318787E0,-1.206191711E0,4.444821053E0
1.069589142E1,-2.654879150E0,-3.749702454E0,-1.108744354E0,4.726305728E0
1.070583142E1,-2.844983826E0,-4.060156860E0,-1.178798676E0,5.095917289E0
1.071577042E1,-2.824925537E0,-4.070485382E0,-9.933343506E-1,5.053292854E0
1.072571042E1,-2.229314117E0,-3.774999847E0,-7.119195557E-1,4.441541932E0
1.073564942E1,-1.457818451E0,-3.432811432E0,-8.020321655E-1,3.814798102E0
1.074558942E1,-7.524851990E-1,-2.408192139E0,-1.149908752E0,2.772708692E0
1.075552842E1,-1.637594604E-1,-6.251000977E-1,-1.375489655E0,1.519716777E0
1.076546742E1,6.149212646E-1,8.876541138E-1,-1.218017120E0,1.627766474E0
1.077540742E1,2.017504578E0,1.488205261E0,-3.879931641E-1,2.536852048E0
1.078534642E1,3.818559265E0,7.885601807E-1,9.828561401E-1,4.021097886E0
1.079528642E1,5.835465088E0,1.038839722E-1,1.486109619E0,6.022621229E0
1.080522542E1,1.024903702E1,1.084345093E0,1.563348999E0,1.042413661E1
1.081516542E1,1.998988083E1,4.737498322E0,-2.604583740E-2,2.054360982E1
1.082510442E1,3.686039841E1,1.173230255E1,-3.873345337E0,3.887593983E1
1.083504342E1,5.770679810E1,2.196696945E1,-3.546425171E0,6.184819662E1
1.084498342E1,7.549251251E1,3.232692581E1,3.209475861E0,8.218546291E1
1.085492242E1,7.078165878E1,3.537354034E1,9.958191833E0,7.975271883E1
1.086486242E1,4.046535187E1,2.340592712E1,7.411088562E0,4.733081829E1
1.087480142E1,1.653790924E1,1.879701141E1,1.593002335E1,2.967483317E1
1.088474142E1,4.411027222E0,1.486304214E1,1.672591827E1,2.280621681E1
1.089468042E1,1.895358582E0,9.058113556E0,1.059062668E1,1.406425180E1
1.090461942E1,4.795876923E0,5.319039001E0,1.530267792E0,7.323546332E0
1.091455942E1,4.773273926E0,3.833528137E0,-2.276166687E0,6.531540150E0
1.092449842E1,2.556383972E0,2.564167786E0,-3.169359283E0,4.811953212E0
1.093443842E1,9.469308472E-1,1.710043945E0,-2.884801025E0,3.484681518E0
1.094437742E1,-3.716770935E-1,1.182241516E0,-2.482886810E0,2.774989329E0
1.095431742E1,-1.071172485E0,7.595205688E-1,-2.239492950E0,2.596076013E0
1.096425642E1,-1.265917511E0,2.140548706E-1,-1.519639893E0,1.989389865E0
1.097419542E1,-1.332229614E0,-2.656974792E-1,-9.719288635E-1,1.670352242E0
1.098413542E1,-1.467548218E0,-6.732998657E-1,-9.714797974E-1,1.884357577E0
1.099407442E1,-1.569785614E0,-9.870474243E-1,-1.173260193E0,2.194317427E0
1.100401442E1,-1.569486237E0,-1.237476654E0,-1.250050507E0,2.357384522E0
1.101395342E1,-1.797312469E0,-1.516496429E0,-1.217118988E0,2.647918459E0
1.102389342E1,-2.319726105E0,-1.814826050E0,-1.154100037E0,3.163332054E0
1.103383242E1,-2.928061066E0,-2.224374390E0,-1.040037231E0,3.821395095E0
1.104377142E1,-3.241060181E0,-2.579735413E0,-1.237476654E0,4.323292075E0
1.105371142E1,-3.240760803E0,-2.768941956E0,-1.095122681E0,4.401007137E0
1.106365042E1,-3.253634033E0,-3.015928345E0,-7.288343811E-1,4.495904554E0
1.107359042E1,-3.339555359E0,-3.338058472E0,-5.107379150E-1,4.749328118E0
1.108352942E1,-3.291056213E0,-3.650009766E0,-4.438270569E-1,4.934633193E0
1.109346942E1,-3.112028503E0,-4.725672913E0,-1.167572021E0,5.777536699E0
1.110340842E1,-2.412233734E0,-4.901407471E0,-1.398092651E0,5.638912115E0
1.111334742E1,-8.449928284E-1,-2.696193237E0,-5.155279541E-1,2.872149008E0
1.112328742E1,9.876461792E-1,-1.422042847E-2,1.488654327E0,1.786543843E0
1.113322642E1,2.754422150E0,3.341052246E-1,2.813249817E0,3.951308924E0
1.114316642E1,3.481759644E0,-5.595364380E-1,1.554217987E0,3.853741661E0
1.115310542E1,4.249662781E0,-1.700463867E-1,1.245859222E0,4.431784598E0
1.116304542E1,6.463259583E0,3.007246399E-1,1.035546570E0,6.552596160E0
1.117298442E1,1.485660553E1,2.054926758E0,-4.147874451E-1,1.500378287E1
1.118292342E1,3.147115540E1,6.779701538E0,-4.505630493E0,3.250690205E1
1.119286342E1,5.360368057E1,1.610575790E1,-6.474037170E0,5.634414935E1
1.120280242E1,7.408124725E1,2.991648834E1,1.304986267E0,7.990450837E1
1.121274242E1,7.592181976E1,4.010445236E1,5.847589874E0,8.606209458E1
1.122268142E1,5.068594803E1,3.170945984E1,5.118605804E0,6.000629380E1
1.123262142E1,2.428699493E1,1.987506958E1,1.238868759E1,3.373953310E1
1.124256042E1,1.093086914E1,1.269090912E1,1.469898331E1,2.228459523E1
1.125249942E1,6.392307129E0,6.978637848E0,1.102966370E1,1.453328792E1
1.126243942E1,6.445895691E0,3.563489685E0,4.043691101E0,8.402348940E0
1.127237842E1,4.449197845E0,1.680106201E0,1.005908203E-1,4.756914633E0
1.128231842E1,1.985770569E0,1.767823792E-1,-9.481283569E-1,2.207596916E0
1.129225742E1,3.613485718E-1,-7.899073792E-1,-1.562151489E0,1.787412581E0
1.130219742E1,-3.466790771E-1,-7.691006470E-1,-1.847458191E0,2.030961338E0
1.131213642E1,-6.679110718E-1,-9.756710815E-1,-1.788181458E0,2.143742565E0
1.132207642E1,-1.393751678E0,-1.758692780E0,-1.469494171E0,2.682341729E0
1.133201542E1,-2.142644348E0,-2.738555145E0,-8.872050476E-1,3.588557075E0
1.134195442E1,-2.859503632E0,-3.858376465E0,-9.292675781E-1,4.891560916E0
1.135189442E1,-3.699856110E0,-4.211791534E0,-1.579964447E0,5.824466569E0
1.136183342E1,-4.744833069E0,-4.011208649E0,-2.237996063E0,6.603927775E0
1.137177342E1,-5.472769318E0,-3.850892029E0,-2.210902405E0,7.047599795E0
1.138171242E1,-5.726940765E0,-3.929628296E0,-1.393003235E0,7.083804563E0
1.139165242E1,-5.300926666E0,-3.738176422E0,-1.068478088E0,6.573844530E0
1.140159142E1,-4.784949646E0,-3.768114166E0,-7.683522034E-1,6.138794067E0
1.141153038E1,-4.900958405E0,-4.240082703E0,-7.309300232E-1,6.521652652E0
1.142147038E1,-5.168601837E0,-4.467609558E0,-2.570155334E-1,6.836668567E0
1.143140938E1,-4.673132172E0,-4.186494141E0,3.426374817E-1,6.283494086E0
1.144134938E1,-2.947221222E0,-2.776875458E0,6.029461670E-1,4.093982696E0
1.145128838E1,-1.496887207E0,-1.239422607E-1,1.697320404E0,2.266479550E0
1.146122838E1,-4.192781067E-1,2.887196045E0,5.256319427E0,6.011704339E0
1.147116738E1,1.518891449E0,9.940827942E-1,2.661615143E0,3.221711813E0
1.148110638E1,2.188449097E0,-7.241940308E-1,5.867797852E-2,2.305907532E0
1.149104638E1,2.424059143E0,-3.694317627E-1,2.418969727E-1,2.463951441E0
1.150098538E1,3.068469086E0,-1.751358032E-2,1.678010559E-1,3.073103716E0
1.151092538E1,7.507338409E0,-1.811233521E-2,-1.245410156E-1,7.508393205E0
1.152086438E1,2.081900665E1,8.554710388E-1,-7.768844604E-2,2.083672009E1
1.153080438E1,4.780039856E1,6.718927917E0,2.218087463E0,4.832123764E1
1.154074338E1,7.419950134E1,1.229872467E1,-4.949307861E0,7.537453334E1
1.155068238E1,7.779577286E1,2.220542358E1,-4.474195862E0,8.102642495E1
1.156062238E1,5.885655716E1,3.586032806E1,4.524790649E0,6.906903199E1
1.157056138E1,3.572875168E1,3.078842514E1,7.898025970E0,4.782101665E1
1.158050138E1,2.583522537E1,1.634451141E1,5.147495728E0,3.100159086E1
1.159044038E1,1.819765778E1,9.316027222E0,3.529210968E0,2.074604641E1
1.160038038E1,1.173050629E1,4.784799957E0,2.319576416E0,1.287942247E1
1.161031938E1,5.836063843E0,2.482437744E0,1.245559845E0,6.463246681E0
1.162025838E1,1.254092102E0,1.202748871E0,6.691085815E-1,1.862003797E0
1.163019838E1,-1.556762695E0,4.147874451E-1,4.239184570E-1,1.665912835E0
1.164013738E1,-2.889740753E0,-4.294569397E-1,2.594105530E-1,2.932972676E0
1.165007738E1,-3.549119568E0,-1.548679504E0,3.308120728E-2,3.872434929E0
1.166001638E1,-4.089495850E0,-2.905158691E0,-6.066883850E-1,5.052919366E0
1.166995638E1,-4.326004028E0,-3.741020508E0,-9.523196411E-1,5.797970161E0
1.167989538E1,-4.098028107E0,-3.924538879E0,-1.375040588E0,5.838371040E0
1.168983438E1,-3.929478607E0,-3.803889771E0,-2.170187073E0,5.883884044E0
1.169977438E1,-3.622017975E0,-3.516188049E0,-2.126028900E0,5.477462140E0
1.170971338E1,-3.540437622E0,-3.366499329E0,-1.095272369E0,5.006759216E0
1.171965338E1,-3.770060120E0,-3.189417572E0,-4.936734009E-1,4.962806785E0
1.172959238E1,-3.983516235E0,-3.040926361E0,-2.237846375E-1,5.016544059E0
1.173953238E1,-3.763174438E0,-3.013683014E0,-1.374142456E-1,4.823136929E0
1.174947138E1,-3.356769562E0,-3.054548035E0,6.735992432E-3,4.538525197E0
1.175941138E1,-3.437601471E0,-3.277434540E0,3.887416077E-1,4.765480151E0
1.176935038E1,-3.429218903E0,-3.292702789E0,5.387297058E-1,4.784523345E0
1.177928938E1,-3.202290802E0,-2.946772156E0,5.206173706E-1,4.382827280E0
1.178922938E1,-2.671943665E0,-1.523382111E0,6.631210327E-1,3.146379746E0
1.179916838E1,-1.328188019E0,4.784051514E-1,9.264234924E-1,1.688554231E0
1.180910838E1,6.885681152E-3,3.255729675E-1,7.286846924E-1,7.981394306E-1
1.181904738E1,1.335223389E0,-2.712359619E-1,1.520837402E-1,1.370955838E0
1.182898638E1,2.496209106E0,-2.779719543E-1,1.754351807E-1,2.517758093E0
1.183892637E1,3.143463135E0,-8.936416626E-2,2.869532776E-1,3.157798065E0
1.184886538E1,4.208049316E0,1.240919495E-1,-5.807922363E-2,4.210279214E0
1.185880537E1,7.057823181E0,6.779402161E-1,-5.340893555E-1,7.110395378E0
1.186874438E1,1.496857269E1,2.319726105E0,-6.289920044E-1,1.516030767E1
1.187868437E1,3.134017776E1,8.251441040E0,3.817062378E-2,3.240824708E1
1.188862338E1,5.220918045E1,1.824795319E1,-8.702902222E-1,5.531314242E1
1.189856337E1,7.416133072E1,2.907643524E1,-1.930984497E-1,7.965788942E1
1.190850238E1,7.821520065E1,3.923760498E1,-6.478527832E-1,8.750786805E1
1.191844138E1,5.607025131E1,3.480232819E1,1.465452576E-1,6.599315574E1
1.192838138E1,2.630434982E1,2.333063370E1,8.932375031E0,3.627705352E1
1.193832038E1,8.853040009E0,1.502290970E1,1.596774490E1,2.364387892E1
1.194826038E1,3.601660309E0,8.798852692E0,1.281021103E1,1.595284527E1
1.195819938E1,3.572770386E0,5.624703369E0,4.436773682E0,8.005431714E0
1.196813938E1,2.095941467E0,3.930676117E0,1.422042847E-2,4.454591742E0
1.197807838E1,-8.472381592E-2,2.185605011E0,-1.724414063E0,2.785256047E0
1.198801737E1,-1.418150940E0,5.490582275E-1,-2.716251526E0,3.112979180E0
1.199795738E1,-1.503323822E0,-4.745132446E-1,-2.722089386E0,3.145618534E0
1.200789637E1,-1.250050507E0,-9.886940002E-1,-2.224673767E0,2.736661372E0
1.201783638E1,-1.191821594E0,-1.255888367E0,-1.810036011E0,2.504780362E0
1.202777537E1,-1.202599182E0,-1.506317596E0,-1.516496429E0,2.452549472E0
1.203771538E1,-1.331181793E0,-1.825603638E0,-1.118623810E0,2.521149110E0
1.204765437E1,-1.860630798E0,-2.191891937E0,-7.556286621E-1,2.972761663E0
1.205759338E1,-2.380200348E0,-2.354154510E0,-8.346643066E-1,3.450226320E0
1.206753337E1,-2.706372070E0,-2.334844666E0,-9.765692139E-1,3.705352456E0
1.207747238E1,-3.028651886E0,-2.421963501E0,-9.846524048E-1,4.001022345E0
1.208741237E1,-3.144211578E0,-2.579136658E0,-8.755293274E-1,4.159875473E0
1.209735138E1,-3.027903442E0,-2.737657013E0,-9.961784363E-1,4.201825395E0
1.210729137E1,-2.807411957E0,-2.903512115E0,-1.253193970E0,4.228763368E0
1.211723038E1,-2.696791992E0,-2.743943939E0,-1.502276001E0,4.130223792E0
1.212716938E1,-2.585573273E0,-2.151176605E0,-1.150208130E0,3.554677015E0
1.213710938E1,-2.452350311E0,-1.854493561E0,-7.807763672E-1,3.172188543E0
1.214704838E1,-2.234702911E0,-1.693578186E0,-6.396199036E-1,2.875972496E0
1.215698838E1,-1.873054962E0,-1.333726501E0,-5.878276062E-1,2.373331533E0
1.216692738E1,-4.797523499E-1,-4.644841003E-1,-4.918771362E-1,8.293677796E-1
1.217686738E1,1.529519348E0,-3.427871704E-1,-2.920426941E-1,1.594434513E0
1.218680638E1,2.280507660E0,-1.431922302E0,-4.478686523E-1,2.729780760E0
1.219674638E1,3.386407928E0,-1.171014862E0,-3.817062378E-2,3.583363150E0
1.220668538E1,5.343587952E0,-9.208850098E-1,1.706451416E-1,5.425042042E0
1.221662437E1,8.726852417E0,-6.697073364E-1,6.351292419E-1,8.775525635E0
1.222656438E1,1.586116653E1,4.228706360E-1,2.543510742E0,1.606937679E1
1.223650337E1,2.566023926E1,1.334624634E0,2.794688416E-1,2.569644342E1
1.224644338E1,3.830519394E1,5.050347748E0,-9.286688232E-1,3.864785015E1
1.225638238E1,5.338887726E1,1.485810242E1,1.379980316E0,5.543500490E1
1.226632238E1,6.131055405E1,3.124737076E1,6.851851501E0,6.915439311E1
1.227626138E1,6.041975647E1,4.374488205E1,6.669380951E0,7.489086940E1
1.228620038E1,4.475378403E1,3.339121262E1,6.517446899E0,5.621700258E1
1.229614038E1,2.281091446E1,1.584904175E1,7.947572937E0,2.889106883E1
1.230607938E1,1.438942703E1,8.467591553E0,4.730313263E0,1.735314325E1
1.231601938E1,1.089195007E1,5.163961487E0,-9.996212769E-1,1.209546681E1
1.232595838E1,6.647825775E0,3.316203918E0,-3.777245178E0,8.334169251E0
1.233589838E1,2.030527496E0,1.612297211E0,-3.707190857E0,4.523915147E0
1.234583738E1,-1.357377319E0,2.484832764E-1,-1.768123169E0,2.242872414E0
1.235577638E1,-2.388283539E0,-3.888912964E-1,-9.641450500E-1,2.604747661E0
1.236571638E1,-2.211501160E0,-6.524931335E-1,-9.803114319E-1,2.505493000E0
1.237565538E1,-1.861379242E0,-7.282356262E-1,-5.966592407E-1,2.085919955E0
1.238559538E1,-1.547481995E0,-7.777825928E-1,-5.825885010E-1,1.827308306E0
1.239553438E1,-1.298100586E0,-7.309300232E-1,-7.795788574E-1,1.681388422E0
1.240547450E1,-1.466799774E0,-8.788224792E-1,-7.756869507E-1,1.877637018E0
1.241541350E1,-1.831740875E0,-1.069226532E0,-7.195536804E-1,2.239704782E0
1.242535250E1,-2.330354004E0,-1.277593231E0,-6.484515381E-1,2.735559110E0
1.243529250E1,-2.785407715E0,-1.576371918E0,-1.048270111E0,3.367835327E0
1.244523150E1,-2.945275269E0,-1.781146088E0,-1.281036072E0,3.672625928E0
1.245517150E1,-2.834206238E0,-1.870210876E0,-8.253836060E-1,3.494520256E0
1.246511050E1,-2.657423859E0,-1.879940643E0,-2.061213684E-1,3.261681224E0
1.247505050E1,-2.389331360E0,-1.637744293E0,-3.293151855E-3,2.896743268E0
1.248498950E1,-2.043251038E0,-1.269210663E0,-8.966354370E-2,2.407033456E0
1.249492950E1,-1.830842743E0,-1.072819061E0,-1.802252197E-1,2.129649506E0
1.250486850E1,-1.749561768E0,-1.006506958E0,-2.688409424E-1,2.036246077E0
1.251480750E1,-1.725012817E0,-8.068222046E-1,-3.685336304E-1,1.939703154E0
1.252474750E1,-1.436562653E0,8.786727905E-2,-5.396278381E-1,1.537085267E0
1.253468650E1,-8.611592102E-1,1.773961029E0,-5.602848816E-1,2.049988309E0
1.254462650E1,-9.560618591E-1,3.159180450E0,1.013093262E0,3.452655985E0
1.255456550E1,-7.243437195E-1,2.167941742E0,2.663561096E0,3.509872210E0
1.256450550E1,8.170010376E-1,-4.760101318E-1,-6.518943787E-1,1.148495808E0
1.257444450E1,1.432521057E0,1.429527283E-1,-7.999365234E-1,1.646951882E0
1.258438350E1,1.505868530E0,9.494755554E-1,-6.292913818E-1,1.888160879E0
1.259432350E1,1.805245972E0,1.667083282E0,-8.779243469E-1,2.609373650E0
1.260426250E1,2.412533112E0,2.499651947E0,-7.372169495E-1,3.551346886E0
1.261420250E1,1.312575485E1,3.960164795E0,-1.179996185E0,1.376084070E1
1.262414150E1,3.461446884E1,8.451275482E0,-3.578757935E0,3.581051548E1
1.263408150E1,6.312552979E1,1.667786819E1,-3.270099792E0,6.537336882E1
1.264402050E1,7.938980804E1,2.802921295E1,3.608695679E0,8.426981123E1
1.265395950E1,7.320272415E1,3.878090469E1,5.277425537E0,8.300872612E1
1.266389950E1,4.399246719E1,2.797113373E1,2.082020416E0,5.217332940E1
1.267383850E1,2.215003876E1,1.672606796E1,9.120982819E0,2.921605542E1
1.268377850E1,1.154174881E1,1.004336472E1,1.410920975E1,2.081227859E1
1.269371750E1,8.127648468E0,5.927224274E0,9.596394196E0,1.390256950E1
1.270365750E1,7.710016937E0,4.256548462E0,1.112187195E0,8.876909729E0
1.271359650E1,4.945116577E0,2.847079468E0,-1.501826935E0,5.900468083E0
1.272353650E1,2.058369598E0,1.532363434E0,-1.292113037E0,2.873078349E0
1.273347550E1,1.008901978E-1,4.352947998E-1,-8.047265625E-1,9.204592523E-1
1.274341450E1,-1.356778564E0,-5.786965942E-1,-1.522334290E-1,1.482873170E0
1.275335450E1,-2.080972595E0,-1.422042847E0,3.936813354E-2,2.520754381E0
1.276329350E1,-2.623145142E0,-2.429597626E0,3.635939026E-1,3.593888644E0
1.277323350E1,-3.309767303E0,-3.727847900E0,3.177891541E-1,4.995237684E0
1.278317250E1,-3.723357239E0,-4.409530334E0,-7.490423584E-1,5.819657323E0
1.279311250E1,-4.008514252E0,-4.367318115E0,-1.773961029E0,6.187777611E0
1.280305150E1,-4.393513641E0,-4.322112122E0,-2.437082062E0,6.627441760E0
1.281299050E1,-4.906347198E0,-4.387975159E0,-2.387535095E0,7.001920641E0
1.282293050E1,-4.911286926E0,-4.196074219E0,-1.567390594E0,6.647141596E0
1.283286950E1,-4.481231232E0,-4.065246277E0,-7.226971436E-1,6.093435140E0
1.284280950E1,-3.720962219E0,-4.086202698E0,-8.891510010E-2,5.527252321E0
1.285274850E1,-2.627486115E0,-3.996988220E0,6.780899048E-1,4.831087252E0
1.286268850E1,-1.888472900E0,-3.776646423E0,9.370513916E-1,4.325211372E0
1.287262750E1,-1.557810516E0,-3.723506927E0,6.996450806E-1,4.096435119E0
1.288256650E1,-1.416354675E0,-3.382216644E0,8.499325562E-1,3.764018510E0
1.289250650E1,-9.611512756E-1,-2.324815521E0,2.146835632E0,3.307186450E0
1.290244550E1,3.212319946E-1,-5.807922363E-1,3.363804932E0,3.428657643E0
1.291238550E1,2.284848633E0,3.616479492E-1,3.002456360E0,3.790259451E0
1.292232450E1,3.384611664E0,-7.387138367E-1,1.560953979E0,3.799719934E0
1.293226450E1,3.958368530E0,-1.172062683E0,8.140072632E-1,4.207733378E0
1.294220350E1,5.344186707E0,-9.794132996E-1,7.653584290E-1,5.486834742E0
1.295214350E1,9.985135803E0,-3.026705933E-1,1.967358856E0,1.018160338E1
1.296208250E1,1.872201736E1,7.042854309E-1,1.822011108E0,1.882364674E1
1.297202150E1,3.040387482E1,2.171534271E0,-1.846110992E0,3.053717883E1
1.298196150E1,4.590489029E1,8.828341370E0,-3.730242920E0,4.689470414E1
1.299190050E1,6.106760925E1,2.088786346E1,-3.363655243E0,6.462870815E1
1.300184050E1,6.509767868E1,3.295397186E1,-1.749561768E0,7.298447093E1
1.301177950E1,5.512766144E1,3.494782562E1,1.968556366E0,6.530149145E1
1.302171950E1,3.546619766E1,2.625315628E1,5.818699951E0,4.450771462E1
1.303165850E1,1.843656097E1,1.791684174E1,9.005722504E0,2.724009978E1
1.304159750E1,8.077502747E0,1.097891922E1,9.178912354E0,1.643274627E1
1.305153750E1,3.657793579E0,6.639443207E0,5.925428009E0,9.621452960E0
1.306147650E1,1.778601379E0,4.208797760E0,2.010768585E0,4.992052860E0
1.307141650E1,-5.331912231E-1,2.275867310E0,-2.670446777E-1,2.352695848E0
1.308135550E1,-2.392774200E0,7.545808411E-1,-1.608255615E0,2.980142068E0
1.309129550E1,-3.026556244E0,-3.028202820E-1,-2.674638062E0,4.050361907E0
1.310123450E1,-3.188519440E0,-1.140029297E0,-3.588487701E0,4.933920044E0
1.311117350E1,-3.099304962E0,-1.318907318E0,-2.889291687E0,4.437703710E0
1.312111350E1,-2.580633545E0,-1.506467285E0,-1.383423157E0,3.292866958E0
1.313105250E1,-1.949994965E0,-1.610650635E0,-7.235952759E-1,2.630639837E0
1.314099250E1,-1.656455383E0,-1.643582153E0,-7.204518127E-1,2.442182947E0
1.315093150E1,-1.668580170E0,-1.686393127E0,-8.322692871E-1,2.514110922E0
1.316087150E1,-2.040856018E0,-1.961970062E0,-8.279283142E-1,2.949556764E0
1.317081050E1,-2.341131592E0,-2.529739380E0,-5.306465149E-1,3.487415115E0
1.318075050E1,-2.499801636E0,-3.533701630E0,2.005828857E-1,4.333161539E0
1.319068950E1,-2.485281830E0,-3.702999573E0,2.507286072E-1,4.466732189E0
1.320062850E1,-2.339934082E0,-2.999911652E0,1.821711731E-1,3.808930002E0
1.321056850E1,-2.244881744E0,-2.631976776E0,1.029858398E-1,3.460838320E0
1.322050750E1,-1.989063721E0,-2.741997986E0,1.240919495E-1,3.389738375E0
1.323044750E1,-1.502725067E0,-2.882256317E0,2.899470520E-1,3.263380670E0
1.324038650E1,-9.978250122E-1,-2.817291412E0,3.833528137E-1,3.013261528E0
1.325032650E1,-5.806425476E-1,-2.548749847E0,4.686753845E-1,2.655734958E0
1.326026550E1,1.422042847E-2,-9.460327148E-1,1.839375000E0,2.068448817E0
1.327020450E1,1.280587006E0,1.391805725E0,4.591402130E0,4.965682206E0
1.328014450E1,2.972069550E0,1.783990173E0,5.009482727E0,6.091858135E0
1.329008350E1,3.182082825E0,-6.845265198E-1,1.977837067E0,3.808683122E0
1.330002350E1,4.596341858E0,-6.421646118E-1,1.131347351E0,4.776890274E0
1.330996250E1,8.007747803E0,1.823208618E-1,1.569935303E0,8.162227798E0
1.331990250E1,1.509984970E1,1.563498688E0,1.964365082E0,1.530714602E1
1.332984150E1,2.857318176E1,6.036197662E0,1.134490814E0,2.922583562E1
1.333978050E1,4.749398575E1,1.817236038E1,3.502266998E0,5.097233797E1
1.334972050E1,6.584537384E1,2.852812546E1,-8.663983154E-1,7.176501825E1
1.335965950E1,7.249364868E1,3.650204361E1,-6.435866547E0,8.141958404E1
1.336959950E1,5.699472885E1,3.601450745E1,-5.106780396E0,6.761303920E1
1.337953850E1,2.756383072E1,2.547163147E1,2.262694702E0,3.759905000E1
1.338947850E1,1.002899460E1,1.595457230E1,8.754694519E0,2.077916711E1
1.339941750E1,4.957840118E0,1.027044250E1,8.405321045E0,1.416727178E1
1.340935638E1,4.619842987E0,7.124135284E0,3.611240387E0,9.226988128E0
1.341929638E1,3.099604340E0,5.025349731E0,5.517526245E-1,5.930102693E0
1.342923538E1,2.802172852E-1,2.458786926E0,-1.598076782E0,2.945845257E0
1.343917538E1,-1.230740662E0,9.020242310E-1,-2.623594208E0,3.035064556E0
1.344911438E1,-1.716779938E0,3.333567810E-1,-2.330803070E0,2.913949734E0
1.345905438E1,-1.713337097E0,1.068777466E-1,-1.462009735E0,2.254865700E0
1.346899338E1,-1.693129120E0,-2.281256104E-1,-7.993377686E-1,1.886178247E0
1.347893338E1,-1.614243164E0,-5.996530151E-1,-2.933898926E-1,1.746837817E0
1.348887238E1,-1.467548218E0,-8.848100281E-1,-7.334747314E-2,1.715216141E0
1.349881138E1,-1.271605682E0,-9.922865295E-1,5.807922363E-2,1.613997139E0
1.350875138E1,-1.447190552E0,-1.251996460E0,5.429209900E-1,1.989125142E0
1.351869038E1,-1.908980255E0,-1.628613281E0,1.165626068E0,2.766816034E0
1.352863038E1,-2.282603302E0,-1.911524963E0,1.197958832E0,3.209253945E0
1.353856937E1,-2.640509033E0,-2.149230652E0,8.690927124E-1,3.513801715E0
1.354850938E1,-2.920876007E0,-2.210303650E0,4.323010254E-1,3.688338793E0
1.355844837E1,-2.825224915E0,-2.036814423E0,-9.639953613E-2,3.484221818E0
1.356838838E1,-2.635718994E0,-1.776056671E0,-4.745132446E-1,3.213495719E0
1.357832737E1,-2.351011047E0,-1.564845886E0,-5.646258545E-1,2.880069087E0
1.358826638E1,-2.146685944E0,-1.569635925E0,-5.126838684E-1,2.708295078E0
1.359820637E1,-2.002835083E0,-1.794019318E0,-3.370989990E-1,2.709887344E0
1.360814538E1,-2.002984772E0,-2.286644897E0,-1.333726501E-1,3.042775238E0
1.361808537E1,-1.789229279E0,-2.321821747E0,3.742218018E-2,2.931483934E0
1.362802438E1,-1.205592957E0,-1.858235779E0,2.341131592E-1,2.227398383E0
1.363796437E1,-1.306782532E-1,-1.201850739E0,9.403445435E-1,1.531590632E0
1.364790338E1,1.668131104E0,-4.851411438E-1,2.062111816E0,2.696354660E0
1.365784238E1,2.804717560E0,-3.870950317E-1,2.256258087E0,3.620356848E0
1.366778238E1,2.746039581E0,-1.324745178E-1,1.213975525E0,3.005331838E0
1.367772138E1,4.914580078E0,1.297501831E0,3.854634247E0,6.379248664E0
1.368766138E1,9.532776489E0,2.813698883E0,3.802542572E0,1.064190110E1
1.369760038E1,1.972927277E1,4.929548950E0,-1.583856354E0,2.039738360E1
1.370754038E1,3.913985825E1,1.249167343E1,-2.468367004E0,4.115899955E1
1.371747938E1,6.528972931E1,2.602098907E1,-3.791315918E0,7.038618261E1
1.372741837E1,7.927843964E1,3.627571426E1,-4.530179443E0,8.730132280E1
1.373735838E1,6.930917084E1,3.854469589E1,3.466042328E0,7.938178754E1
1.374729737E1,3.676774109E1,2.848052444E1,9.443412323E0,4.745719222E1
1.375723738E1,1.779274979E1,1.651350998E1,8.526419220E0,2.572892888E1
1.376717637E1,1.081695602E1,9.912985840E0,5.113516388E0,1.553775646E1
1.377711638E1,7.553143158E0,6.169270935E0,-2.874023438E-2,9.752471555E0
1.378705537E1,4.402195587E0,3.675307159E0,-3.333567810E0,6.633240765E0
1.379699538E1,1.869462433E0,1.957329712E0,-3.630400543E0,4.528337166E0
1.380693437E1,3.793112183E-1,1.161584473E0,-2.693947906E0,2.958126233E0
1.381687338E1,-9.201365662E-1,4.972659302E-1,-1.739832001E0,2.030009876E0
1.382681337E1,-1.768422546E0,-5.493576050E-2,-8.093669128E-1,1.945613281E0
1.383675238E1,-2.083367615E0,-5.493576050E-1,5.927673340E-2,2.155395121E0
1.384669238E1,-2.227218475E0,-1.041534119E0,1.056353302E0,2.676037697E0
1.385663138E1,-2.324067078E0,-1.557062073E0,1.826801147E0,3.341097501E0
1.386657138E1,-2.446662140E0,-2.049687653E0,2.110461273E0,3.826411097E0
1.387651038E1,-2.587070160E0,-2.336640930E0,1.849254456E0,3.946208926E0
1.388644938E1,-2.753524017E0,-2.323618011E0,1.203796692E0,3.798713157E0
1.389638938E1,-3.032543793E0,-2.286195831E0,3.864962769E-1,3.817380333E0
1.390632838E1,-3.354673920E0,-2.318678284E0,-4.712200928E-1,4.105137570E0
1.391626838E1,-3.356021118E0,-2.331701202E0,-7.798782349E-1,4.160278633E0
1.392620738E1,-3.167712708E0,-2.539169769E0,-5.557942200E-1,4.097644949E0
1.393614738E1,-3.138673096E0,-3.095862122E0,-2.811154175E-1,4.417539695E0
1.394608638E1,-2.975213013E0,-3.669469299E0,1.037342834E-1,4.725215150E0
1.395602538E1,-2.846181335E0,-4.135749664E0,1.728904724E-1,5.023451462E0
1.396596538E1,-2.797083435E0,-4.288432159E0,-8.532257080E-2,5.120703669E0
1.397590438E1,-2.421065369E0,-3.820654907E0,-1.766326904E-1,4.526605853E0
1.398584438E1,-1.806742859E0,-3.212918701E0,-1.806742859E-1,3.690502613E0
1.399578338E1,-1.055904236E0,-1.833237762E0,9.131011963E-2,2.117553302E0
1.400572338E1,2.489323425E-1,1.441203003E0,2.139949951E0,2.591991358E0
1.401566238E1,2.558180237E0,3.112178192E0,5.613327026E0,6.909368967E0
1.402560238E1,3.050506439E0,1.326242065E-1,3.280278625E0,4.481451392E0
1.403554138E1,2.352657623E0,-1.233135681E0,5.680686951E-1,2.716306968E0
1.404548038E1,3.903582458E0,-3.480262756E-1,1.131946106E0,4.079262223E0
1.405542038E1,8.073311462E0,3.070115662E-1,3.474275208E-1,8.086613627E0
1.406535938E1,2.025947021E1,1.623074799E0,-3.911366272E-1,2.032814534E1
1.407529938E1,4.259557205E1,6.866071930E0,-2.289938049E0,4.320612825E1
1.408523838E1,6.539600830E1,2.154933792E1,-5.632786560E-1,6.885731006E1
1.409517838E1,7.175673111E1,3.564387817E1,-3.251837769E0,8.018783548E1
1.410511738E1,6.609355774E1,4.389546890E1,-2.050735474E0,7.936860891E1
1.411505638E1,4.275499054E1,3.312027603E1,6.990463257E0,5.453263681E1
1.412499638E1,2.052606583E1,1.731554214E1,1.352976471E1,3.006995030E1
1.413493538E1,1.035711227E1,1.044033920E1,1.134041748E1,1.857082459E1
1.414487538E1,7.596103821E0,6.280789032E0,5.248685303E0,1.116681698E1
1.415481438E1,5.115162964E0,3.489693146E0,1.607357483E0,6.397378250E0
1.416475438E1,2.162552948E0,1.470841370E0,-6.270460510E-1,2.689460232E0
1.417469338E1,-3.079096985E-1,-6.616241455E-2,-1.628313904E0,1.658490885E0
1.418463337E1,-1.648222504E0,-6.526428223E-1,-1.768123169E0,2.503765088E0
1.419457238E1,-1.969903564E0,-7.535330200E-1,-1.611099701E0,2.654048664E0
1.420451138E1,-1.950294342E0,-9.095086670E-1,-1.285526733E0,2.506677685E0
1.421445138E1,-1.792522430E0,-1.088386688E0,-1.293759613E0,2.464048738E0
1.422439038E1,-1.774859161E0,-1.283880157E0,-1.131946106E0,2.465720034E0
1.423433038E1,-2.067051544E0,-1.573677521E0,-9.885443115E-1,2.779637185E0
1.424426938E1,-2.695893860E0,-2.024090881E0,-8.707392883E-1,3.481806213E0
1.425420938E1,-3.934867401E0,-3.019371185E0,-7.743397522E-1,5.019898990E0
1.426414838E1,-4.689897308E0,-3.654500427E0,-1.376238098E0,6.102830609E0
1.427408738E1,-4.701273651E0,-3.748055878E0,-1.786235504E0,6.272203288E0
1.428402738E1,-4.505780182E0,-3.688030701E0,-1.323847046E0,5.971280976E0
1.429396638E1,-4.512366486E0,-3.645668793E0,-8.773255920E-1,5.867030973E0
1.430390638E1,-4.394112396E0,-3.654650116E0,-5.559439087E-1,5.742278716E0
1.431384537E1,-3.860172729E0,-3.630849609E0,-3.996688843E-1,5.314483757E0
1.432378538E1,-3.115022278E0,-3.427123260E0,-4.489164734E-1,4.652962888E0
1.433372437E1,-2.983445892E0,-3.404370575E0,-2.281256104E-1,4.532408819E0
1.434366438E1,-2.797233124E0,-3.434757385E0,-2.983296204E-1,4.439715307E0
1.435360337E1,-8.825646973E-1,-5.917195129E-1,1.992805939E0,2.258390563E0
1.436354238E1,1.442550201E0,2.554288330E0,9.081914063E0,9.543924926E0
1.437348237E1,2.285447388E0,2.874023438E-2,3.579805756E0,4.247246757E0
1.438342138E1,2.517015839E0,-8.047265625E-1,5.158273315E-1,2.692402535E0
1.439336137E1,2.866389313E0,7.544311523E-2,7.550299072E-1,2.965122176E0
1.440330038E1,3.871399384E0,4.635859680E-1,5.644761658E-1,3.939705380E0
1.441324067E1,6.901248779E0,1.501677246E0,-1.204844513E0,7.164769331E0
1.442317967E1,2.168525528E1,3.817661133E0,-4.116140442E0,2.240016619E1
1.443311867E1,4.953469208E1,1.083207458E1,-6.499933319E0,5.112013979E1
1.444305867E1,7.614994537E1,2.335578140E1,-1.532812500E-1,7.965130382E1
1.445299767E1,7.664421753E1,3.684752518E1,9.233099670E0,8.554137199E1
1.446293767E1,5.611216415E1,3.515200104E1,1.481918335E0,6.623016099E1
1.447287667E1,3.744268753E1,2.560201035E1,3.588936768E0,4.550053022E1
1.448281667E1,2.074850327E1,1.775143570E1,8.284671936E0,2.853505995E1
1.449275567E1,8.970096588E0,1.091859467E1,9.910590820E0,1.725972632E1
1.450269567E1,4.108057251E0,5.966592407E0,7.919730835E0,1.073305622E1
1.451263467E1,2.163600769E0,3.243904266E0,3.423830109E0,5.189093928E0
1.452257367E1,4.240681458E-1,1.628164215E0,1.889071655E-1,1.693055941E0
1.453251367E1,-1.236877899E0,2.630030823E-1,-1.357227631E0,1.855021402E0
1.454245267E1,-2.127076721E0,-6.795867920E-1,-1.868713989E0,2.911766742E0
1.455239267E1,-2.575843506E0,-1.443298645E0,-1.326691132E0,3.237003260E0
1.456233167E1,-2.580334167E0,-1.807640991E0,-5.739065552E-1,3.202352120E0
1.457227167E1,-2.342329102E0,-2.087858276E0,6.376739502E-2,3.138427008E0
1.458221067E1,-2.146536255E0,-2.392923889E0,2.011816406E-1,3.220896876E0
1.459214967E1,-2.127226410E0,-2.745141449E0,-3.772155762E-2,3.473084607E0
1.460208967E1,-2.326761475E0,-3.051853638E0,-2.336640930E-1,3.844766377E0
1.461202867E1,-2.746338959E0,-3.461102600E0,-3.561094666E-1,4.432654153E0
1.462196867E1,-3.389551392E0,-4.018842773E0,-6.795867920E-1,5.301131396E0
1.463190767E1,-3.780538330E0,-4.280049591E0,-6.879693604E-1,5.751921106E0
1.464184767E1,-3.575315094E0,-4.093238068E0,-6.589297485E-1,5.474638281E0
1.465178667E1,-3.161126404E0,-4.066892853E0,-4.926255798E-1,5.174458192E0
1.466172667E1,-2.847378845E0,-4.538112946E0,-2.071691895E-1,5.361432128E0
1.467166567E1,-2.499352570E0,-5.010829926E0,3.582051086E-1,5.611015123E0
1.468160467E1,-1.983375549E0,-5.079537048E0,9.865983582E-1,5.541556777E0
1.469154467E1,-1.764530640E0,-4.995112610E0,8.190966797E-1,5.360563192E0
1.470148367E1,-1.496138763E0,-4.391567688E0,-1.034349060E-1,4.640581509E0
1.471142367E1,-5.245092773E-1,-9.336085510E-1,4.906796265E-1,1.177922495E0
1.472136267E1,2.977308655E-1,2.190095673E0,3.300935669E0,3.972573349E0
1.473130267E1,1.862427063E0,1.180744629E0,3.907923431E0,4.487165920E0
1.474124167E1,3.148253174E0,-9.809101868E-1,1.288670197E0,3.540388922E0
1.475118167E1,4.864284668E0,-3.941304016E-1,1.439706116E0,5.088158587E0
1.476112067E1,7.756719818E0,1.704954529E-1,1.601070557E0,7.922070308E0
1.477105967E1,1.484732483E1,1.653012543E0,1.214723969E0,1.498836413E1
1.478099967E1,2.878065033E1,6.076014862E0,-6.815327454E-1,2.942292094E1
1.479093867E1,5.387476685E1,1.742047394E1,-2.960244141E0,5.669855783E1
1.480087867E1,7.329837524E1,3.169089844E1,-3.927532654E0,7.995242567E1
1.481081767E1,7.514762970E1,4.040353043E1,-2.517015839E0,8.535775822E1
1.482075767E1,5.442876480E1,3.628948563E1,-3.004252625E-1,6.541794448E1
1.483069667E1,2.702674759E1,2.604928024E1,8.004005585E0,3.838064866E1
1.484063567E1,9.972711639E0,1.881512375E1,1.415291885E1,2.556890634E1
1.485057567E1,4.051624603E0,1.101215012E1,1.030457153E1,1.561625136E1
1.486051467E1,4.660558319E0,6.511309662E0,2.756218414E0,8.468453065E0
1.487045467E1,3.595822449E0,4.174369354E0,-1.169817352E0,5.632385927E0
1.488039367E1,1.461410980E0,1.954036560E0,-2.359094238E0,3.394010394E0
1.489033367E1,-1.987866211E-1,3.851490784E-1,-1.955084381E0,2.002551091E0
1.490027267E1,-1.436412964E0,-6.505471802E-1,-6.159690857E-1,1.692900396E0
1.491021267E1,-1.911375275E0,-1.209484863E0,-1.718426514E-1,2.268422133E0
1.492015167E1,-2.159708862E0,-1.616189117E0,-2.880010986E-1,2.712812980E0
1.493009067E1,-2.598596191E0,-2.185305634E0,5.538482666E-3,3.395334086E0
1.494003067E1,-2.938539276E0,-2.858306122E0,4.170327759E-1,4.120539200E0
1.494996967E1,-2.985691223E0,-3.294798431E0,4.550537109E-1,4.469577459E0
1.495990967E1,-2.946772156E0,-3.620521088E0,1.089733887E-1,4.669423335E0
1.496984867E1,-3.052452393E0,-4.563260651E0,1.158590698E-1,5.491287344E0
1.497978867E1,-3.060535583E0,-6.021677856E0,2.365081787E-2,6.754853191E0
1.498972767E1,-3.013233948E0,-6.624474335E0,1.188528442E-1,7.278555147E0
1.499966667E1,-3.298690338E0,-6.338568878E0,1.152603149E-1,7.146474537E0
1.500960667E1,-3.543281708E0,-5.829926605E0,2.897973633E-1,6.828387218E0
1.501954567E1,-2.927612000E0,-5.585035858E0,4.748126221E-1,6.323684415E0
1.502948567E1,-2.389031982E0,-5.698948975E0,4.948709106E-1,6.199224988E0
1.503942467E1,-2.255359955E0,-5.547913055E0,8.056246948E-1,6.042765836E0
1.504936467E1,-2.121837616E0,-4.882247314E0,4.074526978E-1,5.338965388E0
1.505930367E1,-9.502239990E-1,-1.688788147E0,-7.167095947E-1,2.066059945E0
1.506924367E1,-1.251397705E-1,1.271905060E0,2.158511353E-1,1.296145885E0
1.507918267E1,-2.628533936E-1,3.000809784E0,4.262985077E0,5.219865231E0
1.508912167E1,1.584006042E0,1.827399902E0,5.064418488E0,5.612201009E0
1.509906167E1,3.160527649E0,-1.317859497E0,1.291514282E0,3.659740129E0
1.510900067E1,4.461023254E0,-6.527925110E-1,1.957479401E0,4.915139077E0
1.511894067E1,8.115224304E0,-7.813751221E-2,2.522254944E0,8.498514045E0
1.512887967E1,1.690719131E1,1.196761322E0,2.820584564E0,1.718257993E1
1.513881967E1,3.888748306E1,5.989045715E0,5.473517761E0,3.972485877E1
1.514875867E1,6.821419785E1,1.414378784E1,-4.360432434E-1,6.966644570E1
1.515869767E1,7.803302948E1,2.529829193E1,-4.034560089E0,8.213059685E1
1.516863767E1,6.902745667E1,3.704601242E1,-7.289840698E-1,7.834365467E1
1.517857667E1,4.813435410E1,2.838322678E1,1.851799164E0,5.591022059E1
1.518851667E1,2.561009354E1,1.670855438E1,7.483238525E0,3.148097107E1
1.519845567E1,1.190115143E1,1.169577850E1,1.043045975E1,1.967798594E1
1.520839567E1,6.190676422E0,8.367150421E0,7.946375427E0,1.309498237E1
1.521833467E1,3.583547974E0,5.754633179E0,4.264332275E0,8.008879376E0
1.522827467E1,1.599274292E0,3.840713196E0,1.804048462E0,4.534682675E0
1.523821367E1,9.056167603E-2,1.952090607E0,1.911524963E-1,1.963516853E0
1.524815267E1,-1.230441284E0,5.150788879E-1,-7.265890503E-1,1.518954793E0
1.525809267E1,-1.948647766E0,-5.141807556E-1,-6.382727051E-1,2.114001422E0
1.526803167E1,-2.204316101E0,-1.106349335E0,-1.090332642E0,2.696635606E0
1.527797167E1,-2.051034851E0,-1.204245758E0,-1.649420013E0,2.894397724E0
1.528791067E1,-1.686542816E0,-9.717791748E-1,-1.688189392E0,2.576580070E0
1.529785067E1,-1.430874481E0,-6.735992432E-1,-1.713636475E0,2.331885008E0
1.530778967E1,-1.295256500E0,-6.192622375E-1,-1.453477478E0,2.042981130E0
1.531772967E1,-1.285975800E0,-8.562194824E-1,-9.672885132E-1,1.822770591E0
1.532766867E1,-1.381177826E0,-1.259780273E0,-5.240602112E-1,1.941478207E0
1.533760767E1,-1.820963287E0,-2.346819763E0,1.827699280E-1,2.976050259E0
1.534754767E1,-2.072140961E0,-3.350632324E0,9.421408081E-1,4.050695550E0
1.535748667E1,-2.145638123E0,-3.473077698E0,1.034947815E0,4.211549433E0
1.536742667E1,-2.158361664E0,-3.037782898E0,7.969427490E-1,3.810743727E0
1.537736567E1,-2.143841858E0,-2.276765442E0,5.123844910E-1,3.168951981E0
1.538730567E1,-2.039059753E0,-1.643282776E0,1.348695374E-1,2.622276254E0
1.539724467E1,-1.882784729E0,-1.230890350E0,-1.362167358E-1,2.253558162E0
1.540718417E1,-1.768422546E0,-1.062490540E0,-1.922003174E-1,2.071990688E0
1.541712317E1,-1.501527557E0,-1.047821045E0,-1.124162292E-1,1.834434887E0
1.542706217E1,-1.074166260E0,-1.043629761E0,3.951782227E-2,1.498184865E0
1.543700217E1,-5.520520020E-1,-7.026388550E-1,-4.879852295E-2,8.948989156E-1
1.544694117E1,4.745132446E-1,4.884342957E-1,5.987548828E-2,6.836051160E-1
1.545688117E1,1.948647766E0,1.610950012E0,8.801696777E-1,2.677141520E0
1.546682017E1,2.841840363E0,1.040186920E0,1.210083618E0,3.259194354E0
1.547676017E1,3.911515961E0,6.593788147E-1,8.144563293E-1,4.049453870E0
1.548669917E1,6.349496155E0,1.647474060E0,4.902305603E-1,6.578039085E0
1.549663817E1,1.290556274E1,4.540957031E0,4.345463562E-1,1.368804847E1
1.550657817E1,2.772938644E1,9.944719849E0,-4.206253052E-1,2.946172519E1
1.551651717E1,5.021547638E1,1.682905380E1,-3.492237854E0,5.307548252E1
1.552645717E1,7.298702271E1,2.650343582E1,-5.885910187E0,7.787285491E1
1.553639617E1,7.796866333E1,3.653018509E1,-5.414989471E0,8.627217973E1
1.554633617E1,5.230408310E1,3.198069580E1,3.120261383E0,6.138581305E1
1.555627517E1,2.181997513E1,1.964634521E1,1.462114517E1,3.280042806E1
1.556621517E1,9.744586029E0,1.260633499E1,1.701556595E1,2.331107298E1
1.557615417E1,7.660320282E0,8.383316803E0,1.102891525E1,1.583027097E1
1.558609317E1,7.483986969E0,5.201233978E0,4.797822876E0,1.029961165E1
1.559603317E1,5.673950958E0,3.282973022E0,1.069974976E0,6.642023622E0
1.560597217E1,3.122656403E0,1.413660278E0,-5.511538696E-1,3.471770295E0
1.561591217E1,1.383273468E0,1.327738953E-1,-2.857557678E-1,1.418707423E0
1.562585117E1,2.411485291E-1,-5.734574890E-1,-4.906796265E-1,7.923210212E-1
1.563579117E1,-8.063731384E-1,-8.737330627E-1,-1.886377258E0,2.229813056E0
1.564573017E1,-1.183588715E0,-8.289761353E-1,-2.489622803E0,2.878594341E0
1.565567017E1,-1.065035248E0,-8.752299500E-1,-1.766177216E0,2.240470821E0
1.566560917E1,-9.865983582E-1,-8.391549683E-1,-8.210426331E-1,1.533515043E0
1.567554817E1,-8.705895996E-1,-8.812174988E-1,-1.028361511E-1,1.242998715E0
1.568548817E1,-1.000220032E0,-1.124461670E0,1.564247131E-1,1.513050842E0
1.569542717E1,-1.305585022E0,-1.431473236E0,1.110690308E-1,1.940619541E0
1.570536717E1,-1.696871338E0,-1.740580444E0,-9.145980835E-2,2.432561925E0
1.571530617E1,-2.100132751E0,-1.982776794E0,-5.328918457E-1,2.936994230E0
1.572524617E1,-2.579286346E0,-2.373464355E0,-1.031954041E0,3.653899321E0
1.573518517E1,-3.206631775E0,-2.754721527E0,-1.448687439E0,4.468744044E0
1.574512517E1,-3.544179840E0,-2.936443634E0,-1.568887482E0,4.862645359E0
1.575506417E1,-3.444936218E0,-3.235072632E0,-1.532213745E0,4.967993503E0
1.576500317E1,-3.309168549E0,-3.411106567E0,-1.376986542E0,4.947962857E0
1.577494317E1,-2.761906586E0,-2.861898651E0,-9.550140381E-1,4.090310953E0
1.578488217E1,-2.147733765E0,-2.343077545E0,-4.635859680E-1,3.212115293E0
1.579482217E1,-1.506616974E0,-1.851499786E0,-3.522175598E-1,2.412882793E0
1.580476117E1,-4.050576782E-1,-9.803114319E-1,-3.607498169E-1,1.120367197E0
1.581470117E1,8.204438782E-1,9.527687073E-1,4.011657715E-1,1.319784203E0
1.582464017E1,2.038161621E0,2.758763123E-1,6.038442993E-1,2.143557434E0
1.583458017E1,2.487826538E0,-1.060694275E0,-5.807922363E-2,2.705129650E0
1.584451917E1,3.315156097E0,-6.367758179E-1,2.487826538E-1,3.384913027E0
1.585445817E1,5.909561005E0,1.586700439E-1,1.804198151E0,6.180875214E0
1.586439817E1,1.203841599E1,9.256750488E-1,1.792522430E0,1.220628815E1
1.587433717E1,2.392190414E1,2.021097107E0,-2.489323425E-1,2.400842141E1
1.588427717E1,4.486979279E1,6.352639618E0,-2.225721588E0,4.537188746E1
1.589421617E1,6.566245422E1,1.686198532E1,-1.594184875E0,6.781169419E1
1.590415617E1,6.910200165E1,3.183415054E1,6.863227844E-1,7.608528643E1
1.591409517E1,5.797309433E1,4.261652847E1,6.411766663E0,7.223682521E1
1.592403417E1,3.839755188E1,3.320320358E1,1.128593079E1,5.200189374E1
1.593397417E1,2.024929138E1,1.828043564E1,1.053479279E1,2.924363157E1
1.594391317E1,1.307710602E1,1.024170227E1,6.669231262E0,1.789921263E1
1.595385317E1,1.019619690E1,5.990093536E0,6.755451965E-1,1.184483065E1
1.596379217E1,6.346801758E0,3.895050201E0,-2.545905762E0,7.869875779E0
1.597373217E1,2.313588867E0,2.475402374E0,-2.631677399E0,4.290225669E0
1.598367117E1,-5.713618469E-1,1.343156891E0,-1.922152863E0,2.413544369E0
1.599361117E1,-1.923949127E0,4.555027771E-1,-1.785037994E0,2.663723647E0
1.600355017E1,-2.056124268E0,-5.209167480E-2,-1.817370758E0,2.744667014E0
1.601348917E1,-1.859133911E0,-4.766088867E-1,-1.253193970E0,2.292167109E0
1.602342917E1,-1.722617798E0,-1.023272095E0,-4.972659302E-1,2.064405789E0
1.603336817E1,-1.854194183E0,-1.533111877E0,-4.924758911E-2,2.406427523E0
1.604330817E1,-2.305355988E0,-1.862127686E0,-2.993774414E-3,2.963476794E0
1.605324717E1,-2.846331024E0,-2.065704346E0,-4.581971741E-1,3.546643398E0
1.606318717E1,-3.590733032E0,-2.488724670E0,-1.053209839E0,4.494036622E0
1.607312617E1,-3.989054718E0,-2.940185852E0,-1.279239807E0,5.117978592E0
1.608306617E1,-4.054618378E0,-3.235372009E0,-1.158740387E0,5.315095626E0
1.609300517E1,-4.405339050E0,-3.751947784E0,-9.044192505E-1,5.856799340E0
1.610294417E1,-4.515959015E0,-5.401667175E0,-1.340312805E0,7.167170468E0
1.611288417E1,-4.286635895E0,-6.307882690E0,-8.402027893E-1,7.672716081E0
1.612282317E1,-4.158951416E0,-6.012846222E0,1.908531189E-1,7.313523192E0
1.613276317E1,-3.827390900E0,-5.829627228E0,8.217910767E-1,7.022023589E0
1.614270217E1,-3.858226776E0,-5.920188904E0,1.825603638E0,7.298450463E0
1.615264217E1,-4.283043365E0,-4.173321533E0,3.313659210E0,6.836769007E0
1.616258117E1,-3.511697388E0,-6.432124329E-1,4.744683380E0,5.937824615E0
1.617252117E1,-1.659898224E0,1.933978271E-1,4.218527527E0,4.537470587E0
1.618246017E1,2.251318359E-1,-3.186872864E-1,2.500250702E0,2.530513684E0
1.619239917E1,1.379381561E0,-3.538641357E-1,1.677561493E0,2.200483102E0
1.620233917E1,2.642454987E0,-1.832189941E-1,1.758393402E0,3.179321455E0
1.621227817E1,6.089786224E0,1.998194733E0,6.475833435E0,9.111240153E0
1.622221817E1,8.722661133E0,3.367098083E0,6.557413788E0,1.142023828E1
1.623215717E1,1.272997787E1,2.312840424E0,9.533674622E-1,1.297345278E1
1.624209717E1,2.908811096E1,3.184028778E0,-7.231462097E-1,2.927079054E1
1.625203617E1,5.895340576E1,6.819967804E0,-8.297245789E-1,5.935237531E1
1.626197617E1,7.926496765E1,1.284224442E1,-5.507197723E0,8.048718883E1
1.627191517E1,7.595430222E1,2.309966400E1,-3.297792206E0,7.945769903E1
1.628185417E1,5.215080185E1,2.589989090E1,-5.538482666E-2,5.822811649E1
1.629179417E1,3.031510941E1,1.702888824E1,2.517464905E0,3.486153357E1
1.630173317E1,1.836635696E1,1.229992218E1,7.752079468E0,2.342447203E1
1.631167317E1,9.366921387E0,9.985435181E0,9.718390503E0,1.678973633E1
1.632161217E1,4.640200653E0,6.477629700E0,6.941664734E0,1.056777450E1
1.633155217E1,2.137405243E0,4.068389740E0,3.273542633E0,5.642373403E0
1.634149117E1,4.884342957E-1,2.622247009E0,1.351240082E0,2.990083142E0
1.635143117E1,-9.889933777E-1,1.547182617E0,4.674778748E-1,1.894839707E0
1.636137017E1,-2.041604462E0,7.417076111E-1,-2.246827698E-1,2.183749369E0
1.637130917E1,-2.304607544E0,1.761836243E-1,-1.172811127E0,2.591860826E0
1.638124917E1,-2.289938049E0,-4.677772522E-1,-2.286195831E0,3.269453044E0
1.639118817E1,-2.474803619E0,-8.375083923E-1,-2.813698883E0,3.839658144E0
1.640112817E1,-2.661016388E0,-1.431922302E0,-2.548899536E0,3.953264289E0
1.641106688E1,-2.670746155E0,-2.331701202E0,-1.570534058E0,3.877665889E0
1.642100687E1,-2.381248169E0,-3.205733643E0,-4.490661621E-2,3.993630883E0
1.643094588E1,-1.893262939E0,-3.557352448E0,9.312135315E-1,4.135983515E0
