"Time (s)","Acceleration x (m/s^2)","Acceleration y (m/s^2)","Acceleration z (m/s^2)","Absolute acceleration (m/s^2)"
-6.707916618E-4,7.120093689E0,-1.215397568E1,6.436614990E-1,1.410067938E1
9.269208327E-3,6.567143555E0,-1.172556656E1,-1.637594604E-1,1.344035352E1
1.920820834E-2,5.602998505E0,-1.071531738E1,-7.430548096E-1,1.211460892E1
2.914720832E-2,5.202132111E0,-9.044641571E0,-2.943029938E0,1.084108596E1
3.908720834E-2,6.338868256E0,-8.172854462E0,-5.704637146E0,1.181184515E1
4.902620832E-2,7.316185913E0,-8.511749725E0,-4.255051575E0,1.200341300E1
5.896620834E-2,6.450236664E0,-8.308173065E0,3.528163147E-1,1.052405682E1
6.890520832E-2,4.913232880E0,-8.268505554E0,5.264252930E0,1.096450639E1
7.884420833E-2,3.305276642E0,-7.636070709E0,5.155578918E0,9.788484231E0
8.878420832E-2,3.692820740E0,-7.970175934E0,-1.561403046E0,8.921805249E0
9.872320833E-2,3.521127777E0,-9.096284180E0,-3.370091858E0,1.031979873E1
1.086632083E-1,3.643273773E0,-1.022897873E1,-3.519032135E0,1.141442232E1
1.186022083E-1,4.289479980E0,-1.133278336E1,-3.749852142E0,1.268436077E1
1.285412083E-1,5.047952728E0,-1.189845703E1,-3.064726868E0,1.328336016E1
1.384812083E-1,5.251230011E0,-1.156854309E1,-1.756896515E0,1.282549380E1
1.484202083E-1,5.018164673E0,-1.044198578E1,-5.135820007E-1,1.159658614E1
1.583602083E-1,5.013823700E0,-9.417067108E0,1.377136230E-2,1.066863490E1
1.682992083E-1,5.050497437E0,-8.794212341E0,3.098556519E-1,1.014601920E1
1.782382083E-1,4.651127930E0,-8.106841736E0,8.774752808E-1,9.387429724E0
1.881782083E-1,4.412973175E0,-7.562124481E0,1.269959106E0,8.847194756E0
1.981172083E-1,4.132157135E0,-7.453600159E0,1.263372803E0,8.615508618E0
2.080572083E-1,3.996988220E0,-7.571854248E0,1.280437317E0,8.657275051E0
2.179962083E-1,3.757336578E0,-7.405250702E0,1.257684631E0,8.398636006E0
2.279352083E-1,3.479514313E0,-7.115153961E0,1.203497314E0,8.011294623E0
2.378752083E-1,3.280578003E0,-7.160060577E0,1.246158600E0,7.973805287E0
2.478142083E-1,3.080893250E0,-7.401059418E0,1.624571686E0,8.179658726E0
2.577542083E-1,2.815195770E0,-7.544910278E0,1.989063721E0,8.295020965E0
2.676932083E-1,2.800226898E0,-7.426057434E0,2.061213684E0,8.199768384E0
2.776332083E-1,2.838846588E0,-7.302414551E0,1.878743134E0,8.056921495E0
2.875722083E-1,2.740351410E0,-7.185058594E0,1.906884613E0,7.922802646E0
2.975112083E-1,2.743195496E0,-7.069049835E0,2.032623138E0,7.850359477E0
3.074512083E-1,2.693349152E0,-7.073690186E0,2.051184540E0,7.842103067E0
3.173902083E-1,2.736758881E0,-7.032076721E0,2.025438080E0,7.812960489E0
3.273302083E-1,2.641706543E0,-7.101382599E0,2.019001465E0,7.841212610E0
3.372692083E-1,2.585423584E0,-7.002737732E0,2.024390259E0,7.734397635E0
3.472082083E-1,2.586321716E0,-6.920259247E0,1.999841309E0,7.653653593E0
3.571482083E-1,2.618654480E0,-6.873855743E0,2.226170654E0,7.685250799E0
3.670872083E-1,2.651735687E0,-6.935377808E0,2.557581482E0,7.853177098E0
3.770272083E-1,2.615960083E0,-6.953939209E0,2.721939697E0,7.912614827E0
3.869662083E-1,2.549348602E0,-7.090754700E0,2.789748688E0,8.034965977E0
3.969052083E-1,2.621199188E0,-7.380701752E0,2.687660980E0,8.280637963E0
4.068452083E-1,2.809956665E0,-7.879763947E0,2.518512726E0,8.736672288E0
4.167842083E-1,3.122357025E0,-8.482410736E0,2.373314667E0,9.345214165E0
4.267242083E-1,3.576811981E0,-8.868607635E0,2.368524628E0,9.851684843E0
4.366632083E-1,3.910318451E0,-9.266779633E0,2.461481323E0,1.035483875E1
4.466022083E-1,4.323758698E0,-9.627828827E0,2.662662964E0,1.088484043E1
4.565422083E-1,4.616699524E0,-9.948911133E0,3.229085083E0,1.143336073E1
4.664812083E-1,4.923411713E0,-1.001207977E1,3.753893738E0,1.177172215E1
4.764212083E-1,4.883145447E0,-1.015548157E1,3.903432770E0,1.192542254E1
4.863602083E-1,4.455634460E0,-1.031939072E1,4.018393707E0,1.193691716E1
4.962992083E-1,4.119134216E0,-1.083282303E1,4.105662231E0,1.229527486E1
5.062392083E-1,4.252806244E0,-1.160656403E1,3.925586700E0,1.296953817E1
5.161782083E-1,4.853656769E0,-1.211700256E1,3.429518280E0,1.349597461E1
5.261182083E-1,5.457501068E0,-1.235381012E1,2.818788300E0,1.379661226E1
5.360572083E-1,5.636528778E0,-1.232447113E1,1.856589203E0,1.367881460E1
5.459972083E-1,5.355263672E0,-1.195399155E1,8.240364075E-1,1.312462567E1
5.559362083E-1,5.499862976E0,-1.154294632E1,1.158590698E-1,1.278677152E1
5.658752083E-1,6.166426849E0,-1.078342575E1,-2.579136658E-1,1.242471772E1
5.758152083E-1,6.674170990E0,-9.435179443E0,-6.595285034E-1,1.157592966E1
5.857542083E-1,6.207740936E0,-8.259224854E0,-8.276289368E-1,1.036512481E1
5.956942083E-1,6.009553070E0,-7.856113129E0,-6.607260132E-1,9.913112551E0
6.056332083E-1,5.979315948E0,-8.367898865E0,9.934840393E-1,1.033251959E1
6.155722083E-1,5.300477600E0,-9.003926239E0,1.140178986E0,1.051026920E1
6.255122083E-1,5.320236511E0,-8.691675568E0,-1.966909790E-1,1.019258692E1
6.354512083E-1,5.695206757E0,-8.206235046E0,-1.222657471E0,1.006342710E1
6.453912083E-1,6.620732117E0,-8.200846252E0,-1.793121185E0,1.069127011E1
6.553302083E-1,7.283104706E0,-9.001531219E0,-2.177072754E0,1.178180055E1
6.652692083E-1,7.250921631E0,-9.668544159E0,-1.679956512E0,1.220159270E1
6.752092083E-1,7.112010498E0,-9.576784973E0,-1.096769257E0,1.197908204E1
6.851482083E-1,6.716981964E0,-9.363927612E0,2.802172852E-1,1.152733745E1
6.950882083E-1,5.971083069E0,-8.862919464E0,1.295106812E0,1.076487232E1
7.050272083E-1,5.108726349E0,-8.094417572E0,1.886526947E0,9.755904092E0
7.149662083E-1,4.524940338E0,-8.207582245E0,1.508562927E0,9.492905429E0
7.249062083E-1,4.080215149E0,-8.198151855E0,1.486259308E0,9.277220286E0
7.348452083E-1,3.797004089E0,-7.967481537E0,2.096989288E0,9.071679347E0
7.447852083E-1,3.361260223E0,-7.486831055E0,2.056723022E0,8.460544848E0
7.547242083E-1,3.252885590E0,-7.184609528E0,1.801054688E0,8.089726615E0
7.646642083E-1,3.131188660E0,-6.956034851E0,1.540446625E0,7.782270817E0
7.746032083E-1,3.237767029E0,-6.544839935E0,9.922865295E-1,7.369036414E0
7.845422083E-1,3.194806366E0,-6.114634552E0,7.708969116E-1,6.941889186E0
7.944822083E-1,3.264112244E0,-5.865552521E0,1.019230499E0,6.789548286E0
8.044212083E-1,3.377276917E0,-5.723048859E0,1.164727936E0,6.746545692E0
8.143612083E-1,3.543132019E0,-5.635780334E0,1.367705841E0,6.796059428E0
8.243002083E-1,3.688180389E0,-5.738167419E0,1.653012543E0,7.018667280E0
8.342392083E-1,4.007316742E0,-5.866151276E0,1.762434998E0,7.319596668E0
8.441792083E-1,4.370910645E0,-5.899082794E0,1.938917999E0,7.593644756E0
8.541182083E-1,4.573738861E0,-5.951922913E0,2.156116333E0,7.809821456E0
8.640582083E-1,4.702471161E0,-6.253096619E0,2.347119141E0,8.168440524E0
8.739972083E-1,4.838837585E0,-6.616989899E0,2.438429260E0,8.552475768E0
8.839372083E-1,4.950056305E0,-6.931934967E0,2.508782959E0,8.879683088E0
8.938762083E-1,5.035977631E0,-7.209308167E0,2.490371246E0,9.139865638E0
9.038152083E-1,5.034480743E0,-7.450307007E0,2.543361053E0,9.344611083E0
9.137552083E-1,4.888085175E0,-7.670349426E0,2.581681366E0,9.454772111E0
9.236942083E-1,4.693489838E0,-7.846982117E0,2.558479614E0,9.494724490E0
9.336342083E-1,4.562512207E0,-8.160280609E0,2.611619110E0,9.707072248E0
9.435733750E-1,4.580025787E0,-8.550668793E0,2.510429535E0,1.001962222E1
9.535123750E-1,4.742288361E0,-8.922944641E0,2.526296539E0,1.041587318E1
9.634523750E-1,4.742737427E0,-8.939260712E0,2.689756622E0,1.047085150E1
9.733913750E-1,4.790039062E0,-8.904981995E0,2.979553986E0,1.054139082E1
9.833313750E-1,4.993915100E0,-9.051527252E0,3.315006409E0,1.085627013E1
9.932703750E-1,5.112019501E0,-9.161398773E0,3.610342255E0,1.109497824E1
1.003209375E0,5.174888763E0,-9.099128265E0,3.819906464E0,1.114294819E1
1.013149375E0,5.296136627E0,-8.948840790E0,4.000131683E0,1.114144821E1
1.023088375E0,5.420228577E0,-8.901389465E0,4.141737213E0,1.121461544E1
1.033028375E0,5.735173645E0,-8.900191956E0,4.014950867E0,1.132366831E1
1.042967375E0,6.169570312E0,-9.199270020E0,3.641627197E0,1.165982913E1
1.052907375E0,6.638245697E0,-9.751471710E0,3.343297577E0,1.226112332E1
1.062846375E0,6.714886322E0,-1.030876282E1,3.139122162E0,1.269702237E1
1.072785375E0,6.774013367E0,-1.102861588E1,2.527643738E0,1.318736547E1
1.082725375E0,6.831194458E0,-1.140343643E1,1.710493011E0,1.340258805E1
1.092664375E0,6.909331970E0,-1.134715347E1,1.139430542E0,1.333398148E1
1.102604375E0,7.322023773E0,-1.106933121E1,7.632627869E-1,1.329378410E1
1.112543375E0,7.087760925E0,-1.010428802E1,-6.827302551E-1,1.236119379E1
1.122482375E0,6.453829193E0,-9.442514191E0,-2.754122772E0,1.176427549E1
1.132422375E0,5.889951782E0,-9.241931305E0,-2.866089935E0,1.132781081E1
1.142361375E0,5.773344269E0,-8.785680084E0,-1.500030670E0,1.061931121E1
1.152301375E0,5.118456116E0,-8.494535522E0,8.430468750E-1,9.953213289E0
1.162240375E0,3.549119568E0,-8.108188934E0,1.140478363E0,8.924106028E0
1.172180375E0,3.894002380E0,-7.969577179E0,-3.256927185E0,9.449073480E0
1.182119375E0,4.065994720E0,-8.554411011E0,-4.413272552E0,1.044926961E1
1.192058375E0,3.722309418E0,-8.904832306E0,-2.535427551E0,9.978978839E0
1.201998375E0,4.035308533E0,-9.385782166E0,-2.767145691E0,1.058459811E1
1.211937375E0,4.520150299E0,-1.001941452E1,-2.220482483E0,1.121387393E1
1.221877375E0,4.565805359E0,-1.037253021E1,-8.258326721E-1,1.136300846E1
1.231816375E0,4.669539642E0,-1.031025970E1,4.417314148E-1,1.132701118E1
1.241755375E0,4.569397888E0,-9.945917358E0,1.245709534E0,1.101600932E1
1.251695375E0,4.475543060E0,-9.641001434E0,1.624421997E0,1.075258765E1
1.261634375E0,4.592749329E0,-9.777367859E0,1.972747650E0,1.098098365E1
1.271574375E0,4.515659637E0,-1.002255798E1,2.216440887E0,1.121407422E1
1.281513375E0,4.540358276E0,-9.594448242E0,2.022593994E0,1.080551604E1
1.291453375E0,4.699627075E0,-9.083860016E0,1.378483429E0,1.032003992E1
1.301392375E0,4.846172333E0,-8.744216309E0,8.497828674E-1,1.003338607E1
1.311331375E0,4.871918793E0,-8.484955444E0,4.553530884E-1,9.794764318E0
1.321271375E0,4.564308472E0,-8.046367493E0,2.139051819E-1,9.253253324E0
1.331210375E0,4.139192505E0,-7.472011871E0,5.673202515E-2,8.542077881E0
1.341150375E0,3.681893463E0,-7.008425903E0,2.736309814E-1,7.921442232E0
1.351089375E0,3.262166290E0,-6.636898499E0,5.572911072E-1,7.416247297E0
1.361029375E0,2.847678223E0,-6.332431641E0,9.892927551E-1,7.013391612E0
1.370968375E0,2.565664673E0,-5.864055634E0,1.231489105E0,6.518155345E0
1.380907375E0,2.162253571E0,-5.822741547E0,1.791025543E0,6.464319927E0
1.390847375E0,1.835483093E0,-5.724096680E0,2.373913422E0,6.462951796E0
1.400786375E0,1.625170441E0,-5.556445312E0,2.270927582E0,6.218711728E0
1.410726375E0,1.559906158E0,-5.940247192E0,2.390379181E0,6.590429163E0
1.420665375E0,1.946402435E0,-6.544989624E0,2.522404633E0,7.279278587E0
1.430604375E0,2.486479340E0,-6.690636749E0,2.585423584E0,7.591548902E0
1.440544375E0,2.578088837E0,-6.676266632E0,2.426603851E0,7.556949414E0
1.450483375E0,2.739752655E0,-6.764582977E0,2.710713043E0,7.785486027E0
1.460423375E0,3.188669128E0,-6.893165588E0,2.889740753E0,8.126127261E0
1.470362375E0,3.165467377E0,-7.123536530E0,2.490970001E0,8.183513179E0
1.480301375E0,2.845283203E0,-7.445666656E0,2.481539612E0,8.348151131E0
1.490241375E0,2.456691284E0,-7.672145691E0,2.313588867E0,8.381518061E0
1.500180375E0,2.258204041E0,-7.872279510E0,1.936223602E0,8.415535159E0
1.510120375E0,2.439477081E0,-8.123008118E0,1.669328613E0,8.644129067E0
1.520059375E0,2.845283203E0,-8.486152954E0,1.457070007E0,9.068267832E0
1.529999375E0,3.194656677E0,-8.926836548E0,1.444196777E0,9.590617622E0
1.539938375E0,3.579207001E0,-9.576784973E0,1.613494720E0,1.035030910E1
1.549877375E0,4.104165344E0,-9.915979614E0,2.073338470E0,1.093021305E1
1.559817375E0,4.785997467E0,-1.015293686E1,2.616858215E0,1.152544340E1
1.569756375E0,5.267097015E0,-1.081126785E1,3.021466827E0,1.239980183E1
1.579696375E0,5.406457214E0,-1.150582352E1,3.194956055E0,1.310806998E1
1.589635375E0,5.395829315E0,-1.209140579E1,3.021915894E0,1.358120185E1
1.599575375E0,5.811215515E0,-1.290780807E1,2.487527161E0,1.437252679E1
1.609514375E0,6.629713440E0,-1.349728226E1,2.034269714E0,1.517458342E1
1.619453375E0,7.297474823E0,-1.357781479E1,1.595083008E0,1.549691850E1
1.629393375E0,7.314988403E0,-1.299702255E1,8.018824768E-1,1.493568432E1
1.639332375E0,6.617888031E0,-1.233599716E1,1.763333130E-1,1.400015576E1
1.649272375E0,6.036197662E0,-1.179307617E1,-4.055067444E-1,1.325431113E1
1.659211375E0,5.443130951E0,-1.132978958E1,1.517843628E-1,1.257039558E1
1.669151375E0,4.670138397E0,-1.023002655E1,-6.661148071E-2,1.124580246E1
1.679090375E0,3.814068604E0,-9.923613739E0,2.133064270E-1,1.063347209E1
1.689029375E0,3.209026794E0,-9.250313873E0,-3.311114502E-1,9.796723662E0
1.698969375E0,3.353326721E0,-8.613238678E0,-2.073338470E0,9.472666628E0
1.708908375E0,4.059408417E0,-8.306376801E0,-2.418520660E0,9.556355709E0
1.718848375E0,5.108426971E0,-7.989036713E0,-2.460583191E0,9.796693491E0
1.728787375E0,5.946234741E0,-8.006250916E0,-2.079475708E0,1.018734414E1
1.738726375E0,6.165079651E0,-8.200247498E0,-1.267414398E0,1.033724361E1
1.748666375E0,5.826483765E0,-8.265212402E0,-1.742376709E-1,1.011395115E1
1.758605375E0,5.609285431E0,-8.232729950E0,5.466632080E-1,9.977011884E0
1.768545375E0,5.341492310E0,-8.495134277E0,9.638456726E-1,1.008106368E1
1.778484375E0,5.166506195E0,-8.829239502E0,1.326391754E0,1.031540457E1
1.788424375E0,5.183121643E0,-8.967851257E0,1.346150665E0,1.044505758E1
1.798363375E0,5.310656433E0,-8.960965576E0,1.032552795E0,1.046748017E1
1.808302375E0,5.384752350E0,-8.816815338E0,9.830058289E-1,1.037776908E1
1.818242375E0,5.278323669E0,-8.505013733E0,1.113983459E0,1.007158967E1
1.828181375E0,5.130580902E0,-8.379574585E0,8.726852417E-1,9.864162922E0
1.838121375E0,4.800217896E0,-8.310867462E0,4.640350342E-1,9.608742807E0
1.848060375E0,4.415667572E0,-8.058941345E0,2.743794250E-1,9.193472673E0
1.858000375E0,3.915108490E0,-7.824379120E0,2.142045593E-1,8.751849330E0
1.867939375E0,3.473377075E0,-7.516768799E0,1.983375549E-1,8.282843670E0
1.877878375E0,3.380570068E0,-7.325017548E0,3.613485718E-1,8.075562448E0
1.887818375E0,3.369343414E0,-7.533234558E0,6.619235229E-1,8.278903351E0
1.897757375E0,3.295696564E0,-7.745642853E0,5.596861267E-1,8.436222354E0
1.907697375E0,3.102747803E0,-7.945327606E0,7.038363647E-1,8.558659961E0
1.917636375E0,2.867437134E0,-7.987090759E0,1.060544586E0,8.552225987E0
1.927576375E0,2.786006470E0,-7.788753204E0,1.741029510E0,8.453265185E0
1.937514958E0,3.207679596E0,-7.213948517E0,2.108515320E0,8.171664362E0
1.947453958E0,3.475472717E0,-6.630461884E0,2.197879486E0,7.802090081E0
1.957393958E0,3.765868835E0,-5.774092712E0,2.159559174E0,7.223960864E0
1.967332958E0,3.942950592E0,-4.899461517E0,2.225272522E0,6.671088392E0
1.977272958E0,4.026776276E0,-4.117787018E0,2.261197815E0,6.187415669E0
1.987211958E0,4.122127991E0,-3.588936768E0,2.299069061E0,5.929428711E0
1.997150958E0,4.276457062E0,-4.175566864E0,2.781964874E0,6.592630143E0
2.007090958E0,4.568499756E0,-4.469555511E0,3.301833801E0,7.193762780E0
2.017029958E0,4.777016144E0,-4.996908875E0,3.728147278E0,7.854174919E0
2.026969958E0,4.874313812E0,-5.888155518E0,4.280947723E0,8.761040118E0
2.036908958E0,5.073100433E0,-6.981931000E0,4.835694122E0,9.892807798E0
2.046848958E0,5.254672852E0,-7.904761963E0,4.627776489E0,1.055997934E1
2.056787958E0,5.157375183E0,-8.453520813E0,3.618126068E0,1.054283497E1
2.066727958E0,5.402415619E0,-8.863518219E0,2.197430420E0,1.061021914E1
2.076666958E0,5.400769043E0,-9.563163300E0,1.493743744E0,1.108393743E1
2.086605958E0,4.889132996E0,-1.012240036E1,2.307751007E0,1.147572765E1
2.096545958E0,4.430486755E0,-1.002644989E1,3.565435638E0,1.152697886E1
2.106484958E0,4.211043091E0,-9.505982208E0,4.117038574E0,1.118242318E1
2.116424958E0,4.495900726E0,-8.918154602E0,4.269870758E0,1.086178628E1
2.126363958E0,4.999752960E0,-8.606053619E0,3.980372772E0,1.071937759E1
2.136303958E0,5.668861542E0,-8.734486542E0,3.144061890E0,1.087714905E1
2.146242958E0,5.995482330E0,-9.219178619E0,2.366578674E0,1.124898917E1
2.156181958E0,5.892197113E0,-9.808503113E0,1.598825226E0,1.155339613E1
2.166121958E0,5.852080536E0,-1.047895889E1,9.150471497E-1,1.203713992E1
2.176060958E0,5.956563263E0,-1.118084930E1,3.826043701E-1,1.267432141E1
2.186000958E0,6.169121246E0,-1.172451874E1,2.709365845E-2,1.324851428E1
2.195939958E0,5.910758514E0,-1.200323914E1,-4.746629333E-1,1.338805889E1
2.205878958E0,5.302273865E0,-1.164473465E1,-1.359173584E0,1.286706284E1
2.215818958E0,5.178481293E0,-1.095481934E1,-1.572180634E0,1.221869417E1
2.225757958E0,5.987548828E0,-1.025637177E1,-3.986210632E-1,1.188287850E1
2.235697958E0,6.192322998E0,-9.388775940E0,3.724405060E0,1.184758080E1
2.245636958E0,5.653742981E0,-8.912466431E0,4.775668945E0,1.158463989E1
2.255576958E0,6.323899384E0,-9.348958740E0,-2.936892700E0,1.166276432E1
2.265515958E0,5.700146484E0,-9.941426697E0,-2.913241882E0,1.182415380E1
2.275454958E0,5.226231995E0,-1.031684601E1,-2.165247345E0,1.176601498E1
2.285394958E0,5.235961761E0,-1.088476501E1,-2.512076111E0,1.233709574E1
2.295333958E0,5.247038727E0,-1.125539429E1,-1.562301178E0,1.251623350E1
2.305273958E0,5.175786896E0,-1.141092087E1,-4.245172119E-1,1.253706903E1
2.315212958E0,4.699477386E0,-1.074271042E1,8.440946960E-1,1.175599467E1
2.325152958E0,4.264332275E0,-9.542655945E0,1.573677521E0,1.056992304E1
2.335091958E0,4.040996704E0,-8.623417511E0,1.915865936E0,9.714089058E0
2.345030958E0,3.847748566E0,-8.070617065E0,1.509311371E0,9.067416923E0
2.354970958E0,3.557352448E0,-7.768545227E0,1.370699615E0,8.653546603E0
2.364909958E0,3.543431396E0,-7.391329651E0,1.441352692E0,8.322569174E0
2.374849958E0,3.669469299E0,-6.852450256E0,1.145867157E0,7.857104492E0
2.384788958E0,3.622616730E0,-6.535110168E0,8.234376526E-1,7.517251256E0
2.394728958E0,3.320095825E0,-6.316115570E0,9.656419373E-1,7.200612233E0
2.404667958E0,2.838547211E0,-6.174959106E0,9.445358276E-1,6.861458895E0
2.414606958E0,2.551294556E0,-6.305038605E0,9.854008484E-1,6.872672737E0
2.424546958E0,2.274969177E0,-6.466852112E0,1.158291321E0,6.952503130E0
2.434485958E0,2.165995789E0,-6.541696472E0,1.463955688E0,7.044749587E0
2.444425958E0,2.061063995E0,-6.870861969E0,1.706301727E0,7.373479136E0
2.454364958E0,2.221530304E0,-7.043902130E0,1.751507721E0,7.590753151E0
2.464304958E0,2.127825165E0,-7.035818939E0,1.851200409E0,7.580061413E0
2.474243958E0,2.305505676E0,-7.210954742E0,2.076332245E0,7.850119764E0
2.484183958E0,2.460433502E0,-7.326215057E0,2.242636414E0,8.047147207E0
2.494122958E0,2.740650787E0,-7.322772217E0,2.408491516E0,8.181380755E0
2.504061958E0,2.902314606E0,-7.450756073E0,2.560874634E0,8.396146439E0
2.514001958E0,2.984793091E0,-7.721542969E0,2.538421326E0,8.658798903E0
2.523940958E0,3.032094727E0,-7.876919861E0,2.438429260E0,8.785522306E0
2.533880958E0,3.004851379E0,-8.024812317E0,2.396965485E0,8.897875481E0
2.543819958E0,2.972518616E0,-8.121511230E0,2.302212524E0,8.949580666E0
2.553759958E0,2.874472504E0,-8.142317963E0,2.410736847E0,8.965020141E0
2.563698958E0,2.856210480E0,-8.179141388E0,2.654280396E0,9.060987615E0
2.573637958E0,2.925666046E0,-8.194559326E0,2.638114014E0,9.092302784E0
2.583577958E0,3.186124420E0,-8.281678162E0,2.229314117E0,9.149176106E0
2.593516958E0,3.581602020E0,-8.443192291E0,2.063608704E0,9.400736672E0
2.603456958E0,3.874991913E0,-8.687184906E0,2.190844116E0,9.761277675E0
2.613395958E0,3.836671600E0,-9.066196747E0,2.520608368E0,1.016215720E1
2.623335958E0,3.746858368E0,-9.559720459E0,2.836152191E0,1.065227497E1
2.633274958E0,3.821852417E0,-9.933044128E0,3.170706482E0,1.110519253E1
2.643213958E0,4.006867676E0,-1.006432114E1,3.242407379E0,1.130746453E1
2.653153958E0,4.000880127E0,-1.013153137E1,3.127596130E0,1.133299728E1
2.663092958E0,4.037104797E0,-1.076486435E1,2.856360168E0,1.184648948E1
2.673032958E0,4.761298828E0,-1.181732574E1,2.552941132E0,1.299371628E1
2.682971958E0,5.796995087E0,-1.262100449E1,2.234104156E0,1.406720042E1
2.692911958E0,6.518494720E0,-1.296004944E1,1.520837402E0,1.458652122E1
2.702850958E0,6.533762970E0,-1.273252258E1,8.231382751E-1,1.433473915E1
2.712789958E0,6.120921478E0,-1.192001221E1,3.963757324E-1,1.340557662E1
2.722729958E0,5.526357880E0,-1.141870468E1,5.905220032E-1,1.269945527E1
2.732668958E0,4.952451324E0,-1.055080948E1,7.518864441E-1,1.167954143E1
2.742608958E0,4.762047272E0,-9.962682495E0,-1.615740051E0,1.115987243E1
2.752547958E0,4.225113831E0,-1.002270767E1,-1.686243439E0,1.100680121E1
2.762487958E0,3.896098022E0,-1.020532791E1,-9.473799133E-1,1.096475382E1
2.772426958E0,4.319717102E0,-1.019365219E1,-1.341210938E0,1.115210059E1
2.782366958E0,5.437442780E0,-9.612710266E0,-1.265618134E0,1.111628409E1
2.792305958E0,6.380332031E0,-9.112600250E0,-1.264420624E0,1.119584207E1
2.802244958E0,6.750811615E0,-9.066047058E0,-7.967930603E-1,1.133144059E1
2.812184958E0,6.706354065E0,-9.209299164E0,-4.983137512E-1,1.140327552E1
2.822123958E0,6.368057556E0,-8.946894836E0,8.472381592E-2,1.098208825E1
2.832063958E0,5.984105988E0,-8.752000122E0,4.656816101E-1,1.061244034E1
2.842002958E0,5.543123016E0,-8.685688019E0,8.819659424E-1,1.034143380E1
2.851942958E0,5.104385376E0,-8.558153229E0,1.031055908E0,1.001797450E1
2.861881958E0,4.803061981E0,-8.409811707E0,9.871971130E-1,9.734931714E0
2.871820958E0,4.531077576E0,-8.039631500E0,8.910969543E-1,9.271482753E0
2.881760958E0,4.240382080E0,-7.775281219E0,1.225950623E0,8.940849689E0
2.891699958E0,4.088597717E0,-7.511080627E0,1.664688263E0,8.712298807E0
2.901639958E0,3.944746857E0,-7.170987854E0,1.644929352E0,8.348046906E0
2.911578958E0,3.793561249E0,-7.004533997E0,1.298699341E0,8.071011302E0
2.921518958E0,3.569926300E0,-6.836882629E0,8.340655518E-1,7.757770506E0
2.931457958E0,3.403322754E0,-6.715934143E0,5.921685791E-1,7.552287124E0
2.941397458E0,3.471431122E0,-6.533463593E0,4.635859680E-1,7.412954370E0
2.951337458E0,3.567830658E0,-6.305637360E0,4.381388855E-1,7.258267272E0
2.961276458E0,3.535048828E0,-6.177354126E0,7.464976501E-1,7.156363110E0
2.971216458E0,3.605402527E0,-6.142476654E0,1.106798401E0,7.207908818E0
2.981155458E0,3.627855835E0,-6.127358093E0,1.450633392E0,7.267062158E0
2.991095458E0,3.570674744E0,-6.090384979E0,1.789678345E0,7.283231144E0
3.001034458E0,3.547173615E0,-6.112089844E0,2.174827423E0,7.393913526E0
3.010974458E0,3.375181274E0,-6.244564362E0,2.535726929E0,7.537661690E0
3.020913458E0,3.277434540E0,-6.494544525E0,2.723735962E0,7.767845476E0
3.030852458E0,3.225642242E0,-6.677913208E0,2.677332458E0,7.884630732E0
3.040792458E0,3.209775238E0,-6.845863953E0,2.489173737E0,7.960181922E0
3.050731458E0,3.360212402E0,-7.059918823E0,2.285447388E0,8.145965317E0
3.060671458E0,3.582799530E0,-7.146738281E0,2.176773376E0,8.285569556E0
3.070610458E0,3.917653198E0,-7.216642914E0,2.060764618E0,8.466090735E0
3.080550458E0,4.311783600E0,-7.374265137E0,2.052082672E0,8.785346175E0
3.090489458E0,4.690795441E0,-7.554340668E0,2.004182281E0,9.115282300E0
3.100428458E0,4.961881714E0,-7.903265076E0,1.943708038E0,9.532044373E0
3.110368458E0,5.138364716E0,-8.385562134E0,1.977537689E0,1.003150535E1
3.120307458E0,5.113666077E0,-8.910071411E0,2.095642090E0,1.048478274E1
3.130247458E0,4.789589996E0,-9.413474579E0,2.334844666E0,1.081689307E1
3.140186458E0,4.342020721E0,-9.885293427E0,2.683918762E0,1.112544786E1
3.150126458E0,3.861519928E0,-1.025382706E1,2.999462585E0,1.135997717E1
3.160065458E0,3.565435638E0,-1.034184402E1,3.265758820E0,1.141627127E1
3.170005458E0,3.796105957E0,-1.008467880E1,3.530707855E0,1.133918273E1
3.179944458E0,4.598138123E0,-1.015069153E1,3.452420654E0,1.166613137E1
3.189883458E0,5.601202240E0,-1.058523788E1,3.216660919E0,1.240030786E1
3.199823458E0,5.856421509E0,-1.109537704E1,2.801574097E0,1.285511113E1
3.209762458E0,5.648503876E0,-1.180310532E1,2.584525452E0,1.333786576E1
3.219702458E0,5.504653015E0,-1.218481155E1,2.445015564E0,1.359223817E1
3.229641458E0,5.555098114E0,-1.178813644E1,2.210153961E0,1.321756621E1
3.239581458E0,5.861361237E0,-1.111199249E1,1.573228455E0,1.266123929E1
3.249520458E0,6.371350708E0,-1.072070618E1,4.549040222E-1,1.247936651E1
3.259459458E0,6.468348999E0,-1.047237259E1,-4.758604431E-1,1.231813986E1
3.269399458E0,6.131399689E0,-1.025128235E1,-7.894583130E-1,1.197105243E1
3.279338458E0,5.605094147E0,-1.043016037E1,-1.496887207E0,1.193507424E1
3.289278458E0,5.108576660E0,-1.068493057E1,-2.395618286E0,1.208322324E1
3.299217458E0,4.682412872E0,-1.097906891E1,-2.348316650E0,1.216468395E1
3.309157458E0,4.351900177E0,-1.127350662E1,-1.934577026E0,1.223820146E1
3.319096458E0,4.117936707E0,-1.120030884E1,-1.739981689E0,1.205951314E1
3.329036458E0,4.109254761E0,-1.080947159E1,-1.750609589E0,1.169595163E1
3.338975458E0,4.602030029E0,-1.009560608E1,-1.500479736E0,1.119604314E1
3.348914458E0,5.051994324E0,-9.742490387E0,-1.694925385E0,1.110457283E1
3.358854458E0,5.028642883E0,-8.963809662E0,-8.699908447E-1,1.031474755E1
3.368793458E0,4.826413422E0,-8.309669952E0,2.348616028E-1,9.612494016E0
3.378733458E0,4.584217072E0,-7.738158417E0,6.505471802E-1,9.017613513E0
3.388672458E0,4.464017029E0,-7.412735138E0,7.797285461E-1,8.688156701E0
3.398612458E0,4.380341034E0,-7.456144867E0,7.614665222E-1,8.681089512E0
3.408551458E0,4.104913788E0,-7.441774750E0,7.691006470E-1,8.533571611E0
3.418491458E0,3.882476349E0,-7.310198364E0,9.674382019E-1,8.333580227E0
3.428430458E0,3.513793030E0,-7.263196106E0,1.174008636E0,8.153468919E0
3.438369458E0,3.190016327E0,-7.258555756E0,1.014440460E0,7.993242475E0
3.448309458E0,3.071313171E0,-7.157216492E0,8.318202209E-1,7.832664769E0
3.458248458E0,2.915786591E0,-7.116052094E0,7.319778442E-1,7.725011353E0
3.468188458E0,2.737657013E0,-7.087162170E0,8.440946960E-1,7.644287371E0
3.478127458E0,2.612068176E0,-7.131769409E0,1.054407349E0,7.667907793E0
3.488067458E0,2.633323975E0,-7.062613220E0,1.328487396E0,7.653742837E0
3.498006458E0,2.521805878E0,-7.007228394E0,1.511706390E0,7.599079606E0
3.507945458E0,2.559976501E0,-7.004533997E0,1.842518463E0,7.681917110E0
3.517885458E0,2.554737396E0,-7.011419678E0,2.061962128E0,7.741987915E0
3.527824458E0,2.529889069E0,-7.067103882E0,2.213147736E0,7.825747177E0
3.537764458E0,2.593357086E0,-7.224426727E0,2.350711670E0,8.027682596E0
3.547703458E0,2.731819153E0,-7.311844940E0,2.349663849E0,8.151492656E0
3.557643458E0,2.847528534E0,-7.388784943E0,2.365231476E0,8.264192738E0
3.567582458E0,2.923121338E0,-7.526199188E0,2.328258362E0,8.402922086E0
3.577522458E0,3.029699707E0,-7.550748138E0,2.322869568E0,8.461004715E0
3.587461458E0,3.111729126E0,-7.683971100E0,2.312840424E0,8.606712546E0
3.597400458E0,3.130140839E0,-7.878416748E0,2.201921082E0,8.758749259E0
3.607340458E0,3.038381653E0,-7.967182159E0,2.134710846E0,8.790036691E0
3.617279458E0,2.919079742E0,-8.050259399E0,2.060914307E0,8.807671129E0
3.627219458E0,2.783461761E0,-8.275989990E0,1.953437805E0,8.947378887E0
3.637158458E0,2.814597015E0,-8.535101166E0,1.881587219E0,9.182062880E0
3.647098458E0,2.942281494E0,-8.810977478E0,1.965712280E0,9.494965470E0
3.657037458E0,3.096161499E0,-9.119186554E0,2.130369873E0,9.863278118E0
3.666977458E0,3.289110260E0,-9.298214264E0,2.245779877E0,1.011526382E1
3.676916458E0,3.487447815E0,-9.476493530E0,2.512674866E0,1.040575595E1
3.686855458E0,3.773353271E0,-9.626032562E0,2.803669739E0,1.071257494E1
3.696795458E0,3.947441254E0,-9.738748169E0,3.121458893E0,1.096216283E1
3.706734458E0,3.907025299E0,-9.867031403E0,3.478765869E0,1.116803328E1
3.716674458E0,3.593128052E0,-1.008512787E1,3.631598053E0,1.130525885E1
3.726613458E0,3.439697113E0,-1.065843567E1,3.309318237E0,1.167841403E1
3.736553458E0,3.819457397E0,-1.167018173E1,2.584675140E0,1.254838404E1
3.746492458E0,4.616100769E0,-1.283835251E1,1.970652008E0,1.378459832E1
3.756431458E0,5.487139435E0,-1.344504089E1,1.488354950E0,1.459770613E1
3.766371458E0,5.849685516E0,-1.317605026E1,1.065184937E0,1.445550899E1
3.776310458E0,5.892197113E0,-1.218002151E1,7.020401001E-1,1.354857082E1
3.786250458E0,6.148763580E0,-1.122575592E1,6.140231323E-1,1.281412947E1
3.796189458E0,6.607559509E0,-1.011087433E1,6.478527832E-1,1.209583960E1
3.806129458E0,6.537056122E0,-9.332942047E0,2.758763123E-1,1.139793919E1
3.816068458E0,6.186784515E0,-9.010662231E0,-6.933581543E-1,1.095212683E1
3.826008458E0,5.074896698E0,-9.250164185E0,-4.722679138E-1,1.056139910E1
3.835947458E0,4.388723602E0,-9.356592865E0,-1.200802917E0,1.040426127E1
3.845886458E0,4.920417938E0,-8.994795227E0,-2.167492676E0,1.047925944E1
3.855826458E0,5.814209290E0,-9.000333710E0,-2.150577850E0,1.092867886E1
3.865765458E0,6.076763306E0,-9.430988159E0,-1.897903290E0,1.137860391E1
3.875705458E0,6.178851013E0,-9.593550110E0,-1.253643036E0,1.147980942E1
3.885644458E0,6.051615601E0,-9.647587738E0,-5.541476440E-1,1.140197703E1
3.895584458E0,5.681285706E0,-9.647138672E0,1.936972046E-1,1.119740195E1
3.905523458E0,5.397775269E0,-9.539213104E0,9.783654785E-1,1.100407940E1
3.915463458E0,4.936284943E0,-9.241781616E0,1.211879883E0,1.054732617E1
3.925402458E0,4.697232056E0,-9.067094879E0,1.015637970E0,1.026195493E1
3.935341458E0,4.509223022E0,-8.511450348E0,8.896000671E-1,9.673120881E0
3.945281625E0,4.262236633E0,-7.971223755E0,9.098080444E-1,9.084867635E0
3.955220625E0,4.014052734E0,-7.764353943E0,9.038204956E-1,8.787189710E0
3.965160625E0,3.695365448E0,-7.432643738E0,8.387059021E-1,8.342861998E0
3.975099625E0,3.515888672E0,-7.110214233E0,7.623646545E-1,7.968551905E0
3.985039625E0,3.549418945E0,-6.693031769E0,6.349795532E-1,7.602515909E0
3.994978625E0,3.473975830E0,-6.470744019E0,6.906637573E-1,7.376723707E0
4.004918625E0,3.422632599E0,-6.292614441E0,8.116122437E-1,7.209030784E0
4.014857625E0,3.443738708E0,-6.202202454E0,7.376660156E-1,7.132377074E0
4.024796625E0,3.376079407E0,-6.199657745E0,9.138496399E-1,7.118201282E0
4.034736625E0,3.390150146E0,-6.204597473E0,9.351054382E-1,7.131940129E0
4.044675625E0,3.492537231E0,-6.108796692E0,1.144669647E0,7.129199249E0
4.054615625E0,3.365152130E0,-6.317612457E0,1.539099426E0,7.321564250E0
4.064554625E0,3.529959412E0,-6.297254791E0,1.745819550E0,7.427241564E0
4.074494625E0,3.521127777E0,-6.395151215E0,1.947749634E0,7.555794367E0
4.084433625E0,3.547023926E0,-6.401288452E0,2.229912872E0,7.650515276E0
4.094373625E0,3.550915833E0,-6.497987366E0,2.334245911E0,7.764119205E0
4.104312625E0,3.476370850E0,-6.762936401E0,2.436932373E0,7.985054943E0
4.114252625E0,3.626658325E0,-6.836134186E0,2.322869568E0,8.079672286E0
4.124191625E0,3.702251129E0,-7.060667267E0,2.106120300E0,8.245934052E0
4.134130625E0,3.842359772E0,-7.325167236E0,1.853745117E0,8.476920114E0
4.144070625E0,4.082310791E0,-7.546407166E0,1.625619507E0,8.732477385E0
4.154009625E0,4.380191345E0,-7.793842621E0,1.650467834E0,9.091430201E0
4.163949625E0,4.720433807E0,-8.109386444E0,1.882335663E0,9.570153153E0
4.173888625E0,4.939278717E0,-8.581205292E0,2.141297150E0,1.013008944E1
4.183828625E0,4.996459808E0,-9.003327484E0,2.405647430E0,1.057410308E1
4.193767625E0,4.921765137E0,-9.349108429E0,2.786605225E0,1.092679135E1
4.203707625E0,4.665348358E0,-9.705217896E0,3.191064148E0,1.123118961E1
4.213646625E0,4.304448853E0,-1.004890320E1,3.727847900E0,1.155013357E1
4.223585625E0,4.044888611E0,-1.004037094E1,4.136498108E0,1.158795880E1
4.233525625E0,4.097279663E0,-9.889185333E0,4.224515076E0,1.150783276E1
4.243464625E0,4.351301422E0,-9.739047546E0,4.169279938E0,1.145276239E1
4.253404625E0,4.734953613E0,-9.593999176E0,3.978875885E0,1.141472992E1
4.263343625E0,5.272485809E0,-9.917476501E0,3.482657776E0,1.175943672E1
4.273283625E0,5.811215515E0,-1.067789520E1,2.774330750E0,1.246934573E1
4.283222625E0,6.023025055E0,-1.165790726E1,1.899699554E0,1.325867606E1
4.293162625E0,5.906267853E0,-1.283520905E1,9.559121704E-1,1.416122732E1
4.303101625E0,5.437592468E0,-1.331406326E1,5.798941040E-1,1.439333073E1
4.313040625E0,5.031936035E0,-1.278790741E1,3.838018799E-1,1.374766380E1
4.322980625E0,4.398153992E0,-1.185519699E1,-1.035845947E-1,1.264516445E1
4.332919625E0,3.767515411E0,-1.129057114E1,-3.394940186E-1,1.190741051E1
4.342859625E0,4.183650055E0,-1.053030212E1,-2.404000854E-1,1.133348944E1
4.352798625E0,5.046006775E0,-9.517508240E0,-6.646179199E-2,1.077263035E1
4.362738625E0,5.197342072E0,-9.034911804E0,-6.908134460E-1,1.044601451E1
4.372677625E0,5.042863312E0,-8.272247772E0,-1.456620941E0,9.797055586E0
4.382617625E0,5.384153595E0,-8.525521088E0,-1.167272644E0,1.015067215E1
4.392556625E0,5.515430603E0,-9.036408691E0,-1.016536102E0,1.063531863E1
4.402495625E0,5.332361298E0,-9.499695282E0,-9.704319763E-1,1.093709402E1
4.412435625E0,5.263953552E0,-9.769584045E0,-8.060737610E-1,1.112671265E1
4.422374625E0,4.801265717E0,-9.950258331E0,-2.457888794E-1,1.105080113E1
4.432314625E0,4.281995544E0,-9.768386536E0,5.489085388E-1,1.067980159E1
4.442253625E0,3.957171021E0,-9.473948822E0,9.446855164E-1,1.031054506E1
4.452193625E0,3.752546539E0,-9.259444885E0,1.168320465E0,1.005902072E1
4.462132625E0,3.650458832E0,-8.825646973E0,1.166673889E0,9.621799319E0
4.472072625E0,3.688330078E0,-8.267757111E0,1.191821594E0,9.131266348E0
4.482011625E0,3.503015442E0,-7.987839203E0,1.149759064E0,8.797649585E0
4.491950625E0,3.357368317E0,-7.720644836E0,1.004860382E0,8.478798446E0
4.501890625E0,3.312761078E0,-7.476203156E0,9.041198730E-1,8.227115675E0
4.511829625E0,3.121309204E0,-7.326215057E0,1.025367737E0,8.029157939E0
4.521769625E0,2.878514099E0,-7.182813263E0,1.089883575E0,7.814505486E0
4.531708625E0,2.655178528E0,-7.149881744E0,1.174457703E0,7.716873257E0
4.541648625E0,2.439477081E0,-7.080725555E0,1.284029846E0,7.598450860E0
4.551587625E0,2.271376648E0,-7.000193024E0,1.550625458E0,7.521056678E0
4.561527625E0,2.230811005E0,-7.053931274E0,1.758992157E0,7.604506399E0
4.571466625E0,2.330803070E0,-7.085066528E0,1.893262939E0,7.695144912E0
4.581406625E0,2.362537079E0,-7.009623413E0,2.097588043E0,7.688711039E0
4.591345625E0,2.433190155E0,-7.069798279E0,2.409539337E0,7.855465731E0
4.601284625E0,2.451152802E0,-7.160509644E0,2.652933197E0,8.019919137E0
4.611224625E0,2.390379181E0,-7.283703461E0,2.788850555E0,8.157446669E0
4.621163625E0,2.337838440E0,-7.478897552E0,2.818638611E0,8.327311739E0
4.631103625E0,2.351460114E0,-7.628436584E0,2.625839539E0,8.403418511E0
4.641042625E0,2.346071320E0,-7.790250092E0,2.296224976E0,8.453679451E0
4.650982625E0,2.470163269E0,-7.773185577E0,2.153721313E0,8.435794929E0
4.660921625E0,2.451152802E0,-7.716902618E0,2.231559448E0,8.398725716E0
4.670861625E0,2.318079529E0,-7.684569855E0,2.484832764E0,8.402410393E0
4.680800625E0,2.278711395E0,-7.614814911E0,2.644700317E0,8.376895100E0
4.690739625E0,2.279759216E0,-7.748486938E0,2.642155609E0,8.498078499E0
4.700679625E0,2.466870117E0,-7.976163483E0,2.444865875E0,8.699540288E0
4.710618625E0,2.871927795E0,-8.307723999E0,2.235601044E0,9.069959169E0
4.720558625E0,3.447480927E0,-8.695866852E0,2.042652283E0,9.574740382E0
4.730497625E0,3.681145020E0,-9.035061493E0,1.940714264E0,9.947338171E0
4.740437625E0,3.743714905E0,-9.426647186E0,2.158661041E0,1.036999980E1
4.750376625E0,3.945644989E0,-9.671238556E0,2.592458954E0,1.076205431E1
4.760316625E0,4.036206665E0,-9.815089417E0,3.223247223E0,1.109126986E1
4.770255625E0,3.525019684E0,-1.021655457E1,3.557352448E0,1.137798345E1
4.780195625E0,2.965782623E0,-1.093955109E1,3.190016327E0,1.177479718E1
4.790134625E0,3.463946686E0,-1.178140045E1,2.068997498E0,1.245315518E1
4.800073625E0,4.763095093E0,-1.243344452E1,1.224603424E0,1.337076180E1
4.810013625E0,6.027216339E0,-1.282547928E1,9.053173828E-1,1.419999490E1
4.819952625E0,6.715036011E0,-1.211101501E1,3.550616455E-1,1.385259767E1
4.829892625E0,6.962621155E0,-1.102981339E1,2.472857666E-1,1.304591993E1
4.839831625E0,6.791227570E0,-1.086276077E1,8.226892090E-1,1.283733465E1
4.849771625E0,6.734495544E0,-1.121767273E1,1.308429108E0,1.314920524E1
4.859710625E0,6.133345642E0,-1.088910599E1,1.179996185E0,1.255320473E1
4.869650625E0,5.420527954E0,-1.073807007E1,5.906716919E-1,1.204313768E1
4.879589625E0,5.363795929E0,-1.077324692E1,-8.424481201E-1,1.206411517E1
4.889528625E0,5.608836365E0,-1.046309189E1,-1.523082733E0,1.196892302E1
4.899468625E0,5.881120148E0,-1.030352371E1,-1.845661926E0,1.200652502E1
4.909407625E0,6.092779999E0,-1.029214737E1,-1.216969299E0,1.202211628E1
4.919347625E0,5.973029022E0,-9.927655334E0,-1.769320679E-1,1.158735177E1
4.929286625E0,5.346282349E0,-9.393116913E0,5.551954651E-1,1.082227436E1
4.939226000E0,4.884492645E0,-9.141041107E0,1.056652679E0,1.041793721E1
4.949165000E0,4.628375244E0,-9.075776825E0,1.238524475E0,1.026282248E1
4.959105000E0,4.428690491E0,-8.979826355E0,1.485211487E0,1.012207657E1
4.969044000E0,4.317920837E0,-8.648415527E0,1.566193085E0,9.792471203E0
4.978983000E0,4.100722504E0,-8.125103760E0,1.725012817E0,9.263309634E0
4.988923000E0,3.818708954E0,-7.832162933E0,1.401535492E0,8.825509392E0
4.998862000E0,3.519181824E0,-7.453899536E0,9.824070740E-1,8.301227780E0
5.008802000E0,3.441792755E0,-7.158863068E0,6.911128235E-1,7.973261235E0
5.018741000E0,3.180585938E0,-6.843618622E0,5.851332092E-1,7.569255156E0
5.028681000E0,3.032693481E0,-6.620283051E0,5.433700562E-1,7.302097537E0
5.038620000E0,3.050506439E0,-6.303541718E0,6.824308777E-1,7.036045738E0
5.048560000E0,3.110681305E0,-6.037993927E0,9.577084351E-1,6.859366902E0
5.058499000E0,3.150498505E0,-5.868995361E0,1.053658905E0,6.743956144E0
5.068439000E0,3.028352509E0,-5.730832672E0,1.283281403E0,6.607584520E0
5.078378000E0,3.016826477E0,-5.869294739E0,1.493444366E0,6.766109576E0
5.088317000E0,3.021466827E0,-5.897885284E0,1.713486786E0,6.844731520E0
5.098257000E0,2.951861572E0,-6.024971008E0,1.947300568E0,6.986110641E0
5.108196000E0,2.811752930E0,-6.269263000E0,2.104174347E0,7.185900277E0
5.118136000E0,2.888543243E0,-6.425238647E0,2.190694427E0,7.377432875E0
5.128075000E0,2.990481262E0,-6.586603088E0,2.268382874E0,7.581020992E0
5.138015000E0,3.177292786E0,-6.777755585E0,2.290536804E0,7.828136372E0
5.147954000E0,3.472778320E0,-6.906936951E0,2.098037109E0,8.010476079E0
5.157894000E0,3.854185181E0,-6.968608704E0,1.877695312E0,8.181808502E0
5.167833000E0,4.322561188E0,-6.991361389E0,1.675465851E0,8.388733821E0
5.177773000E0,4.649331665E0,-7.048841858E0,1.608704681E0,8.595951793E0
5.187712000E0,4.806804199E0,-7.198680267E0,1.649569702E0,8.811778731E0
5.197651000E0,4.902305603E0,-7.533084869E0,1.865570526E0,9.179342093E0
5.207591000E0,4.915927277E0,-8.166717224E0,2.133363647E0,9.767950228E0
5.217530000E0,4.796775055E0,-8.913514252E0,2.490970001E0,1.042423708E1
5.227470000E0,4.678520966E0,-9.454788666E0,2.778671722E0,1.090883145E1
5.237409000E0,4.355193329E0,-9.880204010E0,3.203488312E0,1.126270294E1
5.247349000E0,4.033212891E0,-1.007764343E1,3.697610779E0,1.146725899E1
5.257288000E0,3.915856934E0,-1.012868729E1,4.052073669E0,1.159066619E1
5.267228000E0,3.920646973E0,-9.973160706E0,4.182452545E0,1.150340456E1
5.277167000E0,3.832630005E0,-9.772128754E0,4.066892853E0,1.125713865E1
5.287106000E0,4.228406982E0,-9.250014496E0,3.862567749E0,1.087941282E1
5.297046000E0,4.817881165E0,-9.082213440E0,3.728147278E0,1.093607160E1
5.306985000E0,5.455704803E0,-9.577683105E0,3.395538940E0,1.153370770E1
5.316925000E0,5.877377930E0,-1.026550278E1,2.842888184E0,1.216577707E1
5.326864000E0,6.148464203E0,-1.103235809E1,2.092498627E0,1.280215168E1
5.336804000E0,6.325246582E0,-1.170401138E1,1.190474396E0,1.335701524E1
5.346743000E0,6.212680664E0,-1.179382462E1,3.155438232E-1,1.333383921E1
5.356683000E0,6.109844513E0,-1.141346558E1,1.685494995E-1,1.294703848E1
5.366622000E0,5.861361237E0,-1.133383118E1,8.187973022E-2,1.276001524E1
5.376562000E0,4.804259491E0,-1.121497833E1,-1.207987976E-1,1.220128029E1
5.386501000E0,4.389172668E0,-1.076965439E1,2.972817993E-1,1.163351490E1
5.396440000E0,4.742737427E0,-1.021356079E1,6.048921204E-1,1.127724598E1
5.406380000E0,4.948260040E0,-9.725725250E0,-2.869532776E-1,1.091592191E1
5.416319000E0,4.876858521E0,-9.647438049E0,-1.216071167E0,1.087821856E1
5.426259000E0,5.185816040E0,-9.516310730E0,-1.481768646E0,1.093839551E1
5.436198000E0,5.639672241E0,-9.488618317E0,-9.669891357E-1,1.108038125E1
5.446138000E0,5.481451263E0,-9.590706024E0,-9.160949707E-1,1.108454690E1
5.456077000E0,5.494623871E0,-9.584718475E0,-8.439450073E-1,1.108016078E1
5.466017000E0,5.175038452E0,-9.836345215E0,-3.508703613E-1,1.112015378E1
5.475956000E0,4.539160767E0,-9.924062805E0,5.640270996E-1,1.092744845E1
5.485896000E0,4.246968384E0,-9.785301361E0,9.879455566E-1,1.071283807E1
5.495835000E0,4.041894836E0,-9.524094543E0,1.271755371E0,1.042413797E1
5.505774000E0,3.883973236E0,-9.032516785E0,1.403481445E0,9.931836070E0
5.515714000E0,3.628005524E0,-8.706045685E0,1.552421722E0,9.558643667E0
5.525653000E0,3.412753143E0,-8.287665710E0,1.541344757E0,9.094395560E0
5.535593000E0,3.257675629E0,-8.013136597E0,1.562001801E0,8.789917988E0
5.545532000E0,3.167413330E0,-7.760611725E0,1.460213470E0,8.508338553E0
5.555472000E0,3.035387878E0,-7.510332184E0,1.341510315E0,8.210865911E0
5.565411000E0,2.859952698E0,-7.229216766E0,1.264121246E0,7.876478084E0
5.575351000E0,2.703378296E0,-7.179819489E0,1.274898834E0,7.777109305E0
5.585290000E0,2.621049500E0,-7.165898438E0,1.429227905E0,7.762904952E0
5.595229000E0,2.481988678E0,-7.013814697E0,1.557660828E0,7.601326967E0
5.605169000E0,2.477048950E0,-6.890171814E0,1.666484528E0,7.509155066E0
5.615108000E0,2.522704010E0,-6.751709747E0,1.926793213E0,7.460707213E0
5.625048000E0,2.417921906E0,-6.746021576E0,2.134710846E0,7.477442333E0
5.634987000E0,2.333048401E0,-6.815177765E0,2.268233185E0,7.552128481E0
5.644927000E0,2.229763184E0,-6.916217651E0,2.370470581E0,7.643627492E0
5.654866000E0,2.249671783E0,-7.029382324E0,2.388433228E0,7.757438513E0
5.664806000E0,2.190993805E0,-7.259753265E0,2.266736298E0,7.914705602E0
5.674745000E0,2.215393066E0,-7.437733154E0,2.120490417E0,8.045142666E0
5.684685000E0,2.351909180E0,-7.652386780E0,1.992955627E0,8.249992264E0
5.694624000E0,2.242337036E0,-7.932753754E0,1.845512238E0,8.447637120E0
5.704564000E0,2.305355988E0,-8.118667145E0,1.671873322E0,8.603637768E0
5.714503000E0,2.286644897E0,-8.250093842E0,1.597478027E0,8.708887950E0
5.724442000E0,2.331401825E0,-8.412057037E0,1.656006317E0,8.884846368E0
5.734382000E0,2.439177704E0,-8.676706696E0,1.799408112E0,9.190902921E0
5.744321000E0,2.550546112E0,-8.913065186E0,2.095941467E0,9.504787589E0
5.754261000E0,2.684667206E0,-9.134903870E0,2.374063110E0,9.812751009E0
5.764200000E0,3.053051147E0,-9.220226440E0,2.796185303E0,1.010704453E1
5.774140000E0,3.329226837E0,-9.276808777E0,3.220103760E0,1.036879938E1
5.784079000E0,3.478915558E0,-9.439370728E0,3.611539764E0,1.068867591E1
5.794019000E0,3.772006073E0,-9.554331665E0,3.976480865E0,1.101479385E1
5.803958000E0,4.011208649E0,-9.416468353E0,4.239933014E0,1.107865980E1
5.813897000E0,3.695515137E0,-9.634265442E0,4.213138733E0,1.114569158E1
5.823837000E0,3.193459167E0,-1.009590546E1,4.057612152E0,1.133974007E1
5.833776000E0,2.917133789E0,-1.060918808E1,3.655847626E0,1.159438498E1
5.843716000E0,3.330873413E0,-1.132035919E1,3.126248932E0,1.220732085E1
5.853655000E0,4.075125732E0,-1.186298080E1,2.632874908E0,1.281674661E1
5.863595000E0,4.661456451E0,-1.210517715E1,2.204615479E0,1.315769051E1
5.873534000E0,4.843627625E0,-1.196132629E1,1.698517914E0,1.301610611E1
5.883474000E0,4.857398987E0,-1.132125732E1,1.221010895E0,1.237966316E1
5.893413000E0,5.166356506E0,-1.087817871E1,8.961863708E-1,1.207597456E1
5.903353000E0,5.854774933E0,-1.060619431E1,5.876779175E-1,1.212910188E1
5.913292000E0,6.126759338E0,-9.781858521E0,3.938310242E-1,1.154889774E1
5.923231000E0,6.043682098E0,-9.123078461E0,4.568499756E-1,1.095287021E1
5.933171000E0,5.545817413E0,-9.117989044E0,8.123606873E-1,1.070297832E1
5.943109958E0,5.439089355E0,-9.347761230E0,1.182540894E0,1.087946396E1
5.953049958E0,5.607189789E0,-9.151818695E0,-1.749861145E-1,1.073438321E1
5.962988958E0,5.723946991E0,-9.161249084E0,-8.876541138E-1,1.083881838E1
5.972928958E0,5.160069580E0,-9.438622284E0,2.644999695E-1,1.076029130E1
5.982867958E0,5.409450989E0,-9.111103363E0,-1.916015625E-1,1.059769200E1
5.992807958E0,6.067183228E0,-8.739276581E0,-1.149908752E0,1.070083911E1
6.002746958E0,6.305787048E0,-8.889414368E0,-1.381626892E0,1.098606076E1
6.012686958E0,6.247707825E0,-9.267827454E0,-8.738827515E-1,1.121116184E1
6.022625958E0,6.187233582E0,-9.368567963E0,1.646575928E-3,1.122728497E1
6.032564958E0,5.657934265E0,-8.796008606E0,7.973918152E-1,1.048893804E1
6.042504958E0,5.196443939E0,-8.346343689E0,1.286125488E0,9.915573678E0
6.052443958E0,4.760700073E0,-7.978857880E0,1.284179535E0,9.379528524E0
6.062383958E0,4.372706909E0,-7.635921021E0,1.203197937E0,8.881190282E0
6.072322958E0,3.990252228E0,-7.385641479E0,1.244512024E0,8.486378679E0
6.082262958E0,3.548670502E0,-7.401508484E0,1.630858612E0,8.368697030E0
6.092201958E0,3.543730774E0,-7.415429535E0,1.739382935E0,8.400718777E0
6.102141958E0,3.492836609E0,-7.036417694E0,1.474134521E0,7.992756354E0
6.112080958E0,3.487597504E0,-6.808292084E0,1.114432526E0,7.730338757E0
6.122020958E0,3.609144745E0,-6.706503754E0,9.798623657E-1,7.678753066E0
6.131959958E0,3.712429962E0,-6.587351532E0,9.180409241E-1,7.616963671E0
6.141898958E0,3.863615570E0,-6.520141296E0,1.080303497E0,7.655509352E0
6.151838958E0,3.905229034E0,-6.557713165E0,1.365460510E0,7.753637738E0
6.161777958E0,3.964356079E0,-6.499633942E0,1.713037720E0,7.803579866E0
6.171717958E0,3.932921448E0,-6.428980865E0,2.049687653E0,7.810306368E0
6.181656958E0,3.620072021E0,-6.582561493E0,2.246678009E0,7.841084066E0
6.191596958E0,3.650159454E0,-6.683302002E0,2.434986420E0,7.994957696E0
6.201535958E0,3.603606262E0,-6.559958496E0,2.577789459E0,7.916061651E0
6.211475958E0,3.414549408E0,-6.507866821E0,2.879412231E0,7.893192828E0
6.221414958E0,3.348536682E0,-6.509663086E0,3.070564728E0,7.938310850E0
6.231354958E0,3.226690063E0,-6.536607056E0,3.186723175E0,7.955750446E0
6.241293958E0,3.128344574E0,-6.622378693E0,3.088377686E0,7.948617241E0
6.251232958E0,3.191662903E0,-6.754104767E0,2.833308105E0,7.989510505E0
6.261172958E0,3.456611938E0,-6.808441772E0,2.516267395E0,8.039567592E0
6.271111958E0,3.787274323E0,-6.913074188E0,2.237996063E0,8.194062967E0
6.281051958E0,4.189787292E0,-7.190297699E0,2.109563141E0,8.585159009E0
6.290990958E0,4.604425049E0,-7.629035339E0,2.053130493E0,9.144301781E0
6.300930958E0,4.884792023E0,-8.185877380E0,2.061213684E0,9.752865397E0
6.310869958E0,4.940176849E0,-8.832832031E0,2.271825714E0,1.037234116E1
6.320809958E0,4.779261475E0,-9.590855713E0,2.563718719E0,1.101809907E1
6.330748958E0,4.454886017E0,-1.024978546E1,3.001258850E0,1.157202083E1
6.340688958E0,3.966002655E0,-1.050365753E1,3.557502136E0,1.177759823E1
6.350627958E0,3.597618713E0,-1.045515839E1,3.993844757E0,1.175601945E1
6.360566958E0,3.783083038E0,-1.004860382E1,4.322710876E0,1.157462679E1
6.370506958E0,4.471202087E0,-9.683812408E0,4.499942322E0,1.157658636E1
6.380445958E0,5.347180481E0,-9.327852631E0,4.673281860E0,1.172351215E1
6.390385958E0,5.952371979E0,-9.530531158E0,4.775219879E0,1.220919658E1
6.400324958E0,6.149362335E0,-1.012090347E1,4.622986450E0,1.271295984E1
6.410264958E0,6.095324707E0,-1.099763031E1,4.015100555E0,1.319931393E1
6.420203958E0,5.886209564E0,-1.183678528E1,3.113375702E0,1.358123916E1
6.430143958E0,5.357209625E0,-1.226055405E1,1.900447998E0,1.351416232E1
6.440082958E0,4.704866180E0,-1.262324982E1,7.020401001E-1,1.348981327E1
6.450022958E0,3.962559814E0,-1.284628601E1,-3.519181824E-1,1.344815195E1
6.459961958E0,2.470462646E0,-1.224902802E1,-2.405198364E0,1.272504822E1
6.469900958E0,3.530857544E0,-1.165805695E1,-5.691614227E0,1.344513738E1
6.479840958E0,5.022206268E0,-1.097622482E1,-1.915117493E0,1.222160964E1
6.489779958E0,5.761069794E0,-1.034573593E1,9.071136475E-1,1.187632234E1
6.499719958E0,5.416935425E0,-9.263486481E0,2.826123047E-1,1.073476785E1
6.509658958E0,5.887706451E0,-9.146429901E0,-5.547463989E-1,1.089174048E1
6.519598958E0,6.044879608E0,-9.209149475E0,-1.460961914E-1,1.101682112E1
6.529537958E0,6.165678406E0,-9.548044739E0,-8.425978088E-1,1.139696098E1
6.539477958E0,5.699248352E0,-1.025083328E1,-3.541635132E-1,1.173398681E1
6.549416958E0,5.013075256E0,-1.083342178E1,1.407073975E-2,1.193709131E1
6.559356958E0,3.827690277E0,-1.067370392E1,1.018781433E0,1.138494988E1
6.569295958E0,3.214714966E0,-9.947863312E0,1.412762146E0,1.054942054E1
6.579234958E0,3.037782898E0,-9.076674957E0,1.557361450E0,9.697397996E0
6.589174958E0,2.774779816E0,-8.626261597E0,1.722019043E0,9.223727107E0
6.599113958E0,2.583926697E0,-8.291258240E0,1.898801422E0,8.889718062E0
6.609053958E0,2.807112579E0,-7.647746429E0,1.734443207E0,8.329237643E0
6.618992958E0,2.931952972E0,-7.247628479E0,1.800455933E0,8.022849143E0
6.628932958E0,3.122057648E0,-6.926246796E0,1.750759277E0,7.796492588E0
6.638871958E0,3.214116211E0,-6.466253357E0,1.475781097E0,7.370271728E0
6.648811958E0,3.241509247E0,-6.430178375E0,1.328038330E0,7.322449176E0
6.658750958E0,3.161725159E0,-6.463259583E0,1.339264984E0,7.318733573E0
6.668690958E0,2.982098694E0,-6.494544525E0,1.412762146E0,7.284773029E0
6.678629958E0,2.740650787E0,-6.592740326E0,1.510508881E0,7.297741351E0
6.688569958E0,2.581232300E0,-6.792574768E0,1.791624298E0,7.484099798E0
6.698508958E0,2.548450470E0,-7.061116333E0,2.055076447E0,7.783142223E0
6.708447958E0,2.677033081E0,-7.236701202E0,2.155517578E0,8.011404773E0
6.718387958E0,2.760709076E0,-7.288194122E0,2.279010773E0,8.119924770E0
6.728326958E0,2.766846313E0,-7.513325958E0,2.430645447E0,8.367409561E0
6.738266958E0,2.816692657E0,-7.709867249E0,2.389031982E0,8.548876203E0
6.748205958E0,2.961591339E0,-7.824229431E0,2.376458130E0,8.696961693E0
6.758145958E0,3.130889282E0,-7.969876556E0,2.198328552E0,8.840477840E0
6.768084958E0,3.420536957E0,-8.183931427E0,2.068398743E0,9.107967942E0
6.778024958E0,3.634442139E0,-8.421936493E0,2.046993256E0,9.398317155E0
6.787963958E0,3.652853851E0,-8.420140228E0,2.175575867E0,9.432668396E0
6.797903958E0,3.483855286E0,-8.278983765E0,2.358345795E0,9.286582510E0
6.807842958E0,3.342698822E0,-8.086633759E0,2.700983276E0,9.157652080E0
6.817781958E0,3.188220062E0,-7.999365234E0,3.222349091E0,9.194461647E0
6.827721958E0,2.897674255E0,-7.976762238E0,3.630400543E0,9.230658697E0
6.837660958E0,2.966531067E0,-7.994126129E0,3.910168762E0,9.380606531E0
6.847600958E0,3.008593597E0,-8.147557068E0,3.968996429E0,9.549201761E0
6.857539958E0,2.932701416E0,-8.441994781E0,3.783831482E0,9.704915980E0
6.867479958E0,2.966381378E0,-8.806486816E0,3.635639648E0,9.978552209E0
6.877418958E0,3.054997101E0,-9.444160767E0,3.404969330E0,1.049375986E1
6.887358958E0,3.331921234E0,-9.960287476E0,3.297792206E0,1.100838131E1
6.897297958E0,3.569776611E0,-1.021206390E1,3.244503021E0,1.129408492E1
6.907237958E0,3.975582733E0,-1.034393967E1,3.165317688E0,1.152482460E1
6.917176958E0,4.435276794E0,-1.042072998E1,3.023263092E0,1.172192021E1
6.927115958E0,4.671036530E0,-1.098086517E1,2.682421875E0,1.223083682E1
6.937055958E0,4.891228638E0,-1.185489761E1,2.314337311E0,1.303145703E1
6.946995083E0,5.025649109E0,-1.234348160E1,1.982477417E0,1.347400845E1
6.956935083E0,4.859644318E0,-1.233779343E1,1.634900208E0,1.336077049E1
6.966874083E0,4.684957581E0,-1.184786224E1,1.337169342E0,1.281049137E1
6.976814083E0,4.570146332E0,-1.108055786E1,9.922865295E-1,1.202703756E1
6.986753083E0,4.647086334E0,-1.038884628E1,8.039781189E-1,1.140920327E1
6.996693083E0,4.747377777E0,-9.417067108E0,1.124162292E0,1.060577623E1
7.006632083E0,4.636009369E0,-8.478668518E0,1.505419464E0,9.779912600E0
7.016572083E0,4.192930756E0,-7.836204529E0,1.465602264E0,9.007483541E0
7.026511083E0,4.315825195E0,-7.927664337E0,-4.311035156E-2,9.026409445E0
7.036450083E0,4.395010529E0,-7.910749512E0,-2.580334167E0,9.410324107E0
7.046390083E0,4.243076477E0,-8.291557617E0,-8.583151245E-1,9.353626599E0
7.056329083E0,4.619842987E0,-8.728349304E0,-3.454815674E-1,9.881618709E0
7.066269083E0,5.486241302E0,-8.622220001E0,-7.430548096E-1,1.024664100E1
7.076208083E0,5.925278320E0,-8.824000397E0,-8.587641907E-1,1.066346014E1
7.086148083E0,6.102360077E0,-9.184151459E0,-3.432362366E-1,1.103201014E1
7.096087083E0,6.244714050E0,-9.280251617E0,1.164578247E-1,1.118629009E1
7.106027083E0,6.099216614E0,-9.160051575E0,9.620494080E-1,1.104683336E1
7.115966083E0,5.761518860E0,-8.941206665E0,1.525926819E0,1.074563767E1
7.125906083E0,5.124443665E0,-8.793164520E0,1.569935303E0,1.029778433E1
7.135845083E0,4.605921936E0,-8.348439331E0,1.562301178E0,9.661870477E0
7.145785083E0,4.233496399E0,-8.145162048E0,1.717678070E0,9.338981449E0
7.155724083E0,3.704047394E0,-8.049960022E0,1.874102783E0,9.057266955E0
7.165663083E0,3.320844269E0,-8.192164307E0,1.963017883E0,9.054998724E0
7.175603083E0,3.127296753E0,-7.956853638E0,2.072889404E0,8.797066288E0
7.185542083E0,2.941383362E0,-7.639363861E0,1.832788696E0,8.388726404E0
7.195482083E0,2.960094452E0,-7.511529694E0,1.808688812E0,8.273849933E0
7.205421083E0,2.990032196E0,-7.251819763E0,1.660646667E0,8.017913055E0
7.215361083E0,3.007994843E0,-6.931934967E0,1.912872162E0,7.794795396E0
7.225300083E0,3.019221497E0,-6.671775970E0,2.336491241E0,7.686838386E0
7.235240083E0,3.226540375E0,-6.523883514E0,2.435585175E0,7.674874204E0
7.245179083E0,3.329825592E0,-6.544540558E0,2.544558563E0,7.771327291E0
7.255119083E0,3.360511780E0,-6.579118652E0,2.752326508E0,7.883726458E0
7.265058083E0,3.620521088E0,-6.576873322E0,2.982547760E0,8.078305935E0
7.274997083E0,3.805087280E0,-6.387217712E0,3.019520874E0,8.024509058E0
7.284937083E0,3.981719971E0,-6.315067749E0,3.074905701E0,8.073984126E0
7.294876083E0,4.107757874E0,-6.416856079E0,3.160677338E0,8.248611878E0
7.304816083E0,4.291425934E0,-6.527176666E0,3.121907959E0,8.412293450E0
7.314755083E0,4.300257568E0,-6.818470917E0,2.854264526E0,8.551642344E0
7.324695083E0,4.355043640E0,-7.176975403E0,2.433788910E0,8.740635532E0
7.334634083E0,4.524042206E0,-7.356452179E0,2.173330536E0,8.905487755E0
7.344574083E0,4.791835327E0,-7.578889618E0,2.007026367E0,9.188547681E0
7.354513083E0,5.013075256E0,-7.851622467E0,2.112257538E0,9.551990934E0
7.364453083E0,5.301226044E0,-8.140072632E0,1.844314728E0,9.887632519E0
7.374392083E0,5.351970520E0,-8.685688019E0,2.057321777E0,1.040756156E1
7.384331083E0,4.988226929E0,-9.045240326E0,3.071163483E0,1.077640133E1
7.394271083E0,4.402944031E0,-9.357940063E0,3.716321869E0,1.098944979E1
7.404210083E0,3.871249695E0,-9.612261200E0,4.293521576E0,1.121679398E1
7.414150083E0,3.936513977E0,-9.629026337E0,4.502487030E0,1.133519651E1
7.424089083E0,3.816763000E0,-9.691296844E0,4.684209137E0,1.142062737E1
7.434029083E0,4.307143250E0,-9.709558868E0,4.535119171E0,1.154964598E1
7.443968083E0,5.087320862E0,-1.006806335E1,4.240531769E0,1.205109302E1
7.453908083E0,5.694907379E0,-1.087847809E1,3.670068054E0,1.281571906E1
7.463847083E0,6.143823853E0,-1.172272247E1,2.831511841E0,1.353463162E1
7.473787083E0,6.289321289E0,-1.250858826E1,1.743574219E0,1.410887641E1
7.483726083E0,6.299949188E0,-1.288969574E1,9.327104187E-1,1.437718904E1
7.493666083E0,6.219865723E0,-1.226369751E1,-5.863307190E-1,1.376331319E1
7.503605083E0,5.611530762E0,-1.165476379E1,-4.388873291E-1,1.294277477E1
7.513544083E0,4.501289520E0,-1.105945175E1,-2.484832764E-2,1.194042285E1
7.523484083E0,4.354744263E0,-1.065798660E1,3.576063538E-1,1.151886966E1
7.533423083E0,5.175188141E0,-9.998009033E0,9.135502625E-1,1.129501355E1
7.543363083E0,5.261109467E0,-8.999585266E0,-2.411485291E-1,1.042736594E1
7.553302083E0,5.251679077E0,-8.155041504E0,-2.804118805E0,1.009692613E1
7.563242083E0,5.348677368E0,-8.431217194E0,-2.286046143E0,1.024303568E1
7.573181083E0,5.354814606E0,-9.121132507E0,-1.921404419E0,1.074992524E1
7.583121083E0,5.327571259E0,-9.782756653E0,-1.744472351E0,1.127512869E1
7.593060083E0,5.306016083E0,-1.042357407E1,-8.634045410E-1,1.172817848E1
7.603000083E0,4.770729218E0,-1.053060150E1,2.055226135E-1,1.156268415E1
7.612939083E0,3.962709503E0,-1.004935226E1,9.385482788E-1,1.084312780E1
7.622878083E0,3.512745209E0,-9.630523224E0,1.199755096E0,1.032113215E1
7.632818083E0,3.267255707E0,-8.917406158E0,1.434467010E0,9.604831495E0
7.642757083E0,3.284619598E0,-8.639583893E0,1.504221954E0,9.364497821E0
7.652697083E0,3.294499054E0,-8.660540314E0,1.617386627E0,9.406094941E0
7.662636083E0,3.296445007E0,-8.174650726E0,1.601220245E0,8.958536178E0
7.672576083E0,3.375480652E0,-7.688012695E0,1.506018219E0,8.530386844E0
7.682515083E0,3.356619873E0,-7.398963776E0,1.422791290E0,8.248387538E0
7.692455083E0,3.284320221E0,-7.149282990E0,1.159788208E0,7.952616882E0
7.702394083E0,3.012186127E0,-7.058721313E0,1.064137115E0,7.747980359E0
7.712334083E0,2.776426392E0,-6.987020416E0,1.109343109E0,7.599844731E0
7.722273083E0,2.571053467E0,-6.884483643E0,1.144669647E0,7.437519718E0
7.732212083E0,2.400108948E0,-6.843319244E0,1.312171326E0,7.369758126E0
7.742152083E0,2.367776184E0,-6.937772827E0,1.582509155E0,7.499559393E0
7.752091083E0,2.449655914E0,-6.982230377E0,1.651964722E0,7.581645110E0
7.762031083E0,2.648592224E0,-6.986571350E0,1.873653717E0,7.703103157E0
7.771970083E0,2.637814636E0,-6.870113525E0,2.204615479E0,7.682242857E0
7.781910083E0,2.531385956E0,-6.783443756E0,2.460283813E0,7.646961520E0
7.791849083E0,2.495610352E0,-6.826254730E0,2.665057983E0,7.741340887E0
7.801789083E0,2.525548096E0,-7.070397034E0,2.737058258E0,7.991269943E0
7.811728083E0,2.592009888E0,-7.275021515E0,2.679278412E0,8.174532776E0
7.821668083E0,2.676284637E0,-7.399263153E0,2.679577789E0,8.312143634E0
7.831607083E0,2.602338409E0,-7.538922729E0,2.737207947E0,8.432071422E0
7.841547083E0,2.468965759E0,-7.730224915E0,2.737357635E0,8.564186825E0
7.851486083E0,2.332898712E0,-7.934550018E0,2.643951874E0,8.682740461E0
7.861425083E0,2.285746765E0,-8.134384460E0,2.565964050E0,8.830459803E0
7.871365083E0,2.287243652E0,-8.402327271E0,2.434537354E0,9.041988676E0
7.881304083E0,2.466421051E0,-8.822503510E0,2.346071320E0,9.456418540E0
7.891244083E0,2.811752930E0,-9.192384338E0,2.290686493E0,9.881959774E0
7.901183083E0,3.153492279E0,-9.469158783E0,2.392624512E0,1.026324187E1
7.911123083E0,3.532354431E0,-9.511820068E0,2.617606659E0,1.047874580E1
7.921062083E0,3.622766418E0,-9.721384277E0,3.019670563E0,1.080500621E1
7.931002083E0,3.678151245E0,-9.989027710E0,3.569776611E0,1.122732275E1
7.940941083E0,3.716621246E0,-1.013721954E1,3.830833740E0,1.145651695E1
7.950881583E0,3.789968719E0,-1.053060150E1,3.577710114E0,1.174978470E1
7.960820583E0,4.145180054E0,-1.122560623E1,3.132535858E0,1.236970225E1
7.970759583E0,4.820874939E0,-1.197375046E1,2.534379730E0,1.315426227E1
7.980699583E0,5.674250336E0,-1.262833923E1,1.969903564E0,1.398401190E1
7.990638583E0,6.121220856E0,-1.301303925E1,1.645228729E0,1.447464379E1
8.000578583E0,6.001469879E0,-1.249586472E1,1.416055298E0,1.393447122E1
8.010517583E0,5.333708496E0,-1.140223892E1,1.337169342E0,1.265889097E1
8.020457583E0,4.840933228E0,-1.073028625E1,1.424437866E0,1.185760097E1
8.030396583E0,4.844974823E0,-1.010054581E1,1.173858948E0,1.126378051E1
8.040336583E0,4.719835052E0,-9.264983368E0,1.143621826E-1,1.039854982E1
8.050275583E0,4.484374695E0,-8.678952026E0,-8.702902222E-1,9.807712769E0
8.060215583E0,4.270319824E0,-8.499325562E0,-1.088835754E0,9.573908800E0
8.070154583E0,4.707560577E0,-8.589887238E0,-1.188678131E0,9.867129524E0
8.080094583E0,5.564528503E0,-8.742120667E0,-1.233285370E0,1.043597834E1
8.090033583E0,5.939498749E0,-9.176966400E0,-1.018332367E0,1.097867745E1
8.099972583E0,6.011199646E0,-9.647587738E0,-6.122268677E-1,1.138355358E1
8.109912583E0,6.049220581E0,-9.909393311E0,-2.794688416E-1,1.161323591E1
8.119851583E0,5.995033264E0,-1.001402573E1,4.450245667E-1,1.167986224E1
8.129791583E0,5.833219757E0,-9.792486420E0,1.237626343E0,1.146520658E1
8.139730583E0,5.522465973E0,-9.489516449E0,1.783092041E0,1.112330752E1
8.149670583E0,5.187163239E0,-9.076824646E0,2.043999481E0,1.065238668E1
8.159609583E0,4.775369568E0,-8.371341705E0,1.892813873E0,9.821723923E0
8.169549583E0,4.508025513E0,-7.970026245E0,1.684896240E0,9.310343050E0
8.179488583E0,4.170627136E0,-7.766449585E0,1.844015350E0,9.006234645E0
8.189428583E0,3.793411560E0,-7.345225525E0,1.817520447E0,8.464377700E0
8.199367583E0,3.508254547E0,-6.835086365E0,1.583856354E0,7.844415627E0
8.209306583E0,3.260669403E0,-6.620881805E0,1.378333740E0,7.507852205E0
8.219246583E0,3.093018036E0,-6.439459076E0,1.080752563E0,7.225055008E0
8.229185583E0,3.071313171E0,-6.265221405E0,8.140072632E-1,7.024853854E0
8.239125583E0,2.997366943E0,-6.005661163E0,6.159690857E-1,6.740296174E0
8.249064583E0,2.979404297E0,-5.900879059E0,7.969427490E-1,6.658253628E0
8.259004583E0,2.996019745E0,-5.940696259E0,1.118923187E0,6.746850780E0
8.268943583E0,3.165467377E0,-5.872887268E0,1.245859222E0,6.786984145E0
8.278883583E0,3.350033569E0,-5.993686066E0,1.602417755E0,7.050868048E0
8.288822583E0,3.409160614E0,-6.001918945E0,1.875449982E0,7.152812017E0
8.298762583E0,3.754043427E0,-6.216273193E0,2.044149170E0,7.544099701E0
8.308701583E0,4.176165619E0,-6.487509155E0,2.368824005E0,8.070902148E0
8.318641583E0,4.434378662E0,-6.487658844E0,2.747835846E0,8.324904398E0
8.328580583E0,4.553830261E0,-6.628366241E0,3.066972198E0,8.606911615E0
8.338519583E0,4.680466919E0,-6.867718506E0,3.333268433E0,8.954496440E0
8.348459583E0,4.860542450E0,-7.027436371E0,3.417692871E0,9.202736518E0
8.358398583E0,5.001100159E0,-7.207062836E0,3.448977814E0,9.425932605E0
8.368338583E0,5.130880280E0,-7.564369812E0,3.366798706E0,9.740685634E0
8.378277583E0,5.222639465E0,-7.998467102E0,2.982398071E0,1.000730419E1
8.388217583E0,5.439837799E0,-8.457263031E0,2.489772491E0,1.035934845E1
8.398156583E0,5.347180481E0,-8.994196472E0,2.145338745E0,1.068131020E1
8.408096583E0,5.084476776E0,-9.317823486E0,1.732197876E0,1.075519633E1
8.418035583E0,4.758604431E0,-9.433832245E0,2.430346069E0,1.084195965E1
8.427975583E0,4.496649170E0,-9.369765472E0,3.538641357E0,1.097881330E1
8.437914583E0,4.463418274E0,-9.298962708E0,3.949686584E0,1.104503663E1
8.447854583E0,4.618046722E0,-9.117989044E0,4.217629395E0,1.105678423E1
8.457793583E0,4.866380310E0,-8.777447205E0,4.283043365E0,1.091190621E1
8.467732583E0,5.294040985E0,-8.623866577E0,3.993994446E0,1.087887569E1
8.477672583E0,6.031108246E0,-9.013506317E0,3.450474701E0,1.138083206E1
8.487611583E0,6.465953979E0,-9.499395905E0,2.734962616E0,1.181215916E1
8.497551583E0,6.624025269E0,-9.910890198E0,1.885628815E0,1.206892917E1
8.507490583E0,6.535858612E0,-1.025876678E1,1.238225098E0,1.222673076E1
8.517430583E0,6.280339966E0,-1.033855087E1,-9.175918579E-2,1.209697169E1
8.527369583E0,5.730533295E0,-1.079405365E1,-8.177494812E-1,1.224823743E1
8.537309583E0,4.612807617E0,-1.154893387E1,-1.106798401E0,1.248522608E1
8.547248583E0,3.885170746E0,-1.174846893E1,-1.195563812E0,1.243183200E1
8.557188583E0,3.922592926E0,-1.140927429E1,4.640350342E-2,1.206484266E1
8.567127583E0,4.427942047E0,-1.089000412E1,1.157542877E0,1.181265279E1
8.577066583E0,4.761149139E0,-1.028885422E1,2.010319519E-1,1.133884809E1
8.587006583E0,5.034031677E0,-1.008408005E1,-2.241738281E0,1.149154193E1
8.596945583E0,5.689817963E0,-9.848470001E0,-2.418969727E0,1.162831907E1
8.606885583E0,5.526507568E0,-1.010114456E1,-1.309476929E0,1.158836214E1
8.616824583E0,5.556295624E0,-1.050111282E1,-1.197509766E0,1.194067926E1
8.626764583E0,5.423970795E0,-1.097368011E1,-7.235952759E-1,1.226232868E1
8.636703583E0,4.962031403E0,-1.115360596E1,1.227447510E-1,1.220818364E1
8.646643583E0,4.157155151E0,-1.084539688E1,1.119971008E0,1.166871490E1
8.656582583E0,3.698059845E0,-1.017613861E1,1.640289001E0,1.095079868E1
8.666522583E0,3.626957703E0,-9.235943756E0,1.925146637E0,1.010760450E1
8.676461583E0,3.510050812E0,-8.877139893E0,1.769919434E0,9.708588166E0
8.686400583E0,3.434308319E0,-8.628806305E0,1.669777679E0,9.436044159E0
8.696340583E0,3.287912750E0,-7.933053131E0,1.848206635E0,8.784052026E0
8.706279583E0,3.223995667E0,-7.521558838E0,1.944755859E0,8.411306127E0
8.716219583E0,3.093018036E0,-7.158863068E0,1.890867920E0,8.024429106E0
8.726158583E0,2.943628693E0,-6.845115509E0,1.617985382E0,7.624856255E0
8.736098583E0,2.847678223E0,-6.775659943E0,1.440155182E0,7.489518400E0
8.746037583E0,2.688409424E0,-6.783144379E0,1.501527557E0,7.449374329E0
8.755977583E0,2.447260895E0,-6.749314728E0,1.628164215E0,7.361606747E0
8.765916583E0,2.348616028E0,-6.881040802E0,1.720372467E0,7.471572873E0
8.775856583E0,2.298170929E0,-6.991810455E0,1.819915466E0,7.581496908E0
8.785795583E0,2.205214233E0,-7.065756683E0,1.988315277E0,7.664286331E0
8.795735583E0,2.350711670E0,-7.016509094E0,2.055525513E0,7.680001976E0
8.805674583E0,2.518363037E0,-6.925797729E0,2.132465515E0,7.671781785E0
8.815613583E0,2.610571289E0,-6.806196442E0,2.211501160E0,7.617750970E0
8.825553583E0,2.661166077E0,-6.694678345E0,2.365979919E0,7.582768888E0
8.835492583E0,2.776127014E0,-6.671626282E0,2.585722961E0,7.674857763E0
8.845432583E0,2.794987793E0,-6.617438965E0,2.718197479E0,7.680563310E0
8.855371583E0,2.795586548E0,-6.650370483E0,2.819686432E0,7.745538283E0
8.865311583E0,2.831511841E0,-6.760092316E0,2.853067017E0,7.864877547E0
8.875250583E0,2.859204254E0,-6.977739716E0,2.897225189E0,8.078230889E0
8.885190583E0,2.812501373E0,-7.322772217E0,2.781665497E0,8.322909338E0
8.895129583E0,2.856809235E0,-7.818092194E0,2.440674591E0,8.674146472E0
8.905069583E0,3.137026520E0,-8.430917816E0,2.081271973E0,9.233255311E0
8.915008583E0,3.577710114E0,-8.982071686E0,1.945354614E0,9.862151185E0
8.924948583E0,3.933669891E0,-9.644893341E0,2.058818665E0,1.061774273E1
8.934887583E0,4.287534027E0,-1.007195526E1,2.372266846E0,1.120066430E1
8.944825958E0,4.771477661E0,-1.002779709E1,2.824775848E0,1.145875526E1
8.954765958E0,4.839885406E0,-9.866133270E0,3.321892090E0,1.148042001E1
8.964704958E0,4.557572479E0,-1.015263748E1,3.813469849E0,1.176393076E1
8.974644958E0,3.995641022E0,-1.047746201E1,3.901636505E0,1.187287348E1
8.984583958E0,3.778592377E0,-1.102457428E1,3.675606537E0,1.222002790E1
8.994523958E0,4.321812744E0,-1.209874054E1,3.084485779E0,1.321255617E1
9.004462958E0,5.460195465E0,-1.284808228E1,2.313738556E0,1.415063033E1
9.014402958E0,6.302194519E0,-1.285885986E1,1.596579895E0,1.440892085E1
9.024341958E0,6.634353790E0,-1.272937912E1,1.261277161E0,1.440980788E1
9.034281958E0,6.183940430E0,-1.190668991E1,1.152902527E0,1.346623808E1
9.044220958E0,5.405409393E0,-1.102068237E1,1.707798615E0,1.239316210E1
9.054160958E0,5.318140869E0,-1.023810974E1,3.617976379E-1,1.154263449E1
9.064099958E0,4.825365601E0,-9.541458435E0,-1.477577362E0,1.079383236E1
9.074038958E0,3.805236969E0,-9.439520416E0,-2.389031982E0,1.045427414E1
9.083978958E0,3.269650726E0,-8.989855499E0,-1.891167297E0,9.751134884E0
9.093917958E0,4.068090363E0,-8.617579651E0,-2.650687866E0,9.891318638E0
9.103857958E0,5.049599304E0,-8.844208374E0,-2.176174622E0,1.041413515E1
9.113796958E0,5.979166260E0,-8.773255920E0,-1.381028137E0,1.070643205E1
9.123736958E0,6.487359467E0,-9.580826569E0,-4.411326599E-1,1.157897528E1
9.133675958E0,6.231391754E0,-9.928254089E0,7.638615417E-1,1.174665727E1
9.143615958E0,5.845494232E0,-9.695637817E0,1.498234406E0,1.142015332E1
9.153554958E0,5.401367798E0,-9.735754395E0,1.852846985E0,1.128683878E1
9.163494958E0,4.902754669E0,-9.634415131E0,1.957928467E0,1.098601120E1
9.173433958E0,4.599036255E0,-9.204359436E0,1.636696472E0,1.041873996E1
9.183372958E0,4.460723877E0,-8.530909882E0,1.352736969E0,9.721336236E0
9.193312958E0,4.314028931E0,-8.274044037E0,1.438358917E0,9.441373137E0
9.203251958E0,3.934717712E0,-8.074658661E0,1.319356384E0,9.078701297E0
9.213191958E0,3.558849335E0,-7.771389313E0,1.055904236E0,8.612481303E0
9.223130958E0,3.210972748E0,-7.539671173E0,8.741821289E-1,8.241430809E0
9.233070958E0,3.191363525E0,-7.295229492E0,8.337661743E-1,8.006268827E0
9.243009958E0,3.175795898E0,-6.995402985E0,8.110134888E-1,7.725223970E0
9.252949958E0,3.144810333E0,-6.734345856E0,8.131091309E-1,7.476790260E0
9.262888958E0,3.188818817E0,-6.483467560E0,9.590556335E-1,7.288601015E0
9.272828958E0,3.390898590E0,-6.127807159E0,1.195264435E0,7.104707658E0
9.282767958E0,3.388054504E0,-6.001020813E0,1.350641327E0,7.022492159E0
9.292707958E0,3.609294434E0,-5.994434509E0,1.517394562E0,7.159800112E0
9.302646958E0,3.710184631E0,-5.806874542E0,1.613644409E0,7.077366052E0
9.312585958E0,3.826941833E0,-5.684129791E0,1.903741150E0,7.111894659E0
9.322525958E0,3.830833740E0,-5.963598633E0,2.113155670E0,7.396297904E0
9.332464958E0,3.726800079E0,-6.127657471E0,2.296374664E0,7.530641507E0
9.342404958E0,3.651057587E0,-6.281537476E0,2.386936340E0,7.647574756E0
9.352343958E0,3.718567200E0,-6.335425415E0,2.387235718E0,7.724263821E0
9.362283958E0,3.791315918E0,-6.480174408E0,2.339634705E0,7.863881185E0
9.372222958E0,3.889362030E0,-6.629863129E0,2.091750183E0,7.966030438E0
9.382162958E0,4.164040833E0,-6.678661652E0,1.818268890E0,8.077738500E0
9.392101958E0,4.339625702E0,-6.935677185E0,1.712139587E0,8.358671618E0
9.402041958E0,4.465962982E0,-7.295079803E0,1.666783905E0,8.714423864E0
9.411980958E0,4.703069916E0,-7.731572113E0,1.858984222E0,9.238609003E0
9.421920958E0,5.016368408E0,-8.179889832E0,2.212249603E0,9.847263476E0
9.431859958E0,5.040767670E0,-8.602760468E0,2.656076660E0,1.031850617E1
9.441798958E0,4.964127045E0,-9.034013672E0,3.210823059E0,1.079654320E1
9.451738958E0,4.565655670E0,-9.460027771E0,3.810176697E0,1.117384372E1
9.461677958E0,3.930526428E0,-9.794432373E0,4.259991302E0,1.138101355E1
9.471617958E0,3.365451508E0,-1.001492386E1,4.393214264E0,1.144225919E1
9.481556958E0,3.377426605E0,-9.890233154E0,4.444258118E0,1.135672279E1
9.491496958E0,3.798500977E0,-9.783654785E0,4.141138458E0,1.128262108E1
9.501435958E0,4.699926453E0,-1.000324814E1,3.653003540E0,1.164039161E1
9.511375958E0,5.650599518E0,-1.079016174E1,2.974464569E0,1.253811409E1
9.521314958E0,5.903124390E0,-1.144190643E1,2.456691284E0,1.310722825E1
9.531254958E0,5.766458588E0,-1.229677872E1,1.518741760E0,1.366635972E1
9.541193958E0,5.524262238E0,-1.283835251E1,4.194277954E-1,1.398272821E1
9.551132958E0,5.613925781E0,-1.226938568E1,3.477268982E-1,1.349721829E1
9.561072958E0,5.901178436E0,-1.167886368E1,4.346960449E-1,1.309231547E1
9.571011958E0,5.170697479E0,-1.142499161E1,-6.975494385E-2,1.254078990E1
9.580951958E0,4.273463287E0,-1.122186401E1,-6.656657410E-1,1.202646379E1
9.590890958E0,4.706363068E0,-1.048060547E1,-6.734495544E-1,1.150853938E1
9.600830958E0,5.190007324E0,-9.855056305E0,-2.444416809E-1,1.114082863E1
9.610769958E0,4.588408356E0,-9.461524658E0,-5.014572144E-1,1.052736432E1
9.620709958E0,4.652924194E0,-9.044342194E0,-2.446362762E0,1.046109555E1
9.630648958E0,5.204976196E0,-9.313632202E0,-1.865720215E0,1.083127111E1
9.640588958E0,5.092410278E0,-1.016805542E1,-1.378184052E0,1.145519030E1
9.650527958E0,4.998854828E0,-1.052311707E1,-9.707313538E-1,1.169046029E1
9.660467958E0,4.795876923E0,-1.086320984E1,-5.134323120E-1,1.188584773E1
9.670406958E0,4.121080170E0,-1.089748856E1,5.037025452E-1,1.166157257E1
9.680345958E0,3.574117584E0,-1.036384827E1,1.094972992E0,1.101737869E1
9.690285958E0,3.178939362E0,-9.732610931E0,1.271755371E0,1.031730259E1
9.700224958E0,2.986289978E0,-8.985963593E0,1.243613892E0,9.550499727E0
9.710164958E0,2.965183868E0,-8.942703552E0,1.327738953E0,9.514575814E0
9.720103958E0,2.945724335E0,-8.605754242E0,1.211430817E0,9.176266264E0
9.730043958E0,3.057691498E0,-8.109386444E0,9.392967224E-1,8.717448258E0
9.739982958E0,3.211870880E0,-7.675289154E0,8.550219727E-1,8.364044519E0
9.749922958E0,3.223097534E0,-7.208859100E0,9.629475403E-1,7.955078580E0
9.759861958E0,2.975362701E0,-6.842570801E0,1.006956024E0,7.529111422E0
9.769801958E0,2.746189270E0,-6.625222778E0,1.100212097E0,7.255728704E0
9.779740958E0,2.605631561E0,-6.532864838E0,1.224753113E0,7.139163747E0
9.789680958E0,2.493215332E0,-6.523883514E0,1.300196228E0,7.104061446E0
9.799619958E0,2.398162994E0,-6.530918884E0,1.331331482E0,7.083539421E0
9.809558958E0,2.264191589E0,-6.623576202E0,1.634002075E0,7.188065668E0
9.819498958E0,2.400558014E0,-6.636000366E0,1.968107300E0,7.326160385E0
9.829437958E0,2.411934357E0,-6.489155731E0,2.285746765E0,7.290487482E0
9.839377958E0,2.402803345E0,-6.586154022E0,2.484982452E0,7.438146712E0
9.849316958E0,2.331401825E0,-6.768624573E0,2.591411133E0,7.613483088E0
9.859256958E0,2.299069061E0,-6.930288391E0,2.737657013E0,7.798037038E0
9.869195958E0,2.260000305E0,-7.312443695E0,2.805615692E0,8.151742978E0
9.879135958E0,2.301763458E0,-7.683671722E0,2.724185028E0,8.471015891E0
9.889074958E0,2.322869568E0,-7.903414764E0,2.699785767E0,8.668825246E0
9.899014958E0,2.314936066E0,-8.126001892E0,2.601589966E0,8.840763886E0
9.908953958E0,2.265538788E0,-8.330776062E0,2.574047241E0,9.008896436E0
9.918892958E0,2.224374390E0,-8.450377350E0,2.472408600E0,9.081273207E0
9.928832958E0,2.206262054E0,-8.662037201E0,2.304158478E0,9.230797745E0
9.938771958E0,2.254611511E0,-9.022936707E0,2.251917114E0,9.569106048E0
9.948712375E0,2.517165527E0,-9.438472595E0,2.300715637E0,1.003564545E1
9.958651375E0,2.794389038E0,-9.699978790E0,2.498155060E0,1.039898925E1
9.968591375E0,3.256178741E0,-9.635013885E0,2.760858765E0,1.053843127E1
9.978530375E0,3.638483734E0,-9.497000885E0,3.256328430E0,1.067872954E1
9.988470375E0,4.092489624E0,-9.306447144E0,3.807781677E0,1.085622545E1
9.998409375E0,4.070934448E0,-9.247619476E0,4.090693359E0,1.090067637E1
1.000834937E1,3.640429688E0,-9.722581787E0,4.161945190E0,1.118495028E1
1.001828837E1,3.020568695E0,-1.039049286E1,3.932622070E0,1.151310963E1
1.002822837E1,2.796634369E0,-1.124102417E1,3.271297302E0,1.203674267E1
1.003816737E1,3.187471619E0,-1.207179657E1,2.437830505E0,1.272129181E1
1.004810738E1,4.008663940E0,-1.253987320E1,1.748663635E0,1.328064874E1
1.005804637E1,5.358556824E0,-1.243030106E1,1.385518799E0,1.360684305E1
1.006798538E1,6.203549652E0,-1.153665939E1,1.096469879E0,1.314461047E1
1.007792537E1,6.431375885E0,-1.065648972E1,7.511380005E-1,1.246946579E1
1.008786438E1,6.707252197E0,-1.017464172E1,4.061054993E-1,1.219325584E1
1.009780437E1,6.936575317E0,-9.917326813E0,4.213737488E-1,1.210978960E1
1.010774338E1,6.693331146E0,-9.819430389E0,9.391470337E-1,1.192073371E1
1.011768337E1,6.213728485E0,-9.670041046E0,2.107617188E-1,1.149628357E1
1.012762238E1,5.806724854E0,-9.981692963E0,-1.007854156E0,1.159172196E1
1.013756237E1,5.085524597E0,-1.061697189E1,-6.689588928E-1,1.179110506E1
1.014750138E1,5.102289734E0,-1.021984772E1,-9.298663330E-1,1.146051043E1
1.015744137E1,5.804778900E0,-9.933942261E0,-1.545386353E0,1.160891407E1
1.016738038E1,5.879922638E0,-1.008737320E1,-8.972341919E-1,1.171040638E1
1.017731938E1,5.759572906E0,-1.030517029E1,-3.963757324E-1,1.181212633E1
1.018725938E1,5.539530487E0,-1.009575577E1,4.442761230E-1,1.152423810E1
1.019719838E1,5.185666351E0,-9.492061157E0,1.321302338E0,1.089661417E1
1.020713838E1,4.832101593E0,-8.754095764E0,1.731000366E0,1.014789440E1
1.021707738E1,4.659809875E0,-8.229287109E0,1.452878723E0,9.567959604E0
1.022701738E1,4.272265778E0,-7.870782623E0,1.241069183E0,9.041113134E0
1.023695638E1,3.928131409E0,-7.559280396E0,1.377585297E0,8.629639489E0
1.024689637E1,3.677103424E0,-7.317383423E0,1.376238098E0,8.304168896E0
1.025683538E1,3.543132019E0,-7.006180573E0,1.159937897E0,7.936359785E0
1.026677537E1,3.460653534E0,-6.641838226E0,8.093669128E-1,7.532941836E0
1.027671438E1,3.298241272E0,-6.301446075E0,4.667294312E-1,7.127724356E0
1.028665437E1,3.162473602E0,-6.221661987E0,5.405259705E-1,7.000177533E0
1.029659338E1,3.483855286E0,-6.007756805E0,5.599855042E-1,6.967350519E0
1.030653237E1,3.621868286E0,-5.902375946E0,7.801776123E-1,6.968834106E0
1.031647238E1,3.621269531E0,-5.816454620E0,9.776170349E-1,6.921016720E0
1.032641137E1,3.594325562E0,-6.047873383E0,1.322499847E0,7.158558133E0
1.033635138E1,3.545077972E0,-6.233038330E0,1.647324371E0,7.357446720E0
1.034629037E1,3.360062714E0,-6.569388885E0,2.065704346E0,7.662507828E0
1.035623038E1,3.228037262E0,-6.834188232E0,2.445314941E0,7.943923371E0
1.036616937E1,3.245251465E0,-6.965465240E0,2.613415375E0,8.116606619E0
1.037610938E1,3.245999908E0,-6.977739716E0,2.695594482E0,8.154237951E0
1.038604837E1,3.414250031E0,-7.038363647E0,2.744692383E0,8.290295675E0
1.039598838E1,3.674109650E0,-7.025789795E0,2.710563354E0,8.379018896E0
1.040592737E1,3.781586151E0,-7.016958160E0,2.635419617E0,8.395447111E0
1.041586738E1,3.786376190E0,-7.103178864E0,2.734663239E0,8.501186838E0
1.042580637E1,3.971241760E0,-7.181915131E0,2.804717560E0,8.672779638E0
1.043574537E1,4.110901337E0,-7.428153076E0,2.741399231E0,8.921448182E0
1.044568537E1,4.292473755E0,-7.891888733E0,2.797382812E0,9.409175804E0
1.045562437E1,4.453688507E0,-8.371940460E0,2.820734253E0,9.893496354E0
1.046556437E1,4.534071350E0,-8.731193390E0,2.855462036E0,1.024427667E1
1.047550337E1,4.602628784E0,-8.938961334E0,2.893482971E0,1.046238334E1
1.048544337E1,4.720733185E0,-9.175918579E0,3.074157257E0,1.076723021E1
1.049538237E1,4.814138947E0,-9.451495514E0,3.293750610E0,1.110655186E1
1.050532237E1,4.724625092E0,-9.654323730E0,3.444187775E0,1.128673905E1
1.051526137E1,4.572092285E0,-9.634864197E0,3.582051086E0,1.125014337E1
1.052520137E1,4.856500854E0,-9.543404388E0,3.628604279E0,1.130614598E1
1.053514037E1,5.713169403E0,-9.841135254E0,3.408861237E0,1.187891336E1
1.054508037E1,6.341412964E0,-1.055110886E1,2.935246124E0,1.265523948E1
1.055501937E1,6.480174408E0,-1.175266022E1,2.369273071E0,1.362832115E1
1.056495838E1,6.317612457E0,-1.278266830E1,1.666035461E0,1.435564385E1
1.057489837E1,6.024671631E0,-1.312560516E1,1.208586731E0,1.449271752E1
1.058483738E1,5.621559906E0,-1.315943481E1,5.908213806E-1,1.432207144E1
1.059477737E1,5.208119659E0,-1.258642639E1,-1.747166748E0,1.373299790E1
1.060471638E1,4.411925354E0,-1.196611633E1,-1.548230438E0,1.284718035E1
1.061465637E1,4.163442078E0,-1.124446701E1,3.839515686E-1,1.199665400E1
1.062459538E1,4.783003693E0,-1.034813095E1,9.616003418E-1,1.144052506E1
1.063453537E1,4.446653137E0,-8.945697327E0,1.128652954E-1,9.990543697E0
1.064447438E1,4.709656219E0,-8.034991150E0,-2.879112854E0,9.748396551E0
1.065441437E1,5.212760010E0,-8.134534149E0,-2.703677673E0,1.003261609E1
1.066435338E1,5.262306976E0,-8.626560974E0,-1.235081635E0,1.018012061E1
1.067429337E1,5.103786621E0,-9.295819244E0,-1.182241516E0,1.067045399E1
1.068423238E1,4.592300262E0,-9.990973663E0,-4.343966675E-1,1.100442988E1
1.069417137E1,3.776347046E0,-1.045740372E1,5.707630920E-1,1.113300768E1
1.070411138E1,3.168161774E0,-1.029648834E1,1.006506958E0,1.081979563E1
1.071405038E1,2.809058533E0,-9.567803650E0,1.128353577E0,1.003528068E1
1.072399038E1,2.470612335E0,-9.517957306E0,1.250349884E0,9.912558268E0
1.073392938E1,2.325713654E0,-9.271719360E0,1.323697357E0,9.650176091E0
1.074386938E1,2.374362488E0,-8.735234985E0,1.326092377E0,9.148794919E0
1.075380838E1,2.480342102E0,-8.218808899E0,1.175206146E0,8.664988525E0
1.076374838E1,2.557132416E0,-7.704628143E0,1.032253418E0,8.183261461E0
1.077368738E1,2.590962067E0,-7.326664124E0,9.797126770E-1,7.832811024E0
1.078362737E1,2.567460938E0,-7.044500885E0,8.746311951E-1,7.548630877E0
1.079356638E1,2.572400665E0,-6.759493561E0,9.142987061E-1,7.289989061E0
1.080350537E1,2.363135834E0,-6.566095734E0,1.106049957E0,7.065505690E0
1.081344538E1,2.012714539E0,-6.665189667E0,1.261875916E0,7.075881848E0
1.082338437E1,1.885928192E0,-6.772516479E0,1.669029236E0,7.225604694E0
1.083332438E1,1.794318695E0,-6.728358307E0,1.957030334E0,7.233280916E0
1.084326337E1,1.800904999E0,-6.710695038E0,2.139351196E0,7.270041970E0
1.085320338E1,1.777703247E0,-6.786138153E0,2.335443420E0,7.393659164E0
1.086314237E1,1.685794373E0,-6.931336212E0,2.488425293E0,7.554970866E0
1.087308238E1,1.748663635E0,-7.088509369E0,2.657573547E0,7.769651649E0
1.088302137E1,1.754651184E0,-7.335046692E0,2.708018646E0,8.013430959E0
1.089296138E1,1.912722473E0,-7.564669189E0,2.759212189E0,8.276229764E0
1.090290037E1,2.091301117E0,-7.886799316E0,2.719844055E0,8.600738079E0
1.091284038E1,2.290536804E0,-8.140521698E0,2.620001678E0,8.853194969E0
1.092277937E1,2.220632172E0,-8.182883606E0,2.581531677E0,8.863131340E0
1.093271938E1,2.237546997E0,-8.274193726E0,2.619552612E0,8.962753721E0
1.094265837E1,2.101929016E0,-8.452323303E0,2.701282654E0,9.119035189E0
1.095259683E1,1.993404694E0,-8.706345062E0,2.734663239E0,9.340904113E0
1.096253683E1,2.012564850E0,-8.950487366E0,2.692151642E0,9.560822236E0
1.097247583E1,2.158361664E0,-9.405840454E0,2.519710236E0,9.973830728E0
1.098241583E1,2.739902344E0,-9.720785522E0,2.340383148E0,1.036716592E1
1.099235483E1,3.384012909E0,-9.626631317E0,2.264790344E0,1.045240877E1
1.100229483E1,4.066892853E0,-9.363328857E0,2.343227234E0,1.047388460E1
1.101223383E1,4.818779297E0,-9.100026398E0,2.842738495E0,1.068233479E1
1.102217383E1,5.173990631E0,-8.873697052E0,3.599115601E0,1.088422306E1
1.103211283E1,4.681365051E0,-9.111402740E0,4.148024139E0,1.105164888E1
1.104205283E1,3.491040344E0,-9.807455292E0,4.350253601E0,1.128265254E1
1.105199183E1,2.239492950E0,-1.056368271E1,4.203109589E0,1.158761629E1
1.106193183E1,1.719474335E0,-1.120225479E1,3.685485992E0,1.191763028E1
1.107187083E1,2.284399567E0,-1.187196213E1,2.969674530E0,1.244913382E1
1.108180983E1,3.062930603E0,-1.245709534E1,2.055525513E0,1.299176482E1
1.109174983E1,4.123624878E0,-1.271605682E1,1.354383545E0,1.343639602E1
1.110168883E1,5.361849976E0,-1.239512421E1,8.759783936E-1,1.353350943E1
1.111162883E1,6.534212036E0,-1.154159912E1,3.168910217E-1,1.326668222E1
1.112156783E1,7.388036499E0,-1.097712296E1,-2.222877502E-1,1.323365874E1
1.113150783E1,8.208480377E0,-1.078192886E1,-4.334985352E-1,1.355791507E1
1.114144683E1,8.180189209E0,-1.009156448E1,5.493576050E-2,1.299069618E1
1.115138683E1,7.317383423E0,-9.912836151E0,9.904902649E-1,1.236080465E1
1.116132583E1,6.969207458E0,-9.596244507E0,7.656578064E-1,1.188461161E1
1.117126583E1,7.262896729E0,-8.665629730E0,-1.334624634E0,1.138525496E1
1.118120483E1,5.905369720E0,-9.027127991E0,-1.988914032E0,1.096896578E1
1.119114483E1,4.785997467E0,-9.322164459E0,-2.600093079E0,1.079671274E1
1.120108383E1,5.070106659E0,-9.476343842E0,-2.772384796E0,1.109924284E1
1.121102383E1,5.387895813E0,-9.759704590E0,-1.568588104E0,1.125796268E1
1.122096283E1,5.595514069E0,-9.345515900E0,-4.561015320E-1,1.090213161E1
1.123090183E1,5.321883087E0,-9.007219391E0,7.568261719E-1,1.048929104E1
1.124084183E1,5.042563934E0,-8.681646423E0,1.810485077E0,1.020177886E1
1.125078083E1,4.798271942E0,-8.273744659E0,2.169288940E0,9.807348206E0
1.126072083E1,4.581672363E0,-8.214018860E0,1.537602539E0,9.530270145E0
1.127065983E1,4.180057526E0,-8.093669128E0,1.422791290E0,9.219799127E0
1.128059983E1,4.009412384E0,-7.845934296E0,1.549427948E0,8.946217055E0
1.129053883E1,3.798800354E0,-7.583080902E0,1.356778564E0,8.589228613E0
1.130047883E1,3.503314819E0,-7.282955017E0,1.039438477E0,8.148317670E0
1.131041783E1,3.387156372E0,-7.082821198E0,7.448510742E-1,7.886316474E0
1.132035783E1,3.552412720E0,-6.860982513E0,7.637118530E-1,7.763760234E0
1.133029683E1,3.635040894E0,-6.712491302E0,8.400531006E-1,7.679632217E0
1.134023683E1,3.733236694E0,-6.555318146E0,1.024768982E0,7.613107360E0
1.135017583E1,3.828289032E0,-6.370602264E0,1.216819611E0,7.531335877E0
1.136011483E1,3.736230469E0,-6.445596313E0,1.576222229E0,7.615090706E0
1.137005483E1,3.618724823E0,-6.578968964E0,1.778601379E0,7.716309016E0
1.137999383E1,3.543281708E0,-6.756948853E0,1.973945160E0,7.880841487E0
1.138993383E1,3.620221710E0,-6.743327179E0,2.145937500E0,7.948805849E0
1.139987283E1,3.544778595E0,-6.787036285E0,2.353406067E0,8.010482941E0
1.140981283E1,3.448528748E0,-6.925797729E0,2.433190155E0,8.110452456E0
1.141975183E1,3.359164581E0,-6.874903564E0,2.547851715E0,8.064727774E0
1.142969183E1,3.388802948E0,-6.858288116E0,2.698288879E0,8.111773184E0
1.143963083E1,3.465144196E0,-6.853198700E0,2.575394440E0,8.099766246E0
1.144957083E1,3.497476959E0,-6.858288116E0,2.410736847E0,8.067224623E0
1.145950983E1,3.603606262E0,-6.829847260E0,2.289339294E0,8.054431456E0
1.146944983E1,3.782334595E0,-6.910379791E0,2.102976837E0,8.153644303E0
1.147938883E1,4.186045074E0,-7.103927307E0,1.899250488E0,8.461436578E0
1.148932883E1,4.709506531E0,-7.437583466E0,1.841320953E0,8.993751299E0
1.149926783E1,5.007985840E0,-7.955057373E0,1.972148895E0,9.604802509E0
1.150920683E1,5.205425262E0,-8.272247772E0,2.253414001E0,1.003017498E1
1.151914683E1,5.013075256E0,-8.725056152E0,2.673440552E0,1.041176319E1
1.152908583E1,4.954247589E0,-9.139244843E0,3.110381927E0,1.085102950E1
1.153902583E1,4.833598480E0,-9.442663879E0,3.547173615E0,1.118525887E1
1.154896483E1,4.589456177E0,-9.545799408E0,3.765868835E0,1.124131498E1
1.155890483E1,4.574636993E0,-9.456285553E0,3.604055328E0,1.110575774E1
1.156884383E1,4.808151398E0,-9.671837311E0,3.112327881E0,1.124052230E1
1.157878383E1,5.250780945E0,-1.012015503E1,2.585273895E0,1.169067489E1
1.158872283E1,5.597310333E0,-1.071816147E1,1.864822083E0,1.223464056E1
1.159866283E1,5.843697968E0,-1.158545792E1,1.307231598E0,1.304149131E1
1.160860183E1,6.000272369E0,-1.233719467E1,9.842033386E-1,1.375421016E1
1.161854183E1,6.083648987E0,-1.238329880E1,8.822653198E-1,1.382516785E1
1.162848083E1,6.055956573E0,-1.208960953E1,6.015989685E-1,1.353496176E1
1.163842083E1,5.410199432E0,-1.156749527E1,3.423381042E-1,1.277475636E1
1.164835983E1,4.372108154E0,-1.110675339E1,1.296304321E-1,1.193700568E1
1.165829883E1,4.508324890E0,-1.047611481E1,1.913021851E-1,1.140660209E1
1.166823883E1,5.245242462E0,-9.458231506E0,-5.879772949E-1,1.083127089E1
1.167817783E1,5.550607452E0,-8.569230194E0,-1.998943176E0,1.040368795E1
1.168811783E1,5.250780945E0,-8.701854401E0,-2.297871552E0,1.041984569E1
1.169805683E1,5.191803589E0,-8.653504944E0,-1.167272644E0,1.015876458E1
1.170799683E1,5.832770691E0,-8.772507477E0,-1.233734436E0,1.060661124E1
1.171793583E1,5.601052551E0,-9.605525208E0,-7.418572998E-1,1.114397848E1
1.172787583E1,5.101990356E0,-1.017104919E1,-1.722917175E-1,1.138025623E1
1.173781483E1,4.400848389E0,-1.030517029E1,4.146377563E-1,1.121320319E1
1.174775483E1,3.835923157E0,-1.015712814E1,8.210426331E-1,1.088832722E1
1.175769383E1,3.562441864E0,-9.794132996E0,9.457333374E-1,1.046472382E1
1.176763383E1,3.468137970E0,-9.313183136E0,9.449848938E-1,9.982803091E0
1.177757283E1,3.281625824E0,-9.097781067E0,1.247954865E0,9.751721886E0
1.178751283E1,3.235222321E0,-8.581504669E0,1.289718018E0,9.261331352E0
1.179745183E1,3.248245239E0,-8.127498779E0,1.148711243E0,8.827619785E0
1.180739083E1,3.189716949E0,-7.741601257E0,1.062041473E0,8.440060209E0
1.181733083E1,3.069067841E0,-7.441774750E0,1.022673340E0,8.114496263E0
1.182726983E1,2.855761414E0,-7.200027466E0,1.100661163E0,7.823504570E0
1.183720983E1,2.766696625E0,-7.009473724E0,1.085392914E0,7.613501815E0
1.184714883E1,2.717748413E0,-6.976841583E0,1.136137390E0,7.573195038E0
1.185708883E1,2.686762848E0,-6.933731232E0,1.321152649E0,7.552533861E0
1.186702783E1,2.609523468E0,-6.906038818E0,1.521735535E0,7.537815594E0
1.187696783E1,2.654130707E0,-6.921456757E0,1.719474335E0,7.609702059E0
1.188690683E1,2.657423859E0,-6.851402435E0,2.017504578E0,7.620626065E0
1.189684683E1,2.693349152E0,-6.833589478E0,2.232307892E0,7.676931244E0
1.190678583E1,2.695744171E0,-6.831344147E0,2.372266846E0,7.717638854E0
1.191672583E1,2.634671173E0,-6.874604187E0,2.555036774E0,7.792938331E0
1.192666483E1,2.664309540E0,-7.120542755E0,2.517165527E0,8.008545233E0
1.193660483E1,2.750829620E0,-7.413932648E0,2.399210815E0,8.263756618E0
1.194654400E1,2.720592499E0,-7.626640320E0,2.259401550E0,8.406673627E0
1.195648400E1,2.753673706E0,-7.830965424E0,2.174977112E0,8.581215752E0
1.196642300E1,2.731819153E0,-7.942034454E0,2.152374115E0,8.670147720E0
1.197636200E1,2.611469421E0,-8.067922668E0,2.157313843E0,8.750151527E0
1.198630200E1,2.603386230E0,-8.216563568E0,2.164049835E0,8.886655638E0
1.199624100E1,2.524949341E0,-8.431516571E0,2.105671234E0,9.049844872E0
1.200618100E1,2.601739655E0,-8.703950043E0,2.016157379E0,9.305519123E0
1.201612000E1,2.852168884E0,-8.988657990E0,2.045196991E0,9.649542504E0
1.202606000E1,3.421135712E0,-9.084159393E0,2.192790070E0,9.951605385E0
1.203599900E1,3.722309418E0,-9.198970642E0,2.499951324E0,1.023359198E1
1.204593900E1,3.927832031E0,-9.525142365E0,2.867137756E0,1.069470338E1
1.205587800E1,4.186494141E0,-9.750723267E0,3.345991974E0,1.112649989E1
1.206581800E1,4.454137573E0,-9.764794006E0,3.824546814E0,1.139375714E1
1.207575700E1,4.126019897E0,-1.003543121E1,3.901636505E0,1.153068460E1
1.208569700E1,3.571273499E0,-1.071950867E1,3.594175873E0,1.185664205E1
1.209563600E1,3.603755951E0,-1.145882126E1,2.976410522E0,1.237540550E1
1.210557600E1,4.399052124E0,-1.228001358E1,2.204615479E0,1.322916182E1
1.211551500E1,5.405409393E0,-1.278072235E1,1.342258759E0,1.394155562E1
1.212545500E1,5.960155792E0,-1.299043625E1,7.225474548E-1,1.431072905E1
1.213539400E1,5.928571472E0,-1.229842529E1,1.501377869E-1,1.365363562E1
1.214533400E1,5.608237610E0,-1.137843842E1,2.752775574E-1,1.268845805E1
1.215527300E1,5.567073212E0,-1.060918808E1,4.975653076E-1,1.199144475E1
1.216521200E1,5.385650482E0,-9.849966888E0,2.779719543E-1,1.122961919E1
1.217515200E1,5.184019775E0,-9.073381805E0,-5.418731689E-2,1.045003611E1
1.218509100E1,4.478686523E0,-8.882229309E0,-8.155041504E-1,9.980865568E0
1.219503100E1,4.151317291E0,-8.681197357E0,-1.149010620E0,9.691070540E0
1.220497000E1,4.681514740E0,-8.680299225E0,-1.615141296E0,9.993640793E0
1.221491000E1,5.447621613E0,-8.764723663E0,-1.669328613E0,1.045388063E1
1.222484900E1,5.833818512E0,-9.089398499E0,-1.118025055E0,1.085820351E1
1.223478900E1,5.976022797E0,-9.287885742E0,-4.649331665E-1,1.105413194E1
1.224472800E1,5.853876801E0,-9.360035706E0,2.957849121E-1,1.104380508E1
1.225466800E1,5.522465973E0,-9.359736328E0,9.530680847E-1,1.090919948E1
1.226460700E1,5.380860443E0,-9.318871307E0,1.423240356E0,1.085452139E1
1.227454700E1,5.303471375E0,-9.227710876E0,1.583257599E0,1.076030489E1
1.228448600E1,5.130730591E0,-8.804241486E0,1.668131104E0,1.032577968E1
1.229442600E1,4.928351440E0,-8.404273224E0,1.656904449E0,9.882600300E0
1.230436500E1,4.699028320E0,-8.104147339E0,1.591640167E0,9.502178154E0
1.231430500E1,4.313879242E0,-7.880063324E0,1.445394287E0,9.099127252E0
1.232424400E1,3.987258453E0,-7.573351135E0,1.182989960E0,8.640216585E0
1.233418300E1,3.679498444E0,-7.139104156E0,1.050964508E0,8.100002676E0
1.234412300E1,3.305276642E0,-6.925648041E0,1.002315674E0,7.739127288E0
1.235406200E1,3.140020294E0,-6.813830566E0,8.078700256E-1,7.545904082E0
1.236400200E1,3.205583954E0,-6.641389160E0,8.327183533E-1,7.421404066E0
1.237394100E1,3.338507538E0,-6.416107635E0,9.160949707E-1,7.290493794E0
1.238388100E1,3.283122711E0,-6.248905334E0,1.140478363E0,7.150412821E0
1.239382000E1,3.425326996E0,-6.088888092E0,1.327589264E0,7.111252807E0
1.240376000E1,3.479514313E0,-6.001320190E0,1.609602814E0,7.121354162E0
1.241369900E1,3.492686920E0,-6.088738403E0,1.927541656E0,7.279217960E0
1.242363900E1,3.410956879E0,-6.118376770E0,2.122436371E0,7.319419190E0
1.243357800E1,3.339255981E0,-6.184539185E0,2.470312958E0,7.449939701E0
1.244351800E1,3.364553375E0,-6.358327789E0,2.740800476E0,7.698086706E0
1.245345700E1,3.638633423E0,-6.481970673E0,2.959495697E0,8.000888186E0
1.246339700E1,3.811374207E0,-6.643484802E0,3.044818268E0,8.242170948E0
1.247333600E1,4.044888611E0,-6.711593170E0,2.898871765E0,8.355241724E0
1.248327600E1,4.302353210E0,-6.794071655E0,2.620600433E0,8.457966625E0
1.249321500E1,4.391268311E0,-6.907685394E0,2.138003998E0,8.459930022E0
1.250315400E1,4.518054657E0,-7.159761200E0,1.692979431E0,8.633723280E0
1.251309400E1,4.721930695E0,-7.455995178E0,1.347198486E0,8.927678161E0
1.252303300E1,4.900958405E0,-7.920479279E0,1.449286194E0,9.426230199E0
1.253297300E1,5.150639191E0,-8.531808014E0,1.744322662E0,1.011748455E1
1.254291200E1,5.153183899E0,-9.137149200E0,2.082319794E0,1.069480507E1
1.255285200E1,4.986280975E0,-9.561217346E0,2.771786041E0,1.113385257E1
1.256279100E1,4.634063416E0,-1.004486160E1,3.579805756E0,1.162707176E1
1.257273100E1,4.362827454E0,-1.027657974E1,4.108805695E0,1.189641286E1
1.258267000E1,4.121828613E0,-1.036280045E1,4.358785858E0,1.197397671E1
1.259261000E1,4.157155151E0,-1.019634659E1,4.564907227E0,1.191997486E1
1.260254900E1,4.489763489E0,-9.966424713E0,4.300856323E0,1.174670008E1
1.261248900E1,5.132227478E0,-9.924661560E0,3.863765259E0,1.182232413E1
1.262242800E1,5.918392639E0,-1.014275803E1,3.389701080E0,1.222264232E1
1.263236800E1,6.334527283E0,-1.053883438E1,2.816393280E0,1.261448917E1
1.264230700E1,6.394702148E0,-1.107621689E1,2.029180298E0,1.294960883E1
1.265224700E1,6.205495605E0,-1.142858414E1,1.325942688E0,1.307206315E1
1.266218600E1,6.211932220E0,-1.143292511E1,8.726852417E-1,1.304076140E1
1.267212600E1,5.560636597E0,-1.162497574E1,1.695973206E-1,1.288757167E1
1.268206500E1,4.443359985E0,-1.151046387E1,-4.813989258E-1,1.234771118E1
1.269200400E1,3.632196808E0,-1.137289993E1,-9.075627136E-1,1.197327761E1
1.270194400E1,3.879781952E0,-1.063194077E1,-8.614585876E-1,1.135046181E1
1.271188300E1,4.703668671E0,-9.593101044E0,-5.812413025E-1,1.069999664E1
1.272182300E1,5.082979889E0,-9.136999512E0,-6.116281128E-1,1.047356356E1
1.273176200E1,4.935386810E0,-9.054670715E0,-1.408121796E0,1.040806955E1
1.274170200E1,5.502257996E0,-8.905431061E0,-1.223854980E0,1.053941964E1
1.275164100E1,5.635031891E0,-9.076674957E0,-5.186714172E-1,1.069619712E1
1.276158100E1,5.460045776E0,-9.622739410E0,-7.255412292E-1,1.108763382E1
1.277152000E1,5.024601288E0,-1.003722748E1,-7.934999084E-1,1.125265283E1
1.278146000E1,4.378395081E0,-1.033750305E1,1.210981750E-1,1.122715358E1
1.279139900E1,3.883524170E0,-1.002884491E1,7.933502197E-1,1.078373288E1
1.280133900E1,3.749103699E0,-9.410780182E0,1.022373962E0,1.018154265E1
1.281127800E1,3.588487701E0,-8.812923431E0,1.049317932E0,9.573188158E0
1.282121800E1,3.355272675E0,-8.549770660E0,1.202000427E0,9.262895773E0
1.283115700E1,3.323388977E0,-8.107141113E0,1.327439575E0,8.861870409E0
1.284109700E1,3.246898041E0,-7.549850006E0,1.322799225E0,8.324204454E0
1.285103600E1,3.164419556E0,-7.144043884E0,1.302291870E0,7.921292714E0
1.286097600E1,3.061284027E0,-6.830595703E0,1.346599731E0,7.605381541E0
1.287091500E1,2.912044373E0,-6.705006866E0,1.360071716E0,7.435517102E0
1.288085400E1,2.629132690E0,-6.647975464E0,1.333427124E0,7.272272297E0
1.289079400E1,2.415676575E0,-6.649622040E0,1.475781097E0,7.227094605E0
1.290073300E1,2.294428711E0,-6.706653442E0,1.661694489E0,7.280441750E0
1.291067300E1,2.242935791E0,-6.870861969E0,1.851499786E0,7.461069402E0
1.292061200E1,2.225122833E0,-7.047943726E0,2.064057770E0,7.673657333E0
1.293055200E1,2.130818939E0,-7.236102448E0,2.261646881E0,7.875062831E0
1.294049100E1,2.151775360E0,-7.360942841E0,2.316732330E0,8.011296112E0
1.295043108E1,2.219734039E0,-7.422015839E0,2.468217316E0,8.130537192E0
1.296037008E1,2.274819489E0,-7.551197205E0,2.539169769E0,8.285093002E0
1.297031008E1,2.281854858E0,-7.846383362E0,2.426753540E0,8.524184782E0
1.298024908E1,2.416724396E0,-8.131240997E0,2.458337860E0,8.831820990E0
1.299018908E1,2.424208832E0,-8.195756836E0,2.388133850E0,8.874142317E0
1.300012808E1,2.413730621E0,-8.099806366E0,2.381098480E0,8.780807973E0
1.301006808E1,2.432741089E0,-8.046666870E0,2.429597626E0,8.750429792E0
1.302000708E1,2.316582642E0,-8.100105743E0,2.417622528E0,8.764882594E0
1.302994708E1,2.167342987E0,-8.284073181E0,2.436932373E0,8.902914325E0
1.303988608E1,2.199226685E0,-8.477770386E0,2.594404907E0,9.134556669E0
1.304982608E1,2.216291199E0,-8.684041443E0,2.779420166E0,9.383480107E0
1.305976508E1,2.370620270E0,-8.913663940E0,2.913990326E0,9.672878833E0
1.306970508E1,2.712509308E0,-9.102720795E0,3.097658386E0,9.990631616E0
1.307964408E1,2.942580872E0,-9.348809052E0,3.229683838E0,1.031939294E1
1.308958308E1,3.233276367E0,-9.611662445E0,3.348836060E0,1.067955214E1
1.309952308E1,3.840563507E0,-9.600435791E0,3.431314545E0,1.089459568E1
1.310946208E1,4.436623993E0,-9.367819519E0,3.568878479E0,1.096250740E1
1.311940208E1,4.297114105E0,-9.704020386E0,3.488795013E0,1.117161098E1
1.312934108E1,4.164340210E0,-1.063837738E1,3.166365509E0,1.185506952E1
1.313928108E1,4.613705750E0,-1.157033936E1,2.738255768E0,1.275370841E1
1.314922008E1,5.856571198E0,-1.237162308E1,2.345023499E0,1.388724663E1
1.315916008E1,6.965165863E0,-1.238539444E1,1.892065430E0,1.433497271E1
1.316909908E1,7.549850006E0,-1.174367889E1,1.608405304E0,1.405351190E1
1.317903908E1,7.256160736E0,-1.066277664E1,1.504072266E0,1.298494928E1
1.318897808E1,7.085216217E0,-9.999954987E0,1.111289062E0,1.230586657E1
1.319891808E1,7.075336761E0,-1.003812561E1,6.722520447E-1,1.229944222E1
1.320885708E1,6.756948853E0,-9.724228363E0,3.743714905E-1,1.184724141E1
1.321879708E1,6.274801483E0,-9.751322021E0,-1.175206146E0,1.165515012E1
1.322873608E1,5.432203674E0,-9.859397278E0,-7.788304138E-1,1.128375506E1
1.323867608E1,5.441484375E0,-9.331145782E0,-1.952090607E0,1.097682520E1
1.324861508E1,5.686824188E0,-9.390572205E0,-2.676284637E0,1.129979270E1
1.325855508E1,5.638774109E0,-9.704319763E0,-2.667752380E0,1.153631216E1
1.326849408E1,5.631439362E0,-9.982142029E0,-1.863923950E0,1.161165282E1
1.327843408E1,6.108048248E0,-1.014156052E1,-1.228794708E0,1.190249720E1
1.328837308E1,5.983956299E0,-9.943522339E0,1.079255676E-1,1.160573209E1
1.329831208E1,5.428760834E0,-9.481133881E0,8.967851257E-1,1.096209685E1
1.330825208E1,5.002896423E0,-8.951834564E0,1.690734100E0,1.039340639E1
1.331819108E1,4.822521515E0,-8.255782013E0,1.854194183E0,9.739234389E0
1.332813108E1,4.379143524E0,-8.076454926E0,1.492097168E0,9.307651483E0
1.333807008E1,4.029919739E0,-7.899522858E0,1.663640442E0,9.022771969E0
1.334801008E1,3.829336853E0,-7.497309265E0,1.846410370E0,8.618741103E0
1.335794908E1,3.717968445E0,-7.136260071E0,1.610650635E0,8.206320285E0
1.336788908E1,3.606300659E0,-6.869514771E0,1.265618134E0,7.861133944E0
1.337782808E1,3.532204742E0,-6.630461884E0,1.051862640E0,7.585902065E0
1.338776808E1,3.575764160E0,-6.432124329E0,1.011446686E0,7.428414172E0
1.339770708E1,3.643423462E0,-6.376889191E0,9.791139221E-1,7.409312677E0
1.340764708E1,3.648512878E0,-6.274951172E0,1.202898560E0,7.357555530E0
1.341758608E1,3.697910156E0,-6.271658020E0,1.468895416E0,7.427374205E0
1.342752608E1,3.832480316E0,-6.271658020E0,1.553768921E0,7.512376292E0
1.343746508E1,3.803141327E0,-6.403533783E0,1.695673828E0,7.638353134E0
1.344740508E1,3.756288757E0,-6.518943787E0,1.864373016E0,7.751272158E0
1.345734408E1,3.655398560E0,-6.643784180E0,2.138602753E0,7.878796138E0
1.346728408E1,3.460503845E0,-6.815477142E0,2.274370422E0,7.974871557E0
1.347722308E1,3.230581970E0,-6.969806213E0,2.467169495E0,8.068567644E0
1.348716308E1,3.236868896E0,-6.847360840E0,2.621348877E0,8.014682817E0
1.349710208E1,3.373684387E0,-6.845564575E0,2.737657013E0,8.107913827E0
1.350704108E1,3.515140228E0,-6.824009399E0,2.857407990E0,8.190732295E0
1.351698108E1,3.620521088E0,-6.671326904E0,2.796484680E0,8.089196634E0
1.352692008E1,3.680695953E0,-6.570436707E0,2.621498566E0,7.974359908E0
1.353686008E1,3.798650665E0,-6.623576202E0,2.562670898E0,8.054116384E0
1.354679908E1,4.088148651E0,-6.779252472E0,2.351011047E0,8.258236883E0
1.355673908E1,4.490811310E0,-7.102430420E0,1.960772552E0,8.628819913E0
1.356667808E1,4.734803925E0,-7.680677948E0,1.801503754E0,9.200902006E0
1.357661808E1,4.859045563E0,-8.295000458E0,1.961670685E0,9.811498777E0
1.358655708E1,5.021008759E0,-8.872948608E0,2.200573883E0,1.042987399E1
1.359649708E1,5.100343781E0,-9.428892517E0,2.518662415E0,1.101186547E1
1.360643608E1,4.758305054E0,-1.007090744E1,2.857707367E0,1.149917976E1
1.361637608E1,4.283642120E0,-1.029080017E1,3.340902557E0,1.163665707E1
1.362631508E1,4.243226166E0,-9.950258331E0,3.843257904E0,1.147968817E1
1.363625508E1,4.785099335E0,-9.500743103E0,4.165388031E0,1.142417404E1
1.364619408E1,5.549709320E0,-9.567953339E0,4.028572540E0,1.177176288E1
1.365613408E1,6.133495331E0,-1.014335678E1,3.706143036E0,1.241945844E1
1.366607308E1,6.260281677E0,-1.087698120E1,3.372935944E0,1.299525081E1
1.367601308E1,6.146518250E0,-1.163156204E1,3.018173676E0,1.349749215E1
1.368595208E1,5.959557037E0,-1.225321930E1,2.123783569E0,1.379014720E1
1.369589208E1,5.847589874E0,-1.238928635E1,1.476978607E0,1.377933922E1
1.370583108E1,5.928571472E0,-1.203302719E1,1.460961914E0,1.349355820E1
1.371577108E1,5.874533844E0,-1.137544464E1,6.938072205E-1,1.282155440E1
1.372571008E1,5.297783203E0,-1.088701035E1,-8.463400269E-1,1.213712456E1
1.373564908E1,4.353546753E0,-1.087593338E1,-1.808688812E0,1.185371889E1
1.374558908E1,4.290527802E0,-1.007435028E1,-1.229094086E0,1.101870386E1
1.375552808E1,4.751269684E0,-9.254654846E0,-4.432283020E-1,1.041247575E1
1.376546808E1,4.876259766E0,-8.893156586E0,-1.127754822E0,1.020480153E1
1.377540708E1,5.060676270E0,-8.522976379E0,-1.800306244E0,1.007435721E1
1.378534708E1,5.857768707E0,-8.337062988E0,-1.309327240E0,1.027299427E1
1.379528608E1,6.034401398E0,-8.469238129E0,-9.211843872E-1,1.043985514E1
1.380522608E1,5.813011780E0,-8.904233551E0,-1.111887817E0,1.069171528E1
1.381516508E1,5.471571808E0,-9.438771973E0,-6.626719666E-1,1.093012573E1
1.382510508E1,4.553979950E0,-9.809850311E0,3.409909058E-1,1.082072878E1
1.383504408E1,3.957320709E0,-9.742789764E0,8.610095215E-1,1.055100360E1
1.384498408E1,3.822301483E0,-9.301507416E0,1.048120422E0,1.011071636E1
1.385492308E1,3.655997314E0,-9.117689667E0,1.032253418E0,9.877455560E0
1.386486308E1,3.346740417E0,-8.961714020E0,1.006207581E0,9.619014674E0
1.387480208E1,3.318299561E0,-8.422086182E0,1.115929413E0,9.120742628E0
1.388474208E1,3.442840576E0,-7.914342041E0,1.083446960E0,8.698495185E0
1.389468108E1,3.510050812E0,-7.556136932E0,1.150058441E0,8.410606189E0
1.390462108E1,3.390000458E0,-7.204069061E0,1.195414124E0,8.051070057E0
1.391456008E1,3.190615082E0,-6.979685669E0,1.315913544E0,7.786376891E0
1.392450008E1,2.831511841E0,-6.925648041E0,1.436562653E0,7.618777615E0
1.393443908E1,2.587070160E0,-6.960974579E0,1.519041138E0,7.579946245E0
1.394437908E1,2.501448212E0,-7.002887421E0,1.600621490E0,7.606554051E0
1.395431850E1,2.479893036E0,-7.116201782E0,1.749561768E0,7.736353382E0
1.396425750E1,2.610271912E0,-7.167694702E0,1.882635040E0,7.857078432E0
1.397419750E1,2.745141449E0,-7.114555206E0,1.995200958E0,7.882482110E0
1.398413650E1,2.807112579E0,-7.039561157E0,2.115251312E0,7.868264766E0
1.399407650E1,2.773582306E0,-7.042105865E0,2.228266296E0,7.889815240E0
1.400401550E1,2.686613159E0,-7.235204315E0,2.431244202E0,8.091787202E0
1.401395550E1,2.567910004E0,-7.470964050E0,2.546803894E0,8.300341903E0
1.402389450E1,2.607278137E0,-7.623945923E0,2.485132141E0,8.431982713E0
1.403383450E1,2.549647980E0,-7.646249542E0,2.454445953E0,8.425564778E0
1.404377350E1,2.526446228E0,-7.617658997E0,2.490071869E0,8.403101632E0
1.405371350E1,2.543510742E0,-7.613018646E0,2.664159851E0,8.457260048E0
1.406365250E1,2.411485291E0,-7.596403198E0,2.727627869E0,8.423808916E0
1.407359250E1,2.402054901E0,-7.697742462E0,2.757266235E0,8.522184219E0
1.408353150E1,2.392325134E0,-7.875722351E0,2.700683899E0,8.662789136E0
1.409347150E1,2.650687866E0,-8.111182709E0,2.516417084E0,8.896616550E0
1.410341050E1,2.984793091E0,-8.418643341E0,2.115550690E0,9.179221112E0
1.411335050E1,3.298989716E0,-8.855285339E0,1.903292084E0,9.639602292E0
1.412328950E1,3.549119568E0,-9.376351776E0,1.940863953E0,1.021171755E1
1.413322950E1,3.584146729E0,-9.750423889E0,2.105521545E0,1.059953276E1
1.414316850E1,3.634142761E0,-9.906698914E0,2.427801361E0,1.082792207E1
1.415310850E1,3.635190582E0,-1.000669098E1,2.962788849E0,1.105109011E1
1.416304750E1,3.429069214E0,-1.008408005E1,3.362308044E0,1.116925698E1
1.417298750E1,3.201093292E0,-1.037103333E1,3.507356415E0,1.140644026E1
1.418292650E1,3.451821899E0,-1.104597977E1,3.188070374E0,1.200385505E1
1.419286550E1,4.319567413E0,-1.208706482E1,2.435136108E0,1.306467322E1
1.420280550E1,5.655838623E0,-1.296498917E1,1.663939819E0,1.424247697E1
1.421274450E1,6.872658234E0,-1.316422485E1,1.367406464E0,1.491308310E1
1.422268450E1,7.503596191E0,-1.245754440E1,1.212179260E0,1.459327746E1
1.423262350E1,7.367379456E0,-1.123877884E1,7.424560547E-1,1.345881387E1
1.424256350E1,7.119345245E0,-1.040710831E1,4.562512207E-1,1.261749362E1
1.425250250E1,7.051087189E0,-1.025143204E1,5.508544922E-2,1.244237613E1
1.426244250E1,5.953868866E0,-1.029394363E1,-5.114863586E-1,1.190274961E1
1.427238150E1,4.306544495E0,-9.718689880E0,-9.238787842E-1,1.067018325E1
1.428232150E1,3.956123199E0,-9.277257843E0,-2.198927307E0,1.032248542E1
1.429226050E1,4.319268036E0,-9.185648346E0,-2.683918762E0,1.049931578E1
1.430220050E1,4.591102753E0,-9.396260376E0,-1.877395935E0,1.062509054E1
1.431213950E1,5.178481293E0,-9.580976257E0,-1.322799225E0,1.097094218E1
1.432207950E1,5.347330170E0,-9.350006561E0,-5.159770203E-1,1.078345005E1
1.433201850E1,5.059329071E0,-9.104367371E0,3.112028503E-1,1.042032452E1
1.434195850E1,4.879702606E0,-9.099876709E0,1.099463654E0,1.038402976E1
1.435189750E1,4.755610657E0,-9.210496674E0,1.483864288E0,1.047143423E1
1.436183750E1,4.688550110E0,-9.170230408E0,1.588197327E0,1.042103635E1
1.437177650E1,4.614304504E0,-8.781488800E0,1.634600830E0,1.005376902E1
1.438171650E1,4.396657104E0,-8.354277191E0,1.649420013E0,9.583586357E0
1.439165550E1,4.409230957E0,-8.001610565E0,1.749112701E0,9.301961326E0
1.440159550E1,4.362677765E0,-7.696245575E0,1.584455109E0,8.987527537E0
1.441153450E1,4.159101105E0,-7.552843781E0,1.306034088E0,8.720624760E0
1.442147350E1,4.077071686E0,-7.285799103E0,1.022673340E0,8.411375800E0
1.443141350E1,3.929628296E0,-6.981332245E0,9.015751648E-1,8.061874238E0
1.444135250E1,3.623814240E0,-6.948251038E0,8.770262146E-1,7.885391373E0
1.445129250E1,3.547622681E0,-6.860084381E0,9.298663330E-1,7.778883969E0
1.446123150E1,3.560495911E0,-6.646179199E0,1.099912720E0,7.619621846E0
1.447117150E1,3.508254547E0,-6.638844452E0,1.152902527E0,7.596794710E0
1.448111050E1,3.604803772E0,-6.519692230E0,1.310075684E0,7.564211480E0
1.449105050E1,3.632346497E0,-6.490203552E0,1.585652618E0,7.604668135E0
1.450098950E1,3.543431396E0,-6.312822418E0,1.602268066E0,7.414505776E0
1.451092950E1,3.551664276E0,-6.426885223E0,1.733245697E0,7.544754035E0
1.452086850E1,3.360511780E0,-6.504573669E0,2.149679718E0,7.630441726E0
1.453080850E1,3.313808899E0,-6.597081299E0,2.526146851E0,7.802834677E0
1.454074750E1,3.254981232E0,-6.752458191E0,2.580783234E0,7.927864564E0
1.455068750E1,3.418740692E0,-6.638994141E0,2.471211090E0,7.865806721E0
1.456062650E1,3.603606262E0,-6.544241180E0,2.445015564E0,7.860736087E0
1.457056650E1,3.701652374E0,-6.533313904E0,2.431543579E0,7.892960474E0
1.458050550E1,3.872447205E0,-6.489006042E0,2.342179413E0,7.911311596E0
1.459044550E1,4.045187988E0,-6.522386627E0,2.237397308E0,7.994436809E0
1.460038450E1,4.087998962E0,-6.732699280E0,2.194436646E0,8.176584085E0
1.461032450E1,4.252207489E0,-7.093898163E0,2.032922516E0,8.516891078E0
1.462026350E1,4.375251617E0,-7.699688416E0,1.819167023E0,9.040873689E0
1.463020350E1,4.578079834E0,-8.279283142E0,1.762584686E0,9.623515423E0
1.464014250E1,4.609065399E0,-8.917855225E0,1.925446014E0,1.022149539E1
1.465008250E1,4.439318390E0,-9.430389404E0,2.246977386E0,1.066249030E1
1.466002150E1,4.198020172E0,-9.916728058E0,2.795586548E0,1.112565382E1
1.466996050E1,3.703448639E0,-1.018646713E1,3.252885590E0,1.131640001E1
1.467990050E1,3.548969879E0,-1.010383896E1,3.668571167E0,1.131994538E1
1.468983950E1,3.936663666E0,-9.779912567E0,4.008214874E0,1.127873207E1
1.469977950E1,4.680466919E0,-9.465416565E0,3.981869659E0,1.128521897E1
1.470971850E1,5.449118500E0,-9.501940613E0,3.672912140E0,1.155292393E1
1.471965850E1,5.997128906E0,-1.012599289E1,3.448229370E0,1.226342419E1
1.472959750E1,6.137087860E0,-1.106828339E1,3.131937103E0,1.303762918E1
1.473953750E1,6.080655212E0,-1.210622498E1,2.390379181E0,1.375677882E1
1.474947650E1,5.912554779E0,-1.263417709E1,1.586550751E0,1.403915518E1
1.475941650E1,5.701194305E0,-1.250484604E1,1.092128906E0,1.378649834E1
1.476935550E1,5.967490540E0,-1.218406311E1,-2.062710571E-1,1.356852553E1
1.477929550E1,5.912704468E0,-1.191237808E1,-7.737409973E-1,1.332154273E1
1.478923450E1,5.265001373E0,-1.158635605E1,-8.759783936E-1,1.275661492E1
1.479917450E1,4.399800568E0,-1.120824234E1,-8.345146179E-1,1.206977034E1
1.480911350E1,4.453239441E0,-1.054362442E1,-2.336640930E-1,1.144787999E1
1.481905350E1,4.722978516E0,-1.003049149E1,-7.158114624E-1,1.110989071E1
1.482899250E1,4.853058014E0,-9.411229248E0,-1.716330872E0,1.072703126E1
1.483893250E1,5.817951508E0,-8.822204132E0,-1.724264374E0,1.070761099E1
1.484887150E1,6.305337982E0,-8.706943817E0,-9.952803040E-1,1.079623733E1
1.485881150E1,6.182293854E0,-9.019493866E0,-1.124910736E0,1.099260893E1
1.486875050E1,5.899980927E0,-9.418114929E0,-6.631210327E-1,1.113330109E1
1.487868950E1,4.895270233E0,-9.410181427E0,4.956193542E-1,1.061888995E1
1.488862950E1,4.136947174E0,-9.237440643E0,1.076561279E0,1.017858663E1
1.489856850E1,3.877686310E0,-8.903634796E0,9.157955933E-1,9.754478216E0
1.490850850E1,3.677552490E0,-8.578959961E0,9.467811584E-1,9.381862336E0
1.491844750E1,3.426823883E0,-8.647068329E0,1.099763031E0,9.366130008E0
1.492838750E1,3.273842010E0,-8.333769836E0,1.113534393E0,9.022733513E0
1.493832650E1,3.260370026E0,-7.954009552E0,1.207838287E0,8.680734646E0
1.494826637E1,3.202590179E0,-7.583230591E0,1.307980042E0,8.335033404E0
1.495820538E1,3.167862396E0,-7.338489532E0,1.345551910E0,8.105509899E0
1.496814537E1,3.070864105E0,-6.998097382E0,1.216370544E0,7.738419129E0
1.497808438E1,2.837649078E0,-6.866520996E0,1.100661163E0,7.510846682E0
1.498802437E1,2.640059967E0,-6.879094849E0,1.269809418E0,7.476916378E0
1.499796338E1,2.490820312E0,-6.881938934E0,1.455273743E0,7.462110358E0
1.500790337E1,2.338886261E0,-6.834188232E0,1.630559235E0,7.405082117E0
1.501784238E1,2.343376923E0,-6.847959595E0,1.866768036E0,7.474676509E0
1.502778237E1,2.410886536E0,-6.788982239E0,2.083816681E0,7.499663038E0
1.503772138E1,2.392624512E0,-6.746919708E0,2.191442871E0,7.486521186E0
1.504766137E1,2.314037933E0,-6.778504028E0,2.155218201E0,7.479829805E0
1.505760038E1,2.226470032E0,-7.014114075E0,2.136656799E0,7.662915068E0
1.506754037E1,2.307152252E0,-7.246281281E0,2.291584625E0,7.942474678E0
1.507747938E1,2.303410034E0,-7.562423859E0,2.396965485E0,8.260835063E0
1.508741937E1,2.440225525E0,-7.699389038E0,2.330054626E0,8.406214769E0
1.509735838E1,2.634072418E0,-7.824229431E0,2.332749023E0,8.578963906E0
1.510729837E1,2.785856781E0,-7.896828461E0,2.473606110E0,8.731530503E0
1.511723738E1,2.715652771E0,-7.885901184E0,2.611020355E0,8.739544310E0
1.512717638E1,2.632425842E0,-8.019872589E0,2.757565613E0,8.879875577E0
1.513711638E1,2.766696625E0,-8.158035278E0,2.796334991E0,9.056911129E0
1.514705538E1,2.996019745E0,-8.269703064E0,2.663860474E0,9.190227184E0
1.515699538E1,3.264860687E0,-8.461604004E0,2.643802185E0,9.447102604E0
1.516693438E1,3.468137970E0,-8.730894012E0,2.848127289E0,9.816736743E0
1.517687437E1,3.543431396E0,-9.145232391E0,3.008294220E0,1.025870439E1
1.518681338E1,3.570824432E0,-9.572444000E0,3.169059906E0,1.069698144E1
1.519675337E1,3.800596619E0,-9.976453857E0,3.315006409E0,1.117870447E1
1.520669238E1,3.869004364E0,-1.023107437E1,3.358565826E0,1.144220442E1
1.521663237E1,3.502117310E0,-1.037432648E1,3.305126953E0,1.143745337E1
1.522657138E1,3.144061890E0,-1.073178314E1,2.985990601E0,1.157464619E1
1.523651137E1,3.610192566E0,-1.171508835E1,2.541265411E0,1.251937759E1
1.524645038E1,4.523742828E0,-1.326751007E1,1.861528931E0,1.414059273E1
1.525639037E1,5.336253204E0,-1.449271225E1,9.520202637E-1,1.547322362E1
1.526632938E1,6.004313965E0,-1.397703461E1,5.948629761E-1,1.522376907E1
1.527626937E1,6.277645569E0,-1.179127991E1,1.126257935E0,1.340565450E1
1.528620838E1,5.896388397E0,-1.030517029E1,1.640289001E0,1.198559464E1
1.529614837E1,6.182144165E0,-9.709409180E0,1.290316772E0,1.158259256E1
1.530608738E1,6.071673889E0,-8.928932190E0,1.067280579E-1,1.079826119E1
1.531602737E1,4.841981049E0,-8.509803772E0,-8.616082764E-1,9.828728785E0
1.532596638E1,3.581751709E0,-8.614735565E0,-2.032623138E0,9.548516690E0
1.533590637E1,3.662733307E0,-8.574469299E0,-1.804946594E0,9.497103308E0
1.534584538E1,4.690945129E0,-8.983718262E0,-2.169588318E0,1.036432697E1
1.535578437E1,5.535039825E0,-9.595645752E0,-1.397942963E0,1.116545242E1
1.536572438E1,6.273603973E0,-9.950557709E0,-4.294569397E-1,1.177098716E1
1.537566337E1,6.393804016E0,-9.922416229E0,6.036946106E-1,1.181945518E1
1.538560338E1,6.279292145E0,-9.755363617E0,1.505269775E0,1.169882328E1
1.539554237E1,6.077062683E0,-9.614356842E0,2.116149445E0,1.156912429E1
1.540548238E1,5.623206482E0,-9.443562012E0,1.929487610E0,1.115904284E1
1.541542137E1,4.962929535E0,-8.971593475E0,1.614841919E0,1.037920389E1
1.542536138E1,4.668192444E0,-8.566984863E0,1.416055298E0,9.858522351E0
1.543530037E1,4.499493256E0,-8.354426880E0,1.254391479E0,9.571592659E0
1.544524038E1,4.229754181E0,-7.984845428E0,1.253044281E0,9.122428236E0
1.545517937E1,3.972439270E0,-7.650590515E0,1.139729919E0,8.695446698E0
1.546511938E1,3.719315643E0,-7.364235992E0,7.896080017E-1,8.287868327E0
1.547505837E1,3.379821625E0,-7.097341003E0,8.080197144E-1,7.902426171E0
1.548499838E1,3.304677887E0,-6.810387726E0,7.370672607E-1,7.605625882E0
1.549493737E1,3.253933411E0,-6.534062347E0,6.393205261E-1,7.327399548E0
1.550487738E1,3.216960297E0,-6.371500397E0,6.355783081E-1,7.165808443E0
1.551481637E1,3.282823334E0,-6.284680939E0,9.050180054E-1,7.147950834E0
1.552475638E1,3.406466217E0,-6.254593506E0,1.126856689E0,7.210669734E0
1.553469538E1,3.487148438E0,-6.243965607E0,1.382824402E0,7.284196184E0
1.554463538E1,3.447480927E0,-6.190377045E0,1.589544525E0,7.261717737E0
1.555457438E1,3.601510620E0,-6.261928253E0,2.051034851E0,7.509285462E0
1.556451337E1,3.667373657E0,-6.190377045E0,2.390528870E0,7.581888009E0
1.557445338E1,3.600462799E0,-6.094576263E0,2.618355103E0,7.547382039E0
1.558439237E1,3.686384125E0,-6.180647278E0,2.906356201E0,7.761232831E0
1.559433238E1,3.781885529E0,-6.207441559E0,3.113226013E0,7.907412033E0
1.560427137E1,3.605103149E0,-6.234834595E0,3.197800140E0,7.880092441E0
1.561421138E1,3.349285126E0,-6.536157990E0,3.234623566E0,8.025077054E0
1.562415037E1,3.372935944E0,-6.684349823E0,3.027304688E0,8.076001678E0
1.563409038E1,3.576362915E0,-6.743177490E0,2.804418182E0,8.131763382E0
1.564402937E1,3.919748840E0,-6.938670959E0,2.589614868E0,8.379480343E0
1.565396938E1,4.377197571E0,-7.300468597E0,2.329605560E0,8.825177754E0
1.566390837E1,4.866080933E0,-7.813302155E0,2.169738007E0,9.456965540E0
1.567384838E1,5.135670319E0,-8.522976379E0,2.096390533E0,1.016912431E1
1.568378737E1,5.287155304E0,-9.228159943E0,2.067201233E0,1.083449436E1
1.569372738E1,5.286556549E0,-9.702822876E0,2.320624237E0,1.129060445E1
1.570366637E1,5.085823975E0,-1.004156845E1,2.708617401E0,1.157736199E1
1.571360638E1,4.693190460E0,-1.026565247E1,3.053200836E0,1.169323277E1
1.572354537E1,4.707560577E0,-1.025218048E1,3.504512329E0,1.181312566E1
1.573348538E1,4.992268524E0,-1.011476624E1,3.996090088E0,1.196661928E1
1.574342437E1,5.364244995E0,-1.010922775E1,4.010160828E0,1.212654114E1
1.575336438E1,5.698499908E0,-1.059391983E1,3.989204407E0,1.267350742E1
1.576330337E1,5.627397766E0,-1.158530823E1,4.065845032E0,1.350622331E1
1.577324338E1,5.216801605E0,-1.239168137E1,3.541335754E0,1.390359108E1
1.578318237E1,5.158722382E0,-1.289538391E1,2.776127014E0,1.416369387E1
1.579312238E1,5.267396393E0,-1.289822800E1,1.823208618E0,1.405111525E1
1.580306137E1,5.554649048E0,-1.239422607E1,7.798782349E-1,1.360438077E1
1.581300037E1,5.151237946E0,-1.152348679E1,-2.378553772E-1,1.262468119E1
1.582294037E1,4.404590607E0,-1.036160294E1,-2.157762909E0,1.146382024E1
1.583287937E1,4.755610657E0,-9.837093658E0,-1.927990723E0,1.109510670E1
1.584281937E1,4.898563385E0,-9.552086334E0,-3.496728516E-1,1.074060276E1
1.585275837E1,4.619693298E0,-9.022487640E0,5.837860107E-3,1.013641374E1
1.586269837E1,4.712500305E0,-8.829987946E0,-7.406597900E-1,1.003618071E1
1.587263737E1,4.919519806E0,-8.834927673E0,-1.768871613E0,1.026579412E1
1.588257737E1,4.929998016E0,-9.301956482E0,-1.017434235E0,1.057669359E1
1.589251637E1,4.847669220E0,-9.965227203E0,-6.283932495E-1,1.109957333E1
1.590245637E1,4.883744202E0,-1.044887146E1,-1.273851013E-1,1.153456107E1
1.591239537E1,4.299209747E0,-1.081530945E1,8.610095215E-1,1.167028107E1
1.592233537E1,3.626508636E0,-1.058029816E1,1.374441833E0,1.126868956E1
1.593227437E1,3.192561035E0,-1.000773880E1,1.400188293E0,1.059753788E1
1.594221438E1,3.126248932E0,-9.344767456E0,1.387315063E0,9.951017751E0
1.595215362E1,3.043321381E0,-9.195078735E0,1.338366852E0,9.777653287E0
1.596209362E1,2.936743011E0,-8.628955994E0,1.232087860E0,9.197900932E0
1.597203262E1,2.914289703E0,-7.959098969E0,1.062191162E0,8.542165471E0
1.598197262E1,3.081641693E0,-7.418123932E0,9.657916260E-1,8.090601440E0
1.599191162E1,3.028053131E0,-6.972799988E0,1.007704468E0,7.668410117E0
1.600185162E1,2.809208221E0,-6.742279358E0,1.129401398E0,7.390908556E0
1.601179062E1,2.597847748E0,-6.652316437E0,1.193019104E0,7.240540137E0
1.602173063E1,2.384092255E0,-6.694977722E0,1.326691132E0,7.229573427E0
1.603166962E1,2.203567657E0,-6.872209167E0,1.542991333E0,7.379958775E0
1.604160863E1,2.004032593E0,-6.905739441E0,1.775308228E0,7.406558118E0
1.605154862E1,1.925146637E0,-6.985972595E0,2.006577301E0,7.519066108E0
1.606148763E1,2.012415161E0,-7.071594543E0,2.240241394E0,7.686087800E0
1.607142762E1,2.161804504E0,-7.051236877E0,2.428998871E0,7.764880922E0
1.608136663E1,2.233056335E0,-6.976691895E0,2.452649689E0,7.725041157E0
1.609130662E1,2.236349487E0,-7.031178589E0,2.420466614E0,7.765139407E0
1.610124563E1,2.294728088E0,-7.140750732E0,2.457140350E0,7.892631800E0
1.611118562E1,2.325563965E0,-7.360793152E0,2.572999420E0,8.136943504E0
1.612112463E1,2.343227234E0,-7.477550354E0,2.643802185E0,8.270076370E0
1.613106462E1,2.271376648E0,-7.452851715E0,2.656525726E0,8.231723969E0
1.614100363E1,2.211950226E0,-7.515271912E0,2.721340942E0,8.293234124E0
1.615094362E1,2.286944275E0,-7.531138916E0,2.846929779E0,8.369777575E0
1.616088263E1,2.247426453E0,-7.732919312E0,2.821333008E0,8.532812355E0
1.617082262E1,2.417772217E0,-8.069569244E0,2.745141449E0,8.859987125E0
1.618076163E1,2.672093353E0,-8.510552216E0,2.672991486E0,9.312060212E0
1.619070162E1,2.849175110E0,-9.045988770E0,2.632725220E0,9.842710689E0
1.620064063E1,3.090323639E0,-9.483229523E0,2.690505066E0,1.033056435E1
1.621058062E1,3.231929169E0,-9.968969421E0,2.761756897E0,1.083757439E1
1.622051962E1,3.344794464E0,-1.035396881E1,2.970572662E0,1.127903463E1
1.623045962E1,3.469634857E0,-1.038540344E1,3.352129211E0,1.145127683E1
1.624039862E1,3.340154114E0,-1.039258850E1,3.611539764E0,1.149807570E1
1.625033763E1,3.011437683E0,-1.052057236E1,3.703448639E0,1.155278025E1
1.626027762E1,2.980751495E0,-1.102906494E1,3.647015991E0,1.199274275E1
1.627021663E1,3.421435089E0,-1.177556259E1,3.089724884E0,1.264580928E1
1.628015662E1,4.238585815E0,-1.270887177E1,2.163750458E0,1.357066127E1
1.629009563E1,4.990921326E0,-1.322634567E1,1.474433899E0,1.421335537E1
1.630003562E1,5.427114258E0,-1.267623962E1,1.211580505E0,1.384227393E1
1.630997463E1,5.413193207E0,-1.163260986E1,1.108594666E0,1.287824736E1
1.631991462E1,5.670059052E0,-1.085093536E1,1.125808868E0,1.229470673E1
1.632985363E1,6.119424591E0,-1.000339783E1,1.152603149E0,1.178320073E1
1.633979362E1,6.753955078E0,-9.384884033E0,3.249742126E-1,1.156708977E1
1.634973263E1,6.329437866E0,-9.082662506E0,6.586303711E-2,1.107072174E1
1.635967262E1,5.756279755E0,-9.030870209E0,-8.035290527E-1,1.073950801E1
1.636961163E1,5.091362457E0,-9.479487305E0,-9.975256348E-1,1.080637352E1
1.637955162E1,5.069956970E0,-9.602980499E0,-1.531165924E0,1.096659324E1
1.638949063E1,5.785768433E0,-9.659562836E0,-2.049537964E0,1.144477507E1
1.639943062E1,6.031108246E0,-1.040156982E1,-1.647324371E0,1.213592185E1
1.640936963E1,6.052962799E0,-1.034588562E1,-9.360035706E-1,1.202297012E1
1.641930962E1,6.034700775E0,-1.009575577E1,-8.577163696E-2,1.176219600E1
1.642924863E1,5.720953217E0,-9.780960388E0,1.045126648E0,1.137931375E1
1.643918862E1,5.463638306E0,-9.528136139E0,2.121538239E0,1.118649392E1
1.644912763E1,5.007237396E0,-8.866511993E0,2.118694153E0,1.040078488E1
1.645906762E1,4.710404663E0,-8.395591278E0,1.867666168E0,9.806224651E0
1.646900663E1,4.390220490E0,-8.045768738E0,1.833088074E0,9.347119472E0
1.647894562E1,3.999981995E0,-7.699688416E0,2.008223877E0,8.906066516E0
1.648888563E1,3.699407043E0,-7.315287781E0,1.757345581E0,8.383752816E0
1.649882462E1,3.299139404E0,-6.910230103E0,1.315913544E0,7.769635084E0
1.650876463E1,3.012934570E0,-6.467600555E0,1.028960266E0,7.208771802E0
1.651870362E1,2.826272736E0,-6.189029846E0,7.500901794E-1,6.845037859E0
1.652864363E1,2.798580322E0,-5.900429993E0,5.774990845E-1,6.555961494E0
1.653858262E1,2.947670288E0,-5.559888153E0,4.903802490E-1,6.312019423E0
1.654852263E1,2.872227173E0,-5.479954376E0,6.454577637E-1,6.220627350E0
1.655846163E1,3.008144531E0,-5.415887604E0,9.012757874E-1,6.260436894E0
1.656840163E1,3.018622742E0,-5.511538696E0,1.101708984E0,6.379882816E0
1.657834063E1,3.078947296E0,-5.584287415E0,1.366508331E0,6.521619998E0
1.658828063E1,3.148702240E0,-5.755980377E0,1.840422821E0,6.814161141E0
1.659821963E1,3.074157257E0,-5.875282288E0,2.225571899E0,6.994466032E0
1.660815963E1,3.052901459E0,-6.176306305E0,2.701282654E0,7.400263162E0
1.661809863E1,3.138373718E0,-6.347999268E0,2.944377136E0,7.669148650E0
1.662803863E1,3.260819092E0,-6.561305695E0,3.169508972E0,7.983073386E0
1.663797763E1,3.488495636E0,-6.785988464E0,3.274141388E0,8.302965920E0
1.664791762E1,3.917503510E0,-6.951843567E0,3.126997375E0,8.570476959E0
1.665785663E1,4.162543945E0,-7.058272247E0,2.954705658E0,8.710698292E0
1.666779662E1,4.334536285E0,-7.175478516E0,2.967878265E0,8.892918426E0
