"Time (s)","Acceleration x (m/s^2)","Acceleration y (m/s^2)","Acceleration z (m/s^2)","Absolute acceleration (m/s^2)"
2.283916692E-3,3.096460876E0,-5.197641449E0,-8.752299500E-1,6.113065848E0
1.222291667E-2,1.940564575E0,-5.315596161E0,-1.218466187E0,5.788437895E0
2.216291669E-2,7.833210754E-1,-5.305567017E0,-1.290017395E0,5.516047331E0
3.210191667E-2,-2.336640930E-1,-5.144501953E0,-1.019380188E0,5.249727157E0
4.204191669E-2,-1.217418365E0,-4.863985291E0,-5.924679565E-1,5.048908661E0
5.198091667E-2,-2.092648315E0,-4.639601898E0,-1.733395386E-1,5.092654449E0
6.191991668E-2,-2.774181061E0,-4.626129913E0,1.796264648E-2,5.394208115E0
7.185991667E-2,-2.977907410E0,-4.942272491E0,5.755531311E-1,5.798728423E0
8.179891668E-2,-2.185305634E0,-5.583538971E0,2.262245636E0,6.408527403E0
9.173891667E-2,2.709365845E-2,-6.081703033E0,4.723427582E0,7.700559329E0
1.016779167E-1,2.560575256E0,-6.436614990E0,7.220534821E0,1.000613218E1
1.116179167E-1,5.343737640E0,-7.095395050E0,1.046608566E1,1.372731263E1
1.215569167E-1,8.037984924E0,-8.505313110E0,1.389006546E1,1.816269449E1
1.314959167E-1,1.051697983E1,-1.075453583E1,1.479283813E1,2.109727389E1
1.414359167E-1,1.255065079E1,-1.298085617E1,1.392928391E1,2.280452613E1
1.513749167E-1,1.450079544E1,-1.347946930E1,1.485121674E1,2.474929897E1
1.613149167E-1,1.613419876E1,-1.122470810E1,1.415591263E1,2.422181463E1
1.712539167E-1,1.642354706E1,-7.544610901E0,1.180250656E1,2.158594943E1
1.811939167E-1,1.442235855E1,-3.989952850E0,8.584797821E0,1.725175074E1
1.911329167E-1,1.155716675E1,-1.635948029E0,6.443051605E0,1.333256701E1
2.010729167E-1,9.969568176E0,-8.322692871E-1,3.980223083E0,1.076694653E1
2.110119167E-1,9.427844696E0,-2.312091980E0,-1.761087799E0,9.865670538E0
2.209519167E-1,9.332792358E0,-5.715863800E0,-7.818990326E0,1.345023130E1
2.308909167E-1,8.911867676E0,-9.417216797E0,-1.040501266E1,1.662436905E1
2.408299167E-1,8.525072021E0,-1.141795624E1,-1.040052200E1,1.764135583E1
2.507699167E-1,8.943152618E0,-1.220352264E1,-7.682025146E0,1.696818947E1
2.607089167E-1,9.334738312E0,-1.297112640E1,-3.136727142E0,1.628577652E1
2.706489167E-1,1.157153687E1,-1.355805588E1,9.807604980E0,2.034478951E1
2.805879167E-1,7.043602753E0,-1.202509369E1,1.619197861E1,2.136341240E1
2.905279167E-1,2.824626160E-1,-9.078620911E0,4.925058289E0,1.033234445E1
3.004669167E-1,-1.374741211E0,-6.734345856E0,-9.306147766E-1,6.935947762E0
3.104069167E-1,-2.534529419E0,-5.913303223E0,-9.809101868E-1,6.507932020E0
3.203459167E-1,-2.009421387E0,-6.174510040E0,-1.498982849E0,6.664030172E0
3.302849167E-1,-8.666976929E-2,-7.051536255E0,-2.229613495E0,7.396137610E0
3.402249167E-1,1.079704742E0,-8.451125793E0,-2.184257813E0,8.795355121E0
3.501639167E-1,2.054777069E0,-9.935139771E0,-2.217638397E0,1.038494252E1
3.601039167E-1,2.910996552E0,-1.098355957E1,-2.267784119E0,1.158686008E1
3.700429167E-1,3.510200500E0,-1.109313171E1,-2.301015015E0,1.186059648E1
3.799829167E-1,3.841162262E0,-1.028376480E1,-2.250869293E0,1.120610363E1
3.899219167E-1,3.902384949E0,-9.263935547E0,-2.038910065E0,1.025701050E1
3.998619167E-1,3.719914398E0,-8.441246338E0,-1.970502319E0,9.432671003E0
4.098009167E-1,3.754941559E0,-7.698191528E0,-1.921105042E0,8.777948707E0
4.197399167E-1,3.485651550E0,-7.468269653E0,-1.891766052E0,8.455979963E0
4.296799167E-1,3.222947845E0,-7.533234558E0,-2.010918274E0,8.436871934E0
4.396189167E-1,3.444636841E0,-7.571854248E0,-2.466121674E0,8.676419528E0
4.495589167E-1,4.318818970E0,-7.575895844E0,-2.654579773E0,9.115546549E0
4.594979167E-1,5.384452972E0,-7.722890167E0,-1.688937836E0,9.564929553E0
4.694379167E-1,5.955066376E0,-7.889044647E0,-8.369096375E-1,9.919690455E0
4.793769167E-1,5.898933105E0,-7.778724060E0,-5.399272156E-1,9.777396442E0
4.893169167E-1,5.778882751E0,-7.525899811E0,-1.044827271E-1,9.489234451E0
4.992559167E-1,6.054459686E0,-7.254214783E0,7.388635254E-1,9.477659707E0
5.091949167E-1,6.486910400E0,-7.091503143E0,2.022144928E0,9.821328499E0
5.191349167E-1,6.759942627E0,-6.952292633E0,3.617826691E0,1.034987281E1
5.290739167E-1,6.763235779E0,-6.704707489E0,3.824995880E0,1.026279953E1
5.390139167E-1,6.773564301E0,-6.688990173E0,2.041005707E0,9.735988248E0
5.489529167E-1,6.703210602E0,-6.686744843E0,5.695655823E-1,9.485251389E0
5.588929167E-1,6.454427948E0,-6.544989624E0,-2.655477905E-1,9.196034197E0
5.688319167E-1,6.372847595E0,-6.408623199E0,-8.138575745E-1,9.074469788E0
5.787719167E-1,6.424190826E0,-6.372548218E0,-1.249002686E0,9.134528246E0
5.887109167E-1,6.827601929E0,-6.475084991E0,-1.258882141E0,9.493558763E0
5.986499167E-1,7.214547272E0,-6.649472351E0,-9.919871521E-1,9.861501579E0
6.085899167E-1,7.327113190E0,-6.948400726E0,-8.449928284E-1,1.013315712E1
6.185289167E-1,7.483537903E0,-7.339537354E0,-6.761439514E-1,1.050377640E1
6.284689167E-1,7.582631836E0,-7.703730011E0,-3.348536682E-1,1.081461458E1
6.384079167E-1,7.462431793E0,-7.940986633E0,9.789642334E-2,1.089755664E1
6.483479167E-1,7.159910889E0,-8.051157532E0,6.991960144E-1,1.079695960E1
6.582869167E-1,6.691385193E0,-8.084987183E0,1.550026703E0,1.060868683E1
6.682265833E-1,6.076463928E0,-8.149952087E0,2.918930054E0,1.057663867E1
6.781655833E-1,5.371280365E0,-8.343050537E0,5.210514679E0,1.120743540E1
6.881045834E-1,5.489384766E0,-8.426127777E0,5.326523438E0,1.138001873E1
6.980445833E-1,6.889423370E0,-8.300089874E0,2.068548431E0,1.098337557E1
7.079835834E-1,8.593479767E0,-8.038583679E0,-3.845503235E-1,1.177347022E1
7.179235833E-1,9.714797974E0,-7.638316040E0,-1.085841980E0,1.240565292E1
7.278625834E-1,1.024978546E1,-7.105424194E0,-1.045426025E0,1.251551320E1
7.378025833E-1,1.034872971E1,-6.519692230E0,-9.213340759E-1,1.226586523E1
7.477415834E-1,1.034858002E1,-6.205345917E0,-5.921685791E-1,1.208098050E1
7.576815833E-1,1.038480469E1,-6.414311371E0,4.625381470E-2,1.220613363E1
7.676205834E-1,1.032477951E1,-7.174879761E0,1.654210052E0,1.268133993E1
7.775595833E-1,1.019425095E1,-8.265362091E0,3.917802887E0,1.369628206E1
7.874995834E-1,1.038944504E1,-9.399852905E0,4.602928162E0,1.474736419E1
7.974385833E-1,1.096769257E1,-1.017898270E1,4.004322968E0,1.548988610E1
8.073785834E-1,1.104193817E1,-1.024035507E1,3.805386658E0,1.553287604E1
8.173175833E-1,1.038001465E1,-9.652826843E0,3.667523346E0,1.464146501E1
8.272575834E-1,9.717941437E0,-9.042994995E0,2.991828461E0,1.360754136E1
8.371965833E-1,8.979526978E0,-8.619824982E0,3.019820251E0,1.280830207E1
8.471365834E-1,8.252937927E0,-8.491691437E0,3.156186676E0,1.225484893E1
8.570755833E-1,7.579638062E0,-9.072034607E0,2.848426666E0,1.216002712E1
8.670145833E-1,6.987170105E0,-9.572893066E0,1.028960266E0,1.189620053E1
8.769545833E-1,7.254514160E0,-9.293873291E0,-2.973416748E0,1.215916377E1
8.868935833E-1,7.435038757E0,-9.165440369E0,-5.146597595E0,1.287526952E1
8.968335833E-1,7.066954193E0,-9.689799957E0,-4.998106384E0,1.299288775E1
9.067725833E-1,7.198979645E0,-1.049677185E1,-4.070186005E0,1.336315611E1
9.167125833E-1,7.871082001E0,-1.182002014E1,-2.944377136E0,1.450297089E1
9.266515833E-1,8.378526764E0,-1.372705444E1,-9.782157898E-1,1.611175473E1
9.365915833E-1,7.781568146E0,-1.537857010E1,3.958518219E0,1.768397827E1
9.465305833E-1,6.523434448E0,-1.561986832E1,9.150920563E0,1.924252661E1
9.564705833E-1,6.092181244E0,-1.523935959E1,7.644602966E0,1.810504646E1
9.664095833E-1,6.177054749E0,-1.437625443E1,2.682571564E0,1.587541769E1
9.763485834E-1,6.109994202E0,-1.323951828E1,-1.157542877E0,1.462726150E1
9.862885833E-1,5.570665741E0,-1.174592422E1,-3.430266724E0,1.344491660E1
9.962275834E-1,4.405339050E0,-1.013168106E1,-3.569177856E0,1.161021119E1
1.006167583E0,4.172423401E0,-8.318052521E0,-2.356699219E0,9.599643013E0
1.016106583E0,3.673061829E0,-6.884633331E0,-1.926194458E0,8.037399106E0
1.026046583E0,3.417393494E0,-6.044729919E0,-1.410516815E0,7.085682450E0
1.035985583E0,3.629203033E0,-5.311853943E0,-4.508624268E-1,6.449045193E0
1.045924583E0,3.623065796E0,-5.073399811E0,-1.932481384E-1,6.237253903E0
1.055864583E0,3.590583344E0,-5.096900940E0,-5.520520020E-1,6.259029426E0
1.065803583E0,3.461401978E0,-5.121449890E0,-6.646179199E-1,6.217094949E0
1.075743583E0,3.234174500E0,-5.159321136E0,-7.300318909E-1,6.132815491E0
1.085682583E0,3.210972748E0,-5.283113708E0,-7.584727478E-1,6.228717151E0
1.095622583E0,3.411256256E0,-5.389841766E0,-9.991722107E-1,6.456423826E0
1.105561583E0,3.556454315E0,-5.441783752E0,-1.066532135E0,6.587781759E0
1.115501583E0,3.652853851E0,-5.468727722E0,-9.286688232E-1,6.641742990E0
1.125440583E0,3.513942719E0,-5.538931732E0,-1.076261902E0,6.647247389E0
1.135379583E0,2.621797943E0,-5.442681885E0,-1.321901093E0,6.184176020E0
1.145319583E0,1.072519684E0,-5.214406586E0,-1.395547943E0,5.503443338E0
1.155258583E0,-2.353106689E-1,-4.864584045E0,-1.369202728E0,5.059077501E0
1.165198583E0,-1.164877625E0,-4.577481079E0,-1.247056732E0,4.885225010E0
1.175137583E0,-1.790277100E0,-4.352648621E0,-9.764195251E-1,4.806665913E0
1.185077583E0,-2.164648590E0,-4.291126556E0,-8.198451233E-1,4.875614491E0
1.195016583E0,-2.378703461E0,-4.412524109E0,-6.418652344E-1,5.053769894E0
1.204956583E0,-2.218686218E0,-4.751119995E0,-4.685256958E-2,5.243844478E0
1.214895583E0,-1.913171539E0,-5.489684143E0,1.868264923E0,6.106330416E0
1.224834583E0,-1.314266968E-1,-6.082301788E0,5.705385590E0,8.340449193E0
1.234774583E0,2.627785492E0,-6.457721100E0,1.056023987E1,1.265409359E1
1.244713583E0,5.831722870E0,-7.175328827E0,1.468745728E1,1.735556789E1
1.254653583E0,9.532477112E0,-8.930429077E0,1.611922989E1,2.074729514E1
1.264592583E0,1.313174240E1,-1.222133560E1,1.409543839E1,2.281414223E1
1.274532583E0,1.541808792E1,-1.550101547E1,1.642115204E1,2.734324688E1
1.284471583E0,1.688339081E1,-1.647414185E1,1.859912292E1,3.003953409E1
1.294411583E0,1.667517380E1,-1.403601196E1,1.599753296E1,2.703686583E1
1.304350583E0,1.330283661E1,-9.181157684E0,1.007884094E1,1.904841602E1
1.314289583E0,9.167386322E0,-4.885540466E0,5.635630646E0,1.181819827E1
1.324229583E0,6.170169067E0,-2.253863068E0,4.869823151E0,8.177167148E0
1.334168583E0,4.021986237E0,-1.543290710E0,5.293591919E0,6.824971422E0
1.344108583E0,4.756658478E0,-3.328927460E0,2.948418732E0,6.511584364E0
1.354047583E0,7.744295654E0,-6.453380127E0,-4.799768829E0,1.116503520E1
1.363987583E0,1.022388931E1,-9.314230957E0,-1.188543411E1,1.823585356E1
1.373926583E0,9.758656769E0,-1.119761444E1,-1.257160721E1,1.945927180E1
1.383866583E0,8.142168274E0,-1.222013809E1,-9.315727844E0,1.738992422E1
1.393805583E0,7.695197754E0,-1.254735764E1,-4.757257233E0,1.546879919E1
1.403745583E0,8.208181000E0,-1.252116211E1,3.300935669E0,1.533133759E1
1.413684583E0,6.295757904E0,-1.175999496E1,1.601729187E1,2.084436826E1
1.423623583E0,1.374142456E0,-9.362580414E0,8.478518829E0,1.270556811E1
1.433563583E0,-4.785548401E-1,-7.507787476E0,2.912942505E-1,7.528661226E0
1.443502583E0,-1.331032104E0,-6.805897064E0,-6.429130554E-1,6.964568796E0
1.453442583E0,-8.834628296E-1,-7.068600769E0,-1.790576477E0,7.345188052E0
1.463381583E0,7.749385071E-1,-7.958799591E0,-3.056044922E0,8.560515825E0
1.473321583E0,1.425635376E0,-8.949888611E0,-2.802472229E0,9.486136883E0
1.483260583E0,2.094594269E0,-9.790839844E0,-2.954855347E0,1.043930266E1
1.493200583E0,3.019520874E0,-1.034034714E1,-3.162473602E0,1.122682166E1
1.503139583E0,3.985611877E0,-1.022852966E1,-3.100951538E0,1.140718289E1
1.513078583E0,4.409530334E0,-9.529483337E0,-2.963986359E0,1.091055570E1
1.523018583E0,4.692142639E0,-8.714278564E0,-2.785856781E0,1.028182141E1
1.532957583E0,5.065316620E0,-8.087831268E0,-2.537223816E0,9.874611475E0
1.542897583E0,5.146447906E0,-7.977660370E0,-2.256707153E0,9.758161620E0
1.552836583E0,5.033133545E0,-7.912994843E0,-2.218536530E0,9.636899138E0
1.562776583E0,5.132077789E0,-7.490273895E0,-2.575693817E0,9.438041328E0
1.572715583E0,6.001320190E0,-7.339387665E0,-2.037113800E0,9.697024696E0
1.582654583E0,6.908134460E0,-7.445367279E0,-8.545729065E-1,1.019245361E1
1.592594583E0,7.097191315E0,-7.354805603E0,-2.264790344E-1,1.022323739E1
1.602533583E0,6.891369324E0,-7.082970886E0,3.168910217E-1,9.887358983E0
1.612473583E0,6.463858337E0,-6.609355774E0,1.694925385E0,9.398820161E0
1.622412583E0,5.491929474E0,-6.311924286E0,5.022355957E0,9.758367532E0
1.632352583E0,4.316423950E0,-6.456523590E0,6.644233246E0,1.022076553E1
1.642291583E0,4.552033997E0,-6.641987915E0,4.027075653E0,9.003019232E0
1.652231583E0,5.165009308E0,-6.821015625E0,1.279090118E0,8.650991090E0
1.662170583E0,5.396428070E0,-7.009473724E0,-2.893482971E-1,8.850868898E0
1.672112417E0,5.463039551E0,-7.122039642E0,-9.430389404E-1,9.025384881E0
1.682051417E0,5.468428345E0,-7.124883728E0,-1.143172760E0,9.053978168E0
1.691990417E0,5.449866943E0,-7.015311584E0,-9.852511597E-1,8.937917329E0
1.701930417E0,5.867049408E0,-6.774013367E0,-7.857160950E-1,8.995936618E0
1.711869417E0,6.555767212E0,-6.580914917E0,-6.277944946E-1,9.310244401E0
1.721809417E0,6.998396759E0,-6.398444366E0,-5.083428955E-1,9.496107624E0
1.731748417E0,7.584727478E0,-6.370153198E0,-3.312611389E-1,9.910432716E0
1.741688417E0,8.216264191E0,-6.601422272E0,-2.992277527E-1,1.054397034E1
1.751627417E0,8.638536072E0,-6.921905823E0,-4.372407532E-1,1.107827898E1
1.761566417E0,8.825946350E0,-7.217690735E0,-2.948867798E-1,1.140523330E1
1.771506417E0,8.766370239E0,-7.435787201E0,1.823208618E-1,1.149666993E1
1.781445417E0,8.164621582E0,-7.635322266E0,9.487271118E-1,1.121870201E1
1.791385417E0,7.016658783E0,-7.870333557E0,2.200424194E0,1.077114281E1
1.801324417E0,6.000571747E0,-8.211773529E0,3.735332336E0,1.083479550E1
1.811264417E0,5.788762207E0,-8.559799805E0,3.989653473E0,1.107688022E1
1.821203417E0,6.646777954E0,-8.772806854E0,2.253414001E0,1.123475286E1
1.831143417E0,8.007747803E0,-8.730594635E0,5.319937134E-1,1.185876574E1
1.841082417E0,9.157806244E0,-8.358318787E0,-3.520678711E-1,1.240366317E1
1.851021417E0,9.951306152E0,-7.705825653E0,-6.209088135E-1,1.260134004E1
1.860961417E0,1.030217651E1,-7.075785828E0,-4.454736328E-1,1.250599987E1
1.870900417E0,1.029080017E1,-6.505471802E0,-6.122268677E-2,1.217478869E1
1.880840417E0,9.990075531E0,-6.271508331E0,6.239025879E-1,1.181197191E1
1.890779417E0,9.670340424E0,-6.504124603E0,2.079176331E0,1.183816265E1
1.900719417E0,9.750723267E0,-7.244335327E0,3.611390076E0,1.267277147E1
1.910658417E0,1.047057632E1,-8.216413879E0,3.906576233E0,1.387096837E1
1.920598417E0,1.146106659E1,-9.054970093E0,3.788771210E0,1.508984155E1
1.930537417E0,1.166793640E1,-9.343719635E0,4.351451111E0,1.556858899E1
1.940476417E0,1.094628708E1,-8.886719971E0,4.253404999E0,1.472706511E1
1.950416417E0,1.004111938E1,-7.968679047E0,3.394341431E0,1.326067412E1
1.960355417E0,9.837393036E0,-7.323670349E0,3.036884766E0,1.263460004E1
1.970295417E0,9.406289520E0,-7.279961243E0,1.770817566E0,1.202546935E1
1.980234417E0,8.742420044E0,-7.937394104E0,-1.290316772E-1,1.180884340E1
1.990174417E0,7.974816284E0,-8.717422028E0,-9.059161377E-1,1.184954960E1
2.000113417E0,7.674091644E0,-9.166338501E0,-2.782114563E0,1.227410304E1
2.010053417E0,7.853867798E0,-9.262288971E0,-4.398153992E0,1.291576536E1
2.019992417E0,7.628885651E0,-9.637408905E0,-4.397704926E0,1.305447645E1
2.029931417E0,7.829318848E0,-1.057251434E1,-3.547323303E0,1.362570350E1
2.039871417E0,8.644822998E0,-1.174906769E1,-2.488125916E0,1.479744325E1
2.049810417E0,9.041947174E0,-1.336615494E1,-1.319506073E0,1.619110876E1
2.059750417E0,8.477471008E0,-1.471350311E1,-2.734812927E-1,1.698321173E1
2.069689417E0,6.781497803E0,-1.584829330E1,2.317780151E0,1.739336707E1
2.079629417E0,5.260959778E0,-1.629436569E1,5.825885010E0,1.808659689E1
2.089568417E0,4.944368134E0,-1.546718582E1,5.287155304E0,1.707731316E1
2.099508417E0,4.536616058E0,-1.424497742E1,2.402054901E0,1.514166882E1
2.109447417E0,4.199367371E0,-1.249302063E1,-1.624122620E-1,1.318091911E1
2.119386417E0,3.802392883E0,-1.042058029E1,-1.815424805E0,1.124021586E1
2.129326417E0,3.138224030E0,-8.679251404E0,-2.449057159E0,9.548598639E0
2.139265417E0,3.324137421E0,-7.445367279E0,-2.000290375E0,8.395507435E0
2.149205417E0,3.487148438E0,-6.740782471E0,-1.492995300E0,7.734816579E0
2.159144417E0,3.761976929E0,-5.971232758E0,-1.082399139E0,7.140005529E0
2.169084417E0,3.590733032E0,-5.404211884E0,-1.102906494E0,6.581433926E0
2.179023417E0,3.144660645E0,-5.047952728E0,-1.421444092E0,6.114836108E0
2.188963417E0,3.059038696E0,-4.752167816E0,-1.340462494E0,5.808412554E0
2.198902417E0,3.366349640E0,-4.385131073E0,-1.198557587E0,5.656697333E0
2.208841417E0,3.757037201E0,-4.299509125E0,-1.292711792E0,5.854247263E0
2.218781417E0,4.358486481E0,-4.450545044E0,-1.130898285E0,6.331088889E0
2.228720417E0,4.903802490E0,-4.790188751E0,-1.192869415E0,6.958169628E0
2.238660417E0,5.206173706E0,-5.209167480E0,-1.450932770E0,7.506322428E0
2.248599417E0,5.130131836E0,-5.476960602E0,-1.396446075E0,7.633178350E0
2.258539417E0,4.601431274E0,-5.551804962E0,-1.295555878E0,7.326265975E0
2.268478417E0,3.554508362E0,-5.636528778E0,-1.136586456E0,6.759941947E0
2.278417417E0,2.421514435E0,-5.820196838E0,-1.461261292E0,6.470989720E0
2.288357417E0,1.350641327E0,-5.984854431E0,-1.815125427E0,6.398233731E0
2.298296417E0,1.133143616E-1,-5.998775482E0,-1.838776245E0,6.275288480E0
2.308236417E0,-9.713301086E-1,-5.888305206E0,-1.387015686E0,6.126943193E0
2.318175417E0,-1.673070831E0,-5.713019714E0,-5.655239868E-1,5.979764012E0
2.328115417E0,-1.976489868E0,-5.720354462E0,3.360511780E-1,6.061509528E0
2.338054417E0,-1.961071930E0,-6.092779999E0,1.535656586E0,6.582249796E0
2.347994417E0,-1.390907593E0,-6.708749084E0,3.481909332E0,7.685416762E0
2.357933417E0,2.829116821E-1,-7.254214783E0,7.358547821E0,1.033691913E1
2.367872417E0,2.633922729E0,-8.124505005E0,1.386147491E1,1.628145010E1
2.377812417E0,5.559139709E0,-9.286538544E0,1.847592911E1,2.141270158E1
2.387751417E0,8.095615082E0,-1.087338867E1,1.578302902E1,2.080561390E1
2.397691417E0,9.777068481E0,-1.241937378E1,1.200323914E1,1.984715755E1
2.407630417E0,1.066621948E1,-1.318637878E1,1.318637878E1,2.148323553E1
2.417570417E0,1.052745804E1,-1.148007706E1,1.251337830E1,1.998009455E1
2.427509417E0,9.772877197E0,-7.930508423E0,9.447004852E0,1.573683555E1
2.437449417E0,9.248367920E0,-4.975653076E0,6.485263824E0,1.234293642E1
2.447388417E0,9.138646088E0,-3.172502747E0,5.166206818E0,1.096673693E1
2.457327417E0,9.792785797E0,-2.678679657E0,6.765481110E0,1.220023414E1
2.467267417E0,1.122096588E1,-4.014501801E0,7.148534546E0,1.389704451E1
2.477206417E0,1.280287628E1,-6.847360840E0,1.407073975E0,1.458697531E1
2.487146417E0,1.301648209E1,-9.975406036E0,-7.769443359E0,1.814667412E1
2.497085417E0,1.155372391E1,-1.200249069E1,-1.384964951E1,2.166474349E1
2.507025417E0,1.003797592E1,-1.266770737E1,-1.225037521E1,2.028061792E1
2.516964417E0,9.814790039E0,-1.233569778E1,-7.062463531E0,1.727361961E1
2.526904417E0,9.633067932E0,-1.074046509E1,-1.107247467E0,1.446995456E1
2.536843417E0,7.695347443E0,-8.023914185E0,9.708211670E0,1.475977456E1
2.546782417E0,1.318757629E0,-5.694458313E0,9.187594299E0,1.088934645E1
2.556722417E0,-9.761201477E-1,-4.263434143E0,3.071612549E0,5.344575276E0
2.566661417E0,-5.580395508E-1,-4.075724487E0,-5.358856201E-2,4.114098926E0
2.576601417E0,2.088157654E-1,-5.256618805E0,-1.744921417E0,5.542598311E0
2.586540417E0,1.258133698E0,-6.990463257E0,-2.615211639E0,7.568937103E0
2.596480417E0,1.791175232E0,-8.786578217E0,-2.180365906E0,9.228556818E0
2.606419417E0,2.855312347E0,-1.053359528E1,-1.708696747E0,1.104667745E1
2.616359417E0,3.949387207E0,-1.189815765E1,-1.449585571E0,1.262002826E1
2.626298417E0,4.749623108E0,-1.244661713E1,-1.229992218E0,1.337871737E1
2.636237417E0,5.248535614E0,-1.162168259E1,-1.036893768E0,1.279397440E1
2.646177417E0,5.081782379E0,-9.623487854E0,-9.848020935E-1,1.092729911E1
2.656116417E0,4.661456451E0,-7.915090485E0,-1.189426575E0,9.262427825E0
2.666056417E0,4.368665314E0,-6.760092316E0,-1.548978882E0,8.196549293E0
2.675993542E0,4.672982483E0,-6.209537201E0,-1.374441833E0,7.892034458E0
2.685933542E0,5.231471100E0,-6.223907318E0,-6.706054688E-1,8.158126247E0
2.695872542E0,5.518125000E0,-6.675069122E0,-6.346801758E-2,8.660847504E0
2.705811542E0,5.606890411E0,-7.147337036E0,3.219804382E-1,9.089846984E0
2.715751542E0,5.589676208E0,-7.438182220E0,5.456153870E-1,9.320339640E0
2.725690542E0,5.296436005E0,-7.550897827E0,7.482939148E-1,9.253552622E0
2.735630542E0,5.087919617E0,-7.410190430E0,7.861651611E-1,9.023076188E0
2.745569542E0,5.284610596E0,-7.095694427E0,7.795788574E-1,8.881651409E0
2.755509542E0,5.545068970E0,-6.936126251E0,8.387059021E-1,8.919700939E0
2.765448542E0,5.479654999E0,-7.018754425E0,7.816744995E-1,8.938710623E0
2.775388542E0,5.321583710E0,-7.021149445E0,5.861810303E-1,8.829462096E0
2.785327542E0,5.374872894E0,-6.952442322E0,-1.336720276E-1,8.788832748E0
2.795266542E0,5.578599243E0,-6.953789520E0,-8.378077698E-1,8.954210187E0
2.805206542E0,5.562881927E0,-6.972799988E0,-1.100062408E0,8.987532048E0
2.815145542E0,5.601202240E0,-6.945556641E0,-1.010548553E0,8.979723379E0
2.825085542E0,5.723048859E0,-6.866520996E0,-8.674461365E-1,8.980805177E0
2.835024542E0,5.871989136E0,-6.804100800E0,-7.914042664E-1,9.022325909E0
2.844964542E0,5.946234741E0,-6.839577026E0,-6.203100586E-1,9.084178888E0
2.854903542E0,6.030359802E0,-6.803801422E0,-2.836601257E-1,9.096011005E0
2.864843542E0,6.020031281E0,-6.891668701E0,8.622070312E-2,9.151136985E0
2.874782542E0,5.918991394E0,-7.217690735E0,4.246669006E-1,9.343974564E0
2.884721542E0,5.820196838E0,-7.627987518E0,6.276448059E-1,9.615343094E0
2.894661542E0,5.787864075E0,-8.031398621E0,8.331674194E-1,9.934631463E0
2.904600542E0,6.020630035E0,-8.470285950E0,1.306034088E0,1.047375077E1
2.914540542E0,6.340514832E0,-8.795110474E0,2.155218201E0,1.105445892E1
2.924479542E0,6.526128845E0,-8.801547089E0,3.112926636E0,1.139069362E1
2.934419542E0,6.624923401E0,-8.538394318E0,3.513793030E0,1.136400145E1
2.944358542E0,6.877148895E0,-8.230185242E0,2.800077209E0,1.108474440E1
2.954297542E0,7.621700592E0,-7.941286011E0,1.286424866E0,1.108193270E1
2.964237542E0,8.657247162E0,-7.666906586E0,-1.930984497E-2,1.156415833E1
2.974176542E0,9.373956757E0,-7.322472839E0,-6.539900208E-1,1.191290799E1
2.984116542E0,9.548044739E0,-6.860832825E0,-7.277865601E-1,1.177989213E1
2.994055542E0,9.482630768E0,-6.482719116E0,-3.965254211E-1,1.149361413E1
3.003995542E0,9.279503174E0,-6.395300903E0,2.348616028E-1,1.127227629E1
3.013934542E0,9.118138733E0,-6.775360565E0,1.283131714E0,1.143207731E1
3.023874542E0,9.225914612E0,-7.495662689E0,2.609074402E0,1.217003405E1
3.033813542E0,9.819580078E0,-8.211025085E0,3.096011810E0,1.316929668E1
3.043752542E0,1.119731506E1,-8.745862885E0,2.488724670E0,1.442441447E1
3.053692542E0,1.240605148E1,-9.020092621E0,2.453996887E0,1.553365009E1
3.063631542E0,1.246293320E1,-8.809330902E0,3.122955780E0,1.557824983E1
3.073571542E0,1.152947433E1,-8.117020569E0,3.610192566E0,1.455500916E1
3.083510542E0,1.037432648E1,-7.642207947E0,3.430266724E0,1.333404372E1
3.093450542E0,9.488768005E0,-7.718549194E0,3.858675842E0,1.282583717E1
3.103389542E0,8.337661743E0,-8.291407928E0,3.016078033E0,1.213922467E1
3.113329542E0,7.266040192E0,-9.349108429E0,2.168839874E0,1.203765072E1
3.123268542E0,7.047794037E0,-1.016640884E1,3.040177917E-1,1.237415437E1
3.133207542E0,7.744595032E0,-1.036354889E1,-3.006947021E0,1.328245565E1
3.143147542E0,8.122708740E0,-1.084599564E1,-4.577181702E0,1.430260854E1
3.153086542E0,8.388705597E0,-1.165955383E1,-4.214186554E0,1.496913309E1
3.163026542E0,9.063951416E0,-1.282892212E1,-3.369493103E0,1.606517793E1
3.172965542E0,9.652976532E0,-1.464374817E1,-2.205214233E0,1.767716850E1
3.182905542E0,9.303603058E0,-1.622805359E1,-0.000000000E0,1.870579464E1
3.192844542E0,7.257208557E0,-1.599438950E1,5.481451263E0,1.839929019E1
3.202783542E0,5.725892944E0,-1.471305405E1,1.050725006E1,1.896475977E1
3.212723542E0,5.642366638E0,-1.351419708E1,7.378007355E0,1.639831749E1
3.222662542E0,5.301824799E0,-1.255439301E1,1.423539734E0,1.370213835E1
3.232602542E0,4.781955872E0,-1.131781448E1,-1.860930176E0,1.242670865E1
3.242541542E0,4.479734344E0,-9.955347748E0,-2.746338959E0,1.125696879E1
3.252481542E0,4.205953674E0,-8.787027283E0,-3.231480103E0,1.026373998E1
3.262420542E0,4.249363403E0,-7.842790833E0,-3.819307709E0,9.703276186E0
3.272360542E0,4.266876984E0,-7.042704620E0,-3.710334320E0,9.031750015E0
3.282299542E0,3.709136810E0,-6.266119537E0,-3.059787140E0,7.898369913E0
3.292238542E0,3.235821075E0,-5.596112823E0,-2.120939484E0,6.803337494E0
3.302178542E0,3.028053131E0,-4.907245331E0,-7.095245361E-1,5.809783780E0
3.312117542E0,2.990032196E0,-4.500541077E0,2.606080627E-1,5.409535939E0
3.322057542E0,3.099903717E0,-4.392615509E0,5.140310669E-1,5.400805681E0
3.331996542E0,3.256777496E0,-4.317621460E0,3.132984924E-1,5.417251210E0
3.341936542E0,3.413950653E0,-4.374353485E0,-5.152285767E-1,5.572745101E0
3.351875542E0,3.892505493E0,-4.840933228E0,-1.079555054E0,6.304892754E0
3.361815542E0,4.418062592E0,-5.178930359E0,-1.482666779E0,6.966986257E0
3.371754542E0,4.922962646E0,-5.304369507E0,-1.484762421E0,7.387585298E0
3.381693542E0,5.171595612E0,-5.389841766E0,-1.133143616E0,7.555118125E0
3.391633542E0,4.743785248E0,-5.419330444E0,-9.627978516E-1,7.266334746E0
3.401572542E0,3.608396301E0,-5.440436554E0,-8.755293274E-1,6.586761372E0
3.411512542E0,1.712738342E0,-5.421276398E0,-8.424481201E-1,5.747471552E0
3.421451542E0,3.002755737E-1,-5.263205109E0,-8.861572266E-1,5.345724279E0
3.431391542E0,-5.180726624E-1,-5.060975647E0,-7.943980408E-1,5.149071958E0
3.441330542E0,-1.132844238E0,-4.858297119E0,-6.658154297E-1,5.032861726E0
3.451269542E0,-1.677711182E0,-4.719685364E0,-4.358935547E-1,5.027936747E0
3.461209542E0,-1.995650024E0,-4.817581787E0,5.028044128E-1,5.238752292E0
3.471148542E0,-1.745370483E0,-5.591472473E0,2.217937775E0,6.263396085E0
3.481088542E0,5.114863586E-1,-6.085744629E0,4.812342682E0,7.775380896E0
3.491027542E0,3.911515961E0,-6.166726227E0,9.009464722E0,1.159736712E1
3.500967542E0,7.455097046E0,-6.553372192E0,1.413465683E1,1.727175969E1
3.510906542E0,1.065529221E1,-7.710016937E0,1.674717407E1,2.129430564E1
3.520845542E0,1.274389893E1,-9.710007935E0,1.514071472E1,2.204387571E1
3.530785542E0,1.402313873E1,-1.135074600E1,1.365999390E1,2.262925734E1
3.540724542E0,1.495225662E1,-1.079390396E1,1.262714172E1,2.235001228E1
3.550664542E0,1.502485565E1,-8.186176758E0,1.001716919E1,1.982683676E1
3.560603542E0,1.429542252E1,-5.368735657E0,7.439379730E0,1.698607660E1
3.570543542E0,1.259106674E1,-3.102598114E0,5.417683868E0,1.405390961E1
3.580482542E0,1.033870056E1,-1.554816742E0,5.057832184E0,1.161412290E1
3.590422542E0,8.706195374E0,-1.654509430E0,4.026327209E0,9.733783958E0
3.600361542E0,9.278006287E0,-3.969445496E0,-1.098715210E0,1.015111192E1
3.610300542E0,1.051907547E1,-7.429649963E0,-7.680827637E0,1.499485780E1
3.620240542E0,1.023137375E1,-1.097233292E1,-1.113279922E1,1.868187135E1
3.630179542E0,9.053772583E0,-1.272563690E1,-1.037477554E1,1.874962933E1
3.640119542E0,8.781788177E0,-1.385833145E1,-6.328539734E0,1.758475389E1
3.650058542E0,1.009276199E1,-1.522409134E1,4.989873505E0,1.893503735E1
3.659998542E0,8.209079132E0,-1.519699768E1,2.095642090E1,2.715712237E1
3.669937333E0,1.854643250E0,-1.133862122E1,8.247998199E0,1.414332022E1
3.679876333E0,4.924758911E-2,-7.618257751E0,-2.668949890E0,8.072395556E0
3.689816333E0,-9.740245056E-1,-6.216123505E0,-3.772754517E0,7.336388199E0
3.699755333E0,-1.358125763E0,-6.334078217E0,-3.180286560E0,7.216597193E0
3.709695333E0,-7.491920471E-1,-6.823260956E0,-2.797682190E0,7.412503250E0
3.719634333E0,3.165916443E-1,-7.723039856E0,-2.370171204E0,8.084756423E0
3.729574333E0,8.539741516E-1,-8.896898804E0,-2.373464355E0,9.247562556E0
3.739513333E0,1.455124054E0,-1.010967682E1,-2.720143433E0,1.056986905E1
3.749453333E0,2.681224365E0,-1.081785416E1,-2.852917328E0,1.150452389E1
3.759392333E0,3.727698212E0,-1.069600754E1,-2.836152191E0,1.167664637E1
3.769331333E0,4.160448303E0,-1.001447479E1,-2.557880859E0,1.114189346E1
3.779271333E0,4.112697601E0,-8.991352386E0,-2.304607544E0,1.015233546E1
3.789210333E0,4.080364838E0,-8.229586487E0,-2.160307617E0,9.436228058E0
3.799150333E0,3.883823547E0,-7.879913635E0,-2.275567932E0,9.074983948E0
3.809089333E0,3.722010040E0,-8.070167999E0,-2.238894196E0,9.164803189E0
3.819029333E0,4.123026123E0,-8.204438782E0,-2.142494659E0,9.428809230E0
3.828968333E0,4.760101318E0,-8.055648193E0,-2.576442261E0,9.705157758E0
3.838907333E0,5.805078278E0,-8.020471344E0,-2.220332794E0,1.014676166E1
3.848847333E0,6.532864838E0,-8.232131195E0,-7.394622803E-1,1.053532683E1
3.858786333E0,6.440806274E0,-8.066874847E0,2.327659607E-1,1.032533947E1
3.868726333E0,5.984405365E0,-7.716603241E0,1.526824951E0,9.883838707E0
3.878665333E0,5.276527405E0,-7.383994904E0,4.685256958E0,1.021355741E1
3.888605333E0,4.820575562E0,-7.192842407E0,5.989494781E0,1.052848414E1
3.898544333E0,5.310207367E0,-7.240892487E0,4.022584991E0,9.839208113E0
3.908483333E0,5.704637146E0,-7.206464081E0,1.792073364E0,9.364162347E0
3.918423333E0,5.736670532E0,-6.982679443E0,-2.151026917E-1,9.039550330E0
3.928362333E0,5.820346527E0,-6.842421112E0,-1.549577637E0,9.115720006E0
3.938302333E0,5.927972717E0,-6.880591736E0,-1.985171814E0,9.296467625E0
3.948241333E0,5.717809753E0,-6.779252472E0,-2.019749908E0,9.095658423E0
3.958181333E0,5.565127258E0,-6.597979431E0,-1.588646393E0,8.776546663E0
3.968120333E0,5.918991394E0,-6.370302887E0,-1.006207581E0,8.753723304E0
3.978060333E0,6.527925110E0,-6.293063507E0,-5.803431702E-1,9.085882056E0
3.987999333E0,7.076234894E0,-6.606212311E0,-6.601272583E-2,9.680883175E0
3.997938333E0,7.580536194E0,-6.868167572E0,3.683839417E-1,1.023581758E1
4.007878333E0,8.018675079E0,-7.013365631E0,7.135661316E-1,1.067687333E1
4.017817333E0,8.322543182E0,-7.222929840E0,1.158441010E0,1.108049756E1
4.027757333E0,8.537645874E0,-7.462431793E0,1.811532898E0,1.148307175E1
4.037696333E0,8.475075989E0,-7.560477905E0,2.541415100E0,1.163814976E1
4.047636333E0,7.984096985E0,-7.541467438E0,3.294648743E0,1.146622196E1
4.057575333E0,7.222780151E0,-7.688761139E0,3.768413544E0,1.120207756E1
4.067514333E0,6.710395660E0,-7.981252899E0,3.198099518E0,1.090677075E1
4.077454333E0,6.987768860E0,-8.235574036E0,1.551972656E0,1.091156325E1
4.087393333E0,7.924670563E0,-8.314909058E0,8.622070312E-2,1.148675542E1
4.097333333E0,8.948840790E0,-8.128845978E0,-5.530998230E-1,1.210230589E1
4.107272333E0,9.705666962E0,-7.624844055E0,-6.327342224E-1,1.235874470E1
4.117212333E0,1.024035507E1,-7.026238861E0,-3.698808289E-1,1.242456101E1
4.127151333E0,1.060828995E1,-6.558012543E0,1.032852173E-1,1.247212941E1
4.137090333E0,1.075917618E1,-6.470744019E0,9.925859070E-1,1.259426961E1
4.147030333E0,1.070903046E1,-6.798412628E0,2.405198364E0,1.291072139E1
4.156969333E0,1.055619827E1,-7.466772766E0,3.454366608E0,1.338352219E1
4.166909333E0,1.063298859E1,-8.331374817E0,3.547772369E0,1.396635033E1
4.176848333E0,1.042177780E1,-9.141939240E0,3.781137085E0,1.436960345E1
4.186788333E0,9.695937195E0,-9.724677429E0,4.867278442E0,1.456952122E1
4.196727333E0,8.582702179E0,-9.977651367E0,5.391338654E0,1.422261706E1
4.206667333E0,7.803871765E0,-9.675130463E0,4.944667511E0,1.337752970E1
4.216606333E0,7.694898376E0,-8.855734406E0,3.928730164E0,1.237216285E1
4.226545333E0,7.413333893E0,-8.520431671E0,1.908980255E0,1.145423419E1
4.236485333E0,7.251670074E0,-9.019643555E0,4.219725037E-1,1.158096496E1
4.246424333E0,7.295678558E0,-9.391470337E0,-7.762857056E-1,1.191760296E1
4.256364333E0,7.429500275E0,-9.605375519E0,-2.743195496E0,1.244933069E1
4.266303333E0,7.710166626E0,-9.822573853E0,-4.276307373E0,1.319910721E1
4.276243333E0,8.106692047E0,-1.024619293E1,-4.602628784E0,1.385233256E1
4.286182333E0,8.735833740E0,-1.138921600E1,-3.623065796E0,1.480390618E1
4.296121333E0,9.407487030E0,-1.351928650E1,-1.123563538E0,1.650861335E1
4.306061333E0,9.730365601E0,-1.565354828E1,3.760330353E0,1.881099872E1
4.316000333E0,9.063352661E0,-1.600247269E1,8.324788513E0,2.018726325E1
4.325940333E0,7.760462036E0,-1.543425430E1,7.870782623E0,1.898394574E1
4.335879333E0,6.689289551E0,-1.418165909E1,3.868405609E0,1.615025112E1
4.345819333E0,5.899232483E0,-1.247954865E1,1.869612122E-1,1.380489162E1
4.355758333E0,5.077740784E0,-1.066966232E1,-1.610800323E0,1.192559530E1
4.365697333E0,4.389472046E0,-8.912466431E0,-2.079775085E0,1.015012252E1
4.375637333E0,4.067940674E0,-7.225773926E0,-1.854044495E0,8.496907151E0
4.385576333E0,4.039499817E0,-6.160888367E0,-1.118174744E0,7.451470928E0
4.395516333E0,3.751498718E0,-5.680088196E0,-8.113128662E-1,6.855317142E0
4.405455333E0,3.231929169E0,-5.549559631E0,-1.320104828E0,6.556344638E0
4.415395333E0,2.992876282E0,-5.413043518E0,-1.210682373E0,6.302705798E0
4.425334333E0,3.194956055E0,-5.338049469E0,-1.320553894E0,6.359746765E0
4.435273333E0,3.286715240E0,-5.421575775E0,-1.381177826E0,6.488731243E0
4.445213333E0,3.447929993E0,-5.558391266E0,-9.740245056E-1,6.613067249E0
4.455152333E0,3.617677002E0,-5.659880219E0,-3.004252625E-1,6.723993331E0
4.465092333E0,3.997586975E0,-5.627397766E0,5.417234802E-1,6.923999680E0
4.475031333E0,4.509372711E0,-5.651647339E0,8.731343079E-1,7.282714014E0
4.484971333E0,4.861590271E0,-5.616021423E0,7.580236816E-1,7.466549169E0
4.494910333E0,4.849016418E0,-5.657036133E0,1.598675537E-1,7.452554976E0
4.504850333E0,4.531975708E0,-5.702541504E0,-5.456153870E-1,7.304483525E0
4.514789333E0,3.579207001E0,-5.695655823E0,-1.004111938E0,6.801430643E0
4.524728333E0,2.009122009E0,-5.608387299E0,-1.534010010E0,6.151728704E0
4.534668333E0,5.587879944E-1,-5.382507019E0,-1.672023010E0,5.663857941E0
4.544607333E0,-5.367837524E-1,-5.054089966E0,-1.623823242E0,5.335612814E0
4.554547333E0,-1.284478912E0,-4.833748169E0,-1.236428833E0,5.152064023E0
4.564486333E0,-1.725461884E0,-4.759801941E0,-7.035369873E-1,5.111545512E0
4.574426333E0,-1.987716522E0,-4.784350891E0,-4.008663940E-1,5.196318340E0
4.584365333E0,-2.167193298E0,-5.137466583E0,-1.823208618E-1,5.578846707E0
4.594304333E0,-1.857337646E0,-5.647156677E0,3.019221497E-1,5.952414523E0
4.604244333E0,-1.220262451E0,-6.478078766E0,1.685045929E0,6.803963898E0
4.614183333E0,4.364923096E-1,-7.149133301E0,4.981940002E0,8.724698200E0
4.624123333E0,3.391796722E0,-7.461234283E0,1.019065842E1,1.307760762E1
4.634062333E0,7.557633820E0,-7.932454376E0,1.673385178E1,2.000158635E1
4.644002333E0,1.251816833E1,-9.305848389E0,1.987027954E1,2.526126208E1
4.653941333E0,1.596909210E1,-1.217642899E1,1.621458160E1,2.581065637E1
4.663880333E0,1.651545593E1,-1.476709167E1,1.515209106E1,2.684051313E1
4.673820667E0,1.617177063E1,-1.486603592E1,1.439511520E1,2.626298785E1
4.683759667E0,1.586101685E1,-1.189606201E1,1.241952347E1,2.339514287E1
4.693699667E0,1.249825974E1,-7.274422760E0,8.537795563E0,1.679338191E1
4.703638667E0,8.036038971E0,-3.430715790E0,5.259313202E0,1.019843657E1
4.713578667E0,4.929848328E0,-7.934999084E-1,4.017345886E0,6.408752968E0
4.723517667E0,2.709216156E0,7.168592834E-1,3.034938812E0,4.130931252E0
4.733456667E0,2.745590515E0,4.152365112E-1,-1.572629700E0,3.191214943E0
4.743396667E0,4.957241364E0,-2.383942566E0,-8.205636292E0,9.878759590E0
4.753335667E0,7.231312408E0,-6.499783630E0,-1.173454788E1,1.523937927E1
4.763275667E0,8.182883606E0,-1.040905426E1,-1.112396759E1,1.729308098E1
4.773214667E0,9.436077576E0,-1.338905731E1,-7.555538177E0,1.803864110E1
4.783154667E0,1.108714417E1,-1.539548492E1,-2.912493439E0,1.919448722E1
4.793093667E0,1.596564926E1,-1.856619141E1,1.113175140E1,2.689835142E1
4.803032667E0,1.440080338E1,-1.823657684E1,2.243235168E1,3.229808469E1
4.812972667E0,4.620890808E0,-1.292696823E1,6.458020477E0,1.517119534E1
4.822911667E0,1.115180969E-1,-8.919801178E0,-2.891387329E0,9.377388231E0
4.832851667E0,-2.646795959E0,-7.052883453E0,-8.292755127E-1,7.578680079E0
4.842790667E0,-3.601211243E0,-6.177952881E0,-5.269042969E-2,7.151125820E0
4.852730667E0,-1.253044281E0,-5.616919556E0,-2.144290924E0,6.141489138E0
4.862669667E0,7.173083496E-1,-5.898633728E0,-2.901117096E0,6.612479983E0
4.872608667E0,1.858834534E0,-6.887776794E0,-2.722837830E0,7.636136513E0
4.882548667E0,3.015778656E0,-7.886649628E0,-3.016976166E0,8.966398856E0
4.892487667E0,3.723806305E0,-8.556506653E0,-3.139122162E0,9.845538454E0
4.902427667E0,4.356989594E0,-8.783434753E0,-2.935994568E0,1.023484971E1
4.912366667E0,4.916376343E0,-8.744665375E0,-2.595452728E0,1.036225380E1
4.922306667E0,5.262606354E0,-8.600664825E0,-2.329455872E0,1.034856636E1
4.932245667E0,5.494773560E0,-8.359965363E0,-2.165397034E0,1.023574627E1
4.942184667E0,5.734574890E0,-8.048313446E0,-2.150428162E0,1.011360667E1
4.952124667E0,5.955665131E0,-7.581883392E0,-2.239043884E0,9.897889696E0
4.962063667E0,6.277196503E0,-7.313341827E0,-1.839824066E0,9.811886527E0
4.972003667E0,6.618037720E0,-7.251370697E0,-8.674461365E-1,9.855620886E0
4.981942667E0,6.680906982E0,-7.169790344E0,-1.475930786E-1,9.801132353E0
4.991882667E0,6.422244873E0,-6.904092865E0,3.342549133E-1,9.435224101E0
5.001821667E0,5.902525635E0,-6.521189117E0,1.164278870E0,8.872500305E0
5.011761667E0,5.185366974E0,-6.350094910E0,3.494932251E0,8.912142697E0
5.021700667E0,4.323908386E0,-6.608008575E0,6.085445251E0,9.969684297E0
5.031639667E0,4.386178894E0,-7.081473999E0,4.688849487E0,9.558825702E0
5.041579667E0,4.974754944E0,-7.465874634E0,1.976789246E0,9.186684196E0
5.051518667E0,5.277874603E0,-7.575746155E0,7.394622803E-2,9.233274510E0
5.061458667E0,5.306914215E0,-7.383994904E0,-1.031504974E0,9.151542041E0
5.071397667E0,5.295088806E0,-7.072642365E0,-1.619781647E0,8.982423285E0
5.081337667E0,5.293442230E0,-6.880142670E0,-1.759890289E0,8.857432338E0
5.091276667E0,5.288951569E0,-6.804849243E0,-1.486708374E0,8.745815211E0
5.101215667E0,5.361101532E0,-6.845414886E0,-1.212628326E0,8.779042206E0
5.111155667E0,5.365891571E0,-6.998546448E0,-1.081950073E0,8.884990754E0
5.121094667E0,5.598058777E0,-7.129823456E0,-9.472302246E-1,9.114268466E0
5.131034667E0,6.126010895E0,-7.293732605E0,-6.738986206E-1,9.548857740E0
5.140973667E0,6.552474060E0,-7.697742462E0,-2.887495422E-1,1.011303770E1
5.150912667E0,7.045548706E0,-8.090226288E0,1.910028076E-1,1.072977167E1
5.160852667E0,7.578290863E0,-8.270301819E0,1.262624359E0,1.128816216E1
5.170791667E0,8.176596680E0,-8.131540375E0,3.189866638E0,1.196469520E1
5.180731667E0,8.654403076E0,-7.882009277E0,5.521867218E0,1.294278874E1
5.190670667E0,8.842262421E0,-7.677384796E0,5.454058228E0,1.291799494E1
5.200610667E0,8.933273163E0,-7.847281494E0,2.782863007E0,1.221177803E1
5.210549667E0,9.148076477E0,-8.066425781E0,6.979985046E-1,1.221645325E1
5.220489667E0,9.370064850E0,-7.892786865E0,-2.480342102E-1,1.225380434E1
5.230428667E0,9.503138123E0,-7.536827087E0,-4.336482239E-1,1.213678077E1
5.240367667E0,9.430539093E0,-7.208260345E0,-1.068777466E-1,1.187036257E1
5.250307667E0,9.227710876E0,-7.086264038E0,4.700225830E-1,1.164417053E1
5.260246667E0,9.121431885E0,-7.186256104E0,9.785151672E-1,1.165333808E1
5.270186667E0,9.296717377E0,-7.560178528E0,1.482367401E0,1.207404930E1
5.280125667E0,9.906998291E0,-8.283773804E0,2.147135010E0,1.309120744E1
5.290064667E0,1.088431595E1,-9.087602234E0,2.509082336E0,1.439959521E1
5.300004667E0,1.176104279E1,-9.702972565E0,2.969973907E0,1.553352983E1
5.309943667E0,1.182031952E1,-9.815837860E0,4.451592865E0,1.599647791E1
5.319883667E0,1.078103073E1,-9.227112122E0,6.365961914E0,1.555299627E1
5.329822667E0,9.211544495E0,-8.293503571E0,6.758296051E0,1.411769524E1
5.339762667E0,8.296048279E0,-7.540569305E0,5.873336334E0,1.265625072E1
5.349701667E0,7.820337524E0,-7.518714752E0,4.122127991E0,1.160520098E1
5.359641667E0,7.458539886E0,-8.323441315E0,2.050136719E0,1.136277049E1
5.369580667E0,7.882009277E0,-9.104517059E0,-1.255888367E0,1.210766521E1
5.379519667E0,8.997789001E0,-9.004974060E0,-5.338498535E0,1.380396071E1
5.389459667E0,9.058862000E0,-8.727151794E0,-6.751260681E0,1.427605267E1
5.399398667E0,8.611442413E0,-9.109756165E0,-5.914800110E0,1.386107709E1
5.409338667E0,8.853788452E0,-1.027328659E1,-4.594844971E0,1.431930821E1
5.419277667E0,9.497899017E0,-1.213227081E1,-2.893183594E0,1.567713597E1
5.429217667E0,9.748627625E0,-1.377660141E1,-7.029382324E-1,1.689155437E1
5.439156667E0,8.766819305E0,-1.471679626E1,4.468807068E0,1.770343045E1
5.449095667E0,7.041058044E0,-1.504611145E1,1.052940399E1,1.966800235E1
5.459035667E0,6.027216339E0,-1.484552856E1,7.799081726E0,1.781972870E1
5.468974667E0,5.834417267E0,-1.440259964E1,2.452350311E0,1.573179339E1
5.478914667E0,5.688919830E0,-1.367705841E1,-9.145980835E-1,1.484123395E1
5.488853667E0,5.235662384E0,-1.225097397E1,-2.671494598E0,1.358806120E1
5.498792667E0,4.564907227E0,-1.039288788E1,-3.221301270E0,1.179946093E1
5.508732667E0,4.345912628E0,-8.532556458E0,-2.825374603E0,9.983697608E0
5.518671667E0,4.098926239E0,-7.198231201E0,-2.083217926E0,8.541400685E0
5.528611667E0,3.555256805E0,-6.264922028E0,-2.057621155E0,7.491522127E0
5.538550667E0,3.115770721E0,-5.606890411E0,-1.905387726E0,6.691468423E0
5.548490667E0,3.087778931E0,-5.188360748E0,-1.423539734E0,6.203219435E0
5.558429667E0,3.066373444E0,-5.087919617E0,-1.424886932E0,6.108999500E0
5.568368667E0,2.737207947E0,-5.065017242E0,-1.439556427E0,5.934562302E0
5.578308667E0,2.565814362E0,-5.005441132E0,-9.271719360E-1,5.700657160E0
5.588247667E0,2.823728027E0,-4.828359375E0,-4.909790039E-1,5.614940303E0
5.598187667E0,3.408561859E0,-4.687651978E0,-3.697311401E-1,5.807673900E0
5.608126667E0,4.049528961E0,-4.679269409E0,-2.435435486E-1,6.193025147E0
5.618066667E0,4.400998077E0,-4.903503113E0,-2.052232361E-1,6.592059119E0
5.628005667E0,4.389472046E0,-5.323679352E0,-4.667294312E-1,6.915696859E0
5.637944667E0,3.549868011E0,-5.658233643E0,-1.064436493E0,6.763889111E0
5.647884667E0,1.820065155E0,-5.632038116E0,-1.498234406E0,6.105505454E0
5.657823667E0,3.165916443E-1,-5.334307251E0,-1.617236938E0,5.583056460E0
5.667763667E0,-8.563691711E-1,-4.952151947E0,-1.423390045E0,5.223333829E0
5.677702458E0,-1.781894531E0,-4.610113220E0,-1.101708984E0,5.063798447E0
5.687642458E0,-2.324815521E0,-4.444258118E0,-9.442364502E-1,5.103702568E0
5.697581458E0,-2.499801636E0,-4.543052673E0,-6.191125488E-1,5.222225211E0
5.707520458E0,-2.377955017E0,-4.983287201E0,2.020797729E-1,5.525274439E0
5.717460458E0,-1.748663635E0,-5.882617035E0,2.079026642E0,6.479611058E0
5.727399458E0,5.249583435E-1,-6.313271484E0,5.633235626E0,8.477400646E0
5.737339458E0,3.518882446E0,-6.502478027E0,1.023092468E1,1.262285919E1
5.747278458E0,6.897356873E0,-7.167694702E0,1.452489532E1,1.760460063E1
5.757218458E0,1.027208908E1,-8.949140167E0,1.703757019E1,2.181471342E1
5.767157458E0,1.261531631E1,-1.183618652E1,1.520972122E1,2.303426007E1
5.777096458E0,1.394754593E1,-1.406475220E1,1.516406616E1,2.494594545E1
5.787036458E0,1.503219040E1,-1.398257309E1,1.568273758E1,2.583461547E1
5.796975458E0,1.587478821E1,-1.077639038E1,1.346150665E1,2.343825189E1
5.806915458E0,1.447654587E1,-6.469995575E0,8.922345886E0,1.819449035E1
5.816854458E0,1.129356491E1,-3.191213837E0,6.013594666E0,1.318680306E1
5.826794458E0,8.431366882E0,-1.403182068E0,5.964796143E0,1.042284320E1
5.836733458E0,7.094197540E0,-1.279539185E0,5.417833557E0,9.017637147E0
5.846672458E0,7.961643677E0,-3.601510620E0,1.178050232E0,8.817394804E0
5.856612458E0,9.572294312E0,-7.193291473E0,-5.824837189E0,1.331544175E1
5.866551458E0,1.001597168E1,-1.020128632E1,-1.109328140E1,1.809549180E1
5.876491458E0,8.900191956E0,-1.157722504E1,-1.144160706E1,1.855144006E1
5.886430458E0,8.651858368E0,-1.183798279E1,-8.141569519E0,1.677133399E1
5.896370458E0,8.099207611E0,-1.188797882E1,-3.615132294E0,1.483207288E1
5.906309458E0,8.927584991E0,-1.174053543E1,8.243357849E0,1.689659417E1
5.916248458E0,5.223986664E0,-1.080168777E1,1.939546692E1,2.280681110E1
5.926188458E0,2.177970886E-1,-8.622070312E0,5.903872833E0,1.045194941E1
5.936127458E0,-4.123924255E-1,-6.618187408E0,-1.700613556E0,6.845623314E0
5.946067458E0,-5.176235962E-1,-6.375092926E0,-3.253933411E0,7.176198621E0
5.956006458E0,-4.363426208E-1,-7.432494049E0,-3.421435089E0,8.193813565E0
5.965945458E0,5.523513794E-1,-8.543034668E0,-2.588866425E0,8.943755517E0
5.975885458E0,1.686243439E0,-9.563163300E0,-2.049837341E0,9.924683489E0
5.985824458E0,2.619851990E0,-1.060305084E1,-1.897454224E0,1.108551506E1
5.995764458E0,3.539988556E0,-1.121273300E1,-2.001936951E0,1.192747467E1
6.005703458E0,4.500840454E0,-1.094329330E1,-2.078128510E0,1.201381918E1
6.015643458E0,4.984185333E0,-9.950258331E0,-1.940115509E0,1.129662748E1
6.025582458E0,4.728966064E0,-8.872948608E0,-1.667232971E0,1.019176152E1
6.035521458E0,4.321663055E0,-7.930658112E0,-1.562301178E0,9.165854822E0
6.045461458E0,4.074826355E0,-7.240293732E0,-1.567540283E0,8.454776501E0
6.055400458E0,3.775299225E0,-6.765780487E0,-1.739981689E0,7.940793796E0
6.065340458E0,3.513044586E0,-6.308032379E0,-2.390528870E0,7.605746711E0
6.075279458E0,4.157304840E0,-6.363417206E0,-2.214195557E0,7.917002212E0
6.085219458E0,5.507646790E0,-6.998995514E0,-9.466314697E-1,8.956350959E0
6.095158458E0,6.242917786E0,-7.457641754E0,-5.358856201E-2,9.725909456E0
6.105097458E0,6.421945496E0,-7.570507050E0,9.710307312E-1,9.974811357E0
6.115037458E0,6.313870239E0,-7.429949341E0,2.625689850E0,1.009769042E1
6.124976458E0,6.056255951E0,-7.305857391E0,4.621639252E0,1.055525167E1
6.134916458E0,5.927523651E0,-7.231312408E0,4.608167267E0,1.042413648E1
6.144855458E0,6.453829193E0,-7.112309875E0,2.347418518E0,9.886720220E0
6.154795458E0,6.847211151E0,-7.178771667E0,8.678952026E-1,9.958529273E0
6.164734458E0,6.740932159E0,-7.053631897E0,-4.719685364E-1,9.768144328E0
6.174673458E0,6.483617249E0,-6.739135895E0,-1.466201019E0,9.465885625E0
6.184613458E0,6.092630310E0,-6.354286194E0,-2.082918549E0,9.046305699E0
6.194552458E0,5.732479248E0,-6.120173035E0,-2.177222443E0,8.663609748E0
6.204492458E0,5.677094421E0,-5.973777466E0,-1.903441772E0,8.458044033E0
6.214431458E0,5.970484314E0,-5.989345093E0,-1.611548767E0,8.609066559E0
6.224371458E0,6.350394287E0,-6.428082733E0,-1.340013428E0,9.134735421E0
6.234310458E0,6.623127136E0,-7.105274506E0,-1.096469879E0,9.775120718E0
6.244249458E0,6.823560333E0,-7.570357361E0,-9.454339600E-1,1.023548394E1
6.254189458E0,6.818171539E0,-7.801177368E0,-6.780899048E-1,1.038294936E1
6.264128458E0,6.771169281E0,-7.839347992E0,-4.291575623E-1,1.036765579E1
6.274068458E0,6.563401337E0,-7.835905151E0,-6.870712280E-2,1.022175950E1
6.284007458E0,6.158493347E0,-7.803722076E0,6.593788147E-1,9.962926225E0
6.293947458E0,5.948031006E0,-7.717501373E0,1.662742310E0,9.884513760E0
6.303886458E0,5.708379364E0,-7.791447601E0,3.138673096E0,1.015595980E1
6.313825458E0,5.441634064E0,-7.939040680E0,4.983586578E0,1.083862922E1
6.323765458E0,5.945186920E0,-8.133935394E0,4.224964142E0,1.092503888E1
6.333704458E0,7.736661530E0,-8.380323029E0,1.158291321E0,1.146417832E1
6.343644458E0,9.563762054E0,-8.314759369E0,-4.851411438E-1,1.268211851E1
6.353583458E0,1.076336746E1,-7.733368378E0,-8.158035278E-1,1.327857677E1
6.363522458E0,1.120719452E1,-6.937323761E0,-8.376580811E-1,1.320717006E1
6.373462458E0,1.123413849E1,-6.357878723E0,-6.020480347E-1,1.292249787E1
6.383401458E0,1.100092346E1,-6.293811951E0,4.090992737E-1,1.268068405E1
6.393341458E0,1.040725800E1,-6.726562042E0,1.980830841E0,1.254915721E1
6.403280458E0,9.485923920E0,-7.538623352E0,3.564387817E0,1.263006157E1
6.413220458E0,9.146579590E0,-8.440198517E0,3.303630066E0,1.287675583E1
6.423159458E0,1.001387604E1,-9.342971191E0,1.579216003E0,1.378632464E1
6.433098458E0,1.109986771E1,-1.024215134E1,1.092428284E0,1.514272521E1
6.443038458E0,1.108894043E1,-1.075229050E1,2.187401276E0,1.560003446E1
6.452977458E0,9.915380859E0,-1.049123337E1,3.757037201E0,1.491630261E1
6.462917458E0,8.748108215E0,-9.708511047E0,4.114942932E0,1.370099775E1
6.472856458E0,8.145611115E0,-9.031768341E0,4.331093445E0,1.291054570E1
6.482795458E0,7.719597015E0,-8.675209808E0,3.601959686E0,1.215835338E1
6.492735458E0,6.982679443E0,-9.019194489E0,1.777104492E0,1.154390670E1
6.502674458E0,6.891968079E0,-8.956624603E0,-8.382568359E-1,1.133238822E1
6.512614458E0,6.472540283E0,-8.625513153E0,-3.101101227E0,1.122096625E1
6.522553458E0,6.287075958E0,-8.825646973E0,-4.123475189E0,1.159406815E1
6.532493458E0,6.815477142E0,-9.240883484E0,-4.324956207E0,1.226987785E1
6.542432458E0,7.386689301E0,-1.021266266E1,-3.674409027E0,1.312870668E1
6.552371458E0,8.189619598E0,-1.215247879E1,-1.844464417E0,1.477005954E1
6.562311458E0,8.817563782E0,-1.454285797E1,1.921254730E0,1.711535477E1
6.572250458E0,8.400531006E0,-1.567719910E1,6.580016785E0,1.896417975E1
6.582190458E0,7.248676300E0,-1.559097839E1,6.620283051E0,1.842417062E1
6.592129458E0,6.325396271E0,-1.506527161E1,2.790796509E0,1.657593411E1
6.602069458E0,6.196813660E0,-1.434137695E1,7.140151978E-2,1.562308198E1
6.612008458E0,5.995332642E0,-1.339729019E1,-9.571096802E-1,1.470875443E1
6.621947458E0,5.479804688E0,-1.194800400E1,-1.284628601E0,1.320732106E1
6.631887458E0,4.606371002E0,-1.017209702E1,-1.167871399E0,1.122738327E1
6.641826458E0,3.867956543E0,-8.737180939E0,-1.103505249E0,9.618583181E0
6.651766458E0,3.455863495E0,-7.662565613E0,-5.598358154E-1,8.424447780E0
6.661705458E0,3.422482910E0,-6.936126251E0,7.694000244E-2,7.734930925E0
6.671645417E0,3.220103760E0,-6.470744019E0,-1.511856079E-1,7.229277520E0
6.681584417E0,3.027604065E0,-6.231691132E0,-1.062340851E0,7.009203151E0
6.691523417E0,3.058589630E0,-6.183191986E0,-2.287543030E0,7.267715375E0
6.701463417E0,3.279979248E0,-5.990991669E0,-2.582280121E0,7.301946019E0
6.711402417E0,3.273991699E0,-5.728886719E0,-2.237996063E0,6.967624492E0
6.721342417E0,3.197949829E0,-5.497467957E0,-1.842219086E0,6.621390202E0
6.731281417E0,3.266656952E0,-5.208568726E0,-1.180295563E0,6.260457925E0
6.741220417E0,3.243305511E0,-4.917424164E0,-7.589218140E-1,5.939364728E0
6.751160417E0,3.549568634E0,-4.637655945E0,-8.656498718E-1,5.903951207E0
6.761099417E0,3.657494202E0,-4.403243408E0,-9.358538818E-1,5.800141277E0
6.771039417E0,2.950065308E0,-4.410129089E0,-6.747967529E-1,5.348595569E0
6.780978417E0,1.370100861E0,-4.604574738E0,-5.560935974E-1,4.836168418E0
6.790918417E0,3.742218018E-2,-4.543801117E0,-7.339237976E-1,4.602844028E0
6.800857417E0,-9.587562561E-1,-4.245621185E0,-9.442364502E-1,4.453773151E0
6.810796417E0,-1.682052155E0,-4.067641296E0,-1.021026764E0,4.518572874E0
6.820736417E0,-1.884131927E0,-4.085454254E0,-9.135502625E-1,4.590802072E0
6.830675417E0,-1.731599121E0,-4.186194763E0,-4.805007935E-1,4.555605681E0
6.840615417E0,-1.104253693E0,-4.428840179E0,7.409591675E-1,4.624177985E0
6.850554417E0,9.301657104E-1,-4.447700958E0,2.937341766E0,5.410658806E0
6.860493417E0,3.359014893E0,-4.502187653E0,5.731132050E0,8.024870670E0
6.870433417E0,5.975274353E0,-5.047204285E0,9.408834229E0,1.223537234E1
6.880372417E0,9.071286163E0,-6.104455719E0,1.282532959E1,1.685353646E1
6.890312417E0,1.265483414E1,-8.061635742E0,1.549742294E1,2.157092756E1
6.900251417E0,1.569920334E1,-1.084000809E1,1.648746414E1,2.521521831E1
6.910191417E0,1.632609970E1,-1.306138870E1,1.571297470E1,2.615413887E1
6.920130417E0,1.647324371E1,-1.332229614E1,1.390937531E1,2.534407336E1
6.930069417E0,1.588287140E1,-1.092577972E1,1.171433990E1,2.255801467E1
6.940009417E0,1.098311050E1,-7.117698669E0,7.913743286E0,1.529436770E1
6.949948417E0,6.653663635E0,-4.045487366E0,5.465584259E0,9.513664861E0
6.959888417E0,4.470453644E0,-2.337089996E0,5.197641449E0,7.243094785E0
6.969827417E0,3.075803833E0,-1.893861694E0,6.272256775E0,7.237989112E0
6.979767417E0,3.829785919E0,-3.227887573E0,5.038672028E0,7.104557282E0
6.989706417E0,6.466253357E0,-5.766308899E0,-2.158211975E0,8.928640979E0
6.999645417E0,8.661887512E0,-8.392148438E0,-8.997639313E0,1.504705831E1
7.009585417E0,9.682315521E0,-1.057760376E1,-1.068657715E1,1.788395556E1
7.019524417E0,9.025331726E0,-1.207134750E1,-8.743916931E0,1.742498570E1
7.029464417E0,8.935219116E0,-1.292666885E1,-3.999532928E0,1.621521421E1
7.039403417E0,1.297232391E1,-1.383707565E1,1.172242310E1,2.229710864E1
7.049342417E0,1.229857498E1,-1.404274796E1,2.298979248E1,2.961392029E1
7.059282417E0,5.823939056E0,-1.114058304E1,1.834584961E0,1.270419453E1
7.069221417E0,1.857187958E0,-7.887847137E0,-5.388344879E0,9.731471631E0
7.079161417E0,-6.216572571E-1,-6.304439850E0,-4.369862823E0,7.695980812E0
7.089100417E0,-1.619781647E0,-6.079008636E0,-3.274291077E0,7.092180246E0
7.099040417E0,-1.326840820E0,-6.288572845E0,-2.345771942E0,6.841732310E0
7.108979417E0,-4.411326599E-1,-6.927743683E0,-1.699565735E0,7.146800280E0
7.118918417E0,4.273612976E-1,-7.857610016E0,-1.419797516E0,7.996280249E0
7.128858417E0,1.420096893E0,-8.915909271E0,-1.651964722E0,9.178186137E0
7.138797417E0,2.743943939E0,-9.749675446E0,-1.944456482E0,1.031340442E1
7.148737417E0,3.828738098E0,-9.952503662E0,-2.059716797E0,1.086066286E1
7.158676417E0,4.298161926E0,-9.765542450E0,-1.888472900E0,1.083542086E1
7.168615417E0,4.354145508E0,-9.209897919E0,-1.596280518E0,1.031159126E1
7.178555417E0,4.254003754E0,-8.657995605E0,-1.386566620E0,9.745768458E0
7.188494417E0,3.994144135E0,-8.478967896E0,-1.351988525E0,9.469633410E0
7.198434417E0,3.890110474E0,-8.369395752E0,-1.422940979E0,9.338335279E0
7.208373417E0,4.289479980E0,-8.207731934E0,-1.519190826E0,9.384798494E0
7.218313417E0,5.337151337E0,-7.925868073E0,-1.866468658E0,9.735926990E0
7.228252417E0,6.698270874E0,-7.876620483E0,-1.051712952E0,1.039298240E1
7.238191417E0,7.574099579E0,-7.923473053E0,6.221063232E-1,1.097886269E1
7.248131417E0,7.704179077E0,-7.645052032E0,2.163600769E0,1.106717507E1
7.258070417E0,7.357200623E0,-7.007677460E0,3.871848450E0,1.087323111E1
7.268010417E0,6.621929626E0,-6.336922302E0,4.077221375E0,1.003146402E1
7.277949417E0,6.325545959E0,-6.122867432E0,2.703378296E0,9.209250321E0
7.287888417E0,6.681206360E0,-6.233337708E0,1.545985107E0,9.267312844E0
7.297828417E0,7.079977112E0,-6.402036896E0,4.558021545E-1,9.556145035E0
7.307767417E0,7.349416809E0,-6.684798889E0,-9.984237671E-2,9.935312382E0
7.317707417E0,7.119045868E0,-6.874155121E0,-1.332229614E-1,9.897099123E0
7.327646417E0,6.674320679E0,-6.662046204E0,-3.577560425E-1,9.437023128E0
7.337586417E0,6.260581055E0,-6.282435608E0,-9.162446594E-1,8.916466598E0
7.347525417E0,6.076314240E0,-5.933960266E0,-1.499581604E0,8.624512981E0
7.357464417E0,6.114634552E0,-5.861061859E0,-1.543141022E0,8.609418449E0
7.367404417E0,6.435567169E0,-5.998625793E0,-1.314266968E0,8.895354623E0
7.377343417E0,6.804250488E0,-6.314918060E0,-1.089284821E0,9.346793901E0
7.387283417E0,7.126530304E0,-6.712940369E0,-1.015787659E0,9.842907453E0
7.397222417E0,7.450756073E0,-6.825057220E0,-9.406439209E-1,1.014790536E1
7.407162417E0,7.438032532E0,-6.790628815E0,-7.924520874E-1,1.010271983E1
7.417101417E0,6.905739441E0,-6.667884064E0,-5.884263611E-1,9.617492433E0
7.427040417E0,6.281387787E0,-6.665339355E0,-2.318678284E-1,9.161678009E0
7.436980417E0,5.984255676E0,-7.015012207E0,3.432362366E-1,9.227108072E0
7.446919417E0,5.984704742E0,-7.698490906E0,1.145567780E0,9.818135190E0
7.456859417E0,6.064189453E0,-8.397836609E0,1.949695587E0,1.054036841E1
7.466798417E0,5.969286804E0,-8.962163086E0,2.803370361E0,1.112706779E1
7.476737417E0,6.181994476E0,-9.293573914E0,2.955454102E0,1.154652678E1
7.486677417E0,7.202422485E0,-9.230255585E0,1.541943512E0,1.180889909E1
7.496616417E0,8.621770935E0,-8.765172729E0,3.462300110E-1,1.229971797E1
7.506556417E0,9.501491547E0,-8.127199402E0,5.269042969E-2,1.250329909E1
7.516495417E0,9.842033386E0,-7.511080627E0,4.686753845E-1,1.238957667E1
7.526435417E0,9.985435181E0,-7.121590576E0,1.433718567E0,1.234834066E1
7.536374417E0,9.971214752E0,-7.102729797E0,2.614762573E0,1.251842153E1
7.546313417E0,9.918374634E0,-7.405101013E0,2.950963440E0,1.272469495E1
7.556253417E0,1.039692947E1,-7.732769623E0,1.761985931E0,1.307656159E1
7.566192417E0,1.135224289E1,-7.994275818E0,3.436853027E-1,1.388884387E1
7.576132417E0,1.218062027E1,-8.368198242E0,1.517843628E-1,1.477894754E1
7.586071417E0,1.230755630E1,-8.891210632E0,1.436862030E0,1.525103738E1
7.596010417E0,1.146450943E1,-9.073681183E0,3.576961670E0,1.505195407E1
7.605950417E0,9.977501678E0,-8.608748016E0,4.217180328E0,1.383639014E1
7.615889417E0,8.797355804E0,-7.974516907E0,2.873274994E0,1.221646832E1
7.625829417E0,8.303083649E0,-7.456444244E0,2.592758331E0,1.145696970E1
7.635768417E0,7.373516693E0,-7.673193512E0,2.284100189E0,1.088410588E1
7.645708417E0,6.297554169E0,-8.818162537E0,2.696791992E0,1.116655122E1
7.655647417E0,5.966143341E0,-9.536518707E0,1.354832611E0,1.133029686E1
7.665586417E0,6.746470642E0,-9.449399872E0,-2.939287720E0,1.197687089E1
7.675527208E0,7.813900909E0,-9.259893951E0,-5.280269623E0,1.321680486E1
7.685466208E0,8.282426605E0,-9.608968048E0,-5.215903473E0,1.371628618E1
7.695406208E0,8.837023315E0,-1.082234482E1,-4.221221924E0,1.459571317E1
7.705345208E0,9.621691589E0,-1.287816971E1,-2.557581482E0,1.627775866E1
7.715284208E0,9.730964355E0,-1.500779114E1,3.260220337E-1,1.788943131E1
7.725224208E0,8.565937042E0,-1.581416428E1,5.148992615E0,1.870762396E1
7.735163208E0,7.440427551E0,-1.573782303E1,8.594228210E0,1.941390724E1
7.745103208E0,7.009473724E0,-1.512873962E1,6.446943512E0,1.787664860E1
7.755042208E0,6.343658295E0,-1.428763870E1,2.222727814E0,1.578984291E1
7.764981208E0,5.709277496E0,-1.293325516E1,-7.494914246E-1,1.415721286E1
7.774921208E0,4.978946228E0,-1.112486572E1,-2.690654755E0,1.248167320E1
7.784860208E0,4.425247650E0,-9.543703766E0,-2.910547485E0,1.091496152E1
7.794800208E0,4.202810211E0,-8.112080841E0,-2.436034241E0,9.455354677E0
7.804739208E0,3.853885803E0,-7.029681702E0,-2.244432678E0,8.325042862E0
7.814679208E0,3.773053894E0,-6.401288452E0,-1.626966705E0,7.606539962E0
7.824618208E0,3.621868286E0,-6.023474121E0,-1.232836304E0,7.135829014E0
7.834557208E0,3.275338898E0,-5.855074310E0,-1.087937622E0,6.796568866E0
7.844497208E0,3.045566711E0,-5.575156403E0,-1.329984283E0,6.490508740E0
7.854436208E0,2.838996277E0,-5.297483826E0,-1.495839386E0,6.193607205E0
7.864376208E0,2.797682190E0,-5.198689270E0,-1.407822418E0,6.069214094E0
7.874315208E0,3.209326172E0,-4.993615723E0,-9.843530273E-1,6.017052713E0
7.884254208E0,3.521576843E0,-4.880301361E0,-3.062631226E-1,6.025997174E0
7.894194208E0,3.826492767E0,-4.890180817E0,1.886077881E-2,6.209369618E0
7.904133208E0,3.910767517E0,-4.953499146E0,-1.215472412E-1,6.312371194E0
7.914073208E0,3.611839142E0,-5.157674561E0,-5.679190063E-1,6.322145273E0
7.924012208E0,2.741548920E0,-5.310806122E0,-1.011596375E0,6.061689481E0
7.933952208E0,1.323547668E0,-5.219795380E0,-1.332379303E0,5.547366658E0
7.943891208E0,4.999603271E-2,-5.040468292E0,-1.524280243E0,5.266141896E0
7.953830208E0,-1.031654663E0,-4.829706573E0,-1.430126038E0,5.141559823E0
7.963770208E0,-1.858535156E0,-4.622537384E0,-1.313069458E0,5.152296206E0
7.973709208E0,-2.035467224E0,-4.587210846E0,-1.132694550E0,5.144766963E0
7.983649208E0,-2.003882904E0,-4.878505096E0,-3.540138245E-1,5.285894859E0
7.993588208E0,-1.954934692E0,-5.383554840E0,1.462309113E0,5.911241858E0
8.003527208E0,-4.038601685E-1,-5.523962860E0,3.916306000E0,6.783415172E0
8.013467208E0,2.170486450E0,-5.548212433E0,6.672973480E0,8.945515508E0
8.023406208E0,4.985981598E0,-6.236032104E0,1.010743149E1,1.288053882E1
8.033346208E0,8.226293335E0,-7.819888458E0,1.412657364E1,1.812133109E1
8.043285208E0,1.192959229E1,-1.027283752E1,1.770458313E1,2.369174174E1
8.053225208E0,1.445514038E1,-1.263597336E1,1.712962875E1,2.573019797E1
8.063164208E0,1.566043396E1,-1.354473358E1,1.563573532E1,2.594581312E1
8.073103208E0,1.634780457E1,-1.129221771E1,1.399709290E1,2.430398125E1
8.083043208E0,1.413301025E1,-6.920408936E0,1.041100021E1,1.886857080E1
8.092982208E0,1.049422714E1,-3.473975830E0,7.409891052E0,1.330803505E1
8.102922208E0,8.678353271E0,-1.606609039E0,6.895261230E0,1.119998373E1
8.112861208E0,8.275391235E0,-1.844614105E0,2.119292908E0,8.739342294E0
8.122800208E0,8.625064087E0,-4.628375244E0,-7.554640045E0,1.236471488E1
8.132740208E0,8.703051910E0,-8.666976929E0,-1.210008774E1,1.724156968E1
8.142679208E0,8.909472656E0,-1.167901337E1,-1.134221375E1,1.855866021E1
8.152619208E0,9.397158508E0,-1.300974609E1,-7.845335541E0,1.786363264E1
8.162558208E0,1.103460342E1,-1.333696564E1,3.772155762E-2,1.731007071E1
8.172497208E0,1.348336121E1,-1.253463409E1,1.739352997E1,2.532692176E1
8.182437208E0,7.702382813E0,-1.026340714E1,1.378752869E1,1.883507829E1
8.192376208E0,2.219135284E0,-7.352560272E0,-1.525328064E0,7.830155150E0
8.202316208E0,-4.909790039E-1,-5.218897247E0,-3.470383301E0,6.286613485E0
8.212255208E0,-1.880389709E0,-4.515360260E0,-2.866539001E0,5.669337667E0
8.222195208E0,-1.733096008E0,-4.956941986E0,-2.710263977E0,5.909350764E0
8.232134208E0,-8.325686646E-1,-6.100114746E0,-2.312241669E0,6.576551682E0
8.242073208E0,3.287164307E-1,-7.707621918E0,-1.800006866E0,7.921837845E0
8.252013208E0,1.707499237E0,-9.529633026E0,-1.862427063E0,9.858909363E0
8.261952208E0,3.086731110E0,-1.116378479E1,-2.147584076E0,1.178007288E1
8.271892208E0,4.392316132E0,-1.197464859E1,-2.123035126E0,1.293027177E1
8.281831208E0,5.245541840E0,-1.174442734E1,-1.940115509E0,1.300812557E1
8.291770208E0,5.214855652E0,-1.067609894E1,-1.739682312E0,1.200834304E1
8.301710208E0,4.757855988E0,-9.442364502E0,-1.530118103E0,1.068347801E1
8.311649208E0,4.339326324E0,-8.496631165E0,-1.570534058E0,9.668974678E0
8.321589208E0,3.921994171E0,-7.776179352E0,-1.804647217E0,8.894254053E0
8.331528208E0,4.057462463E0,-7.254065094E0,-1.898352356E0,8.525737722E0
8.341468208E0,5.112019501E0,-7.362439728E0,-1.218466187E0,9.045602355E0
8.351407208E0,6.019731903E0,-7.746091919E0,-3.233276367E-2,9.810206808E0
8.361346208E0,6.500981140E0,-8.032596130E0,1.108594666E0,1.039299468E1
8.371286208E0,6.710545349E0,-7.994724884E0,2.336042175E0,1.069598700E1
8.381225208E0,6.270011444E0,-7.573949890E0,2.982847137E0,1.027497628E1
8.391165208E0,5.736670532E0,-7.231611786E0,2.155517578E0,9.479021777E0
8.401104208E0,5.715265045E0,-7.098987579E0,9.116043091E-1,9.159197651E0
8.411043208E0,5.973627777E0,-7.074139252E0,-1.754351807E-1,9.260585968E0
8.420983208E0,6.153553619E0,-7.251071320E0,-5.828878784E-1,9.528064636E0
8.430922208E0,6.215973816E0,-7.347620544E0,-6.400689697E-1,9.645493582E0
8.440862208E0,6.081852722E0,-7.184160461E0,-9.241781616E-1,9.458075880E0
8.450801208E0,5.756429443E0,-6.859186249E0,-1.264869690E0,9.043495522E0
8.460740208E0,5.541177063E0,-6.612349548E0,-1.412163391E0,8.741968613E0
8.470680208E0,5.492827606E0,-6.508764954E0,-1.452279968E0,8.639692902E0
8.480619208E0,5.539231110E0,-6.477929077E0,-1.262025604E0,8.616226264E0
8.490559208E0,5.855673065E0,-6.627468109E0,-8.138575745E-1,8.881137581E0
8.500498208E0,6.450985107E0,-6.891519012E0,-1.698966980E-1,9.441245047E0
8.510438208E0,6.940766602E0,-7.021149445E0,5.236111450E-1,9.886604532E0
8.520377208E0,7.116501160E0,-7.126530304E0,1.259480896E0,1.014979384E1
8.530316208E0,7.065906372E0,-7.249125366E0,1.882934418E0,1.029671275E1
8.540256208E0,7.062014465E0,-7.193890228E0,2.682721252E0,1.043173515E1
8.550195208E0,7.531587982E0,-6.902296600E0,3.769311676E0,1.088917933E1
8.560135208E0,8.345744934E0,-6.652765503E0,4.258195038E0,1.149099527E1
8.570074208E0,8.978628845E0,-6.742129669E0,3.453318787E0,1.174723368E1
8.580013208E0,9.244026947E0,-7.124734039E0,2.057621155E0,1.185106215E1
8.589953208E0,9.258097687E0,-7.531887360E0,1.022972717E0,1.197865490E1
8.599892208E0,9.314230957E0,-7.857011261E0,4.555027771E-1,1.219405622E1
8.609832208E0,9.517657928E0,-7.906408539E0,3.198847961E-1,1.237737592E1
8.619771208E0,9.596843262E0,-7.772137756E0,8.226892090E-1,1.237668548E1
8.629710208E0,9.506730652E0,-7.611072693E0,1.822460175E0,1.231372065E1
8.639650208E0,9.255852356E0,-7.604486389E0,2.551144867E0,1.224774903E1
8.649589208E0,8.980425110E0,-7.858807526E0,2.930605774E0,1.228809754E1
8.659529208E0,9.216933289E0,-8.298443298E0,2.756966858E0,1.270499456E1
8.669468208E0,1.006042923E1,-8.631351013E0,2.461930389E0,1.348234245E1
8.679407917E0,1.092009155E1,-8.871900787E0,3.012335815E0,1.438864796E1
8.689346917E0,1.131751511E1,-8.958720245E0,4.308340759E0,1.506341982E1
8.699285917E0,1.092308533E1,-8.734935608E0,4.886438599E0,1.481520082E1
8.709225917E0,1.001896545E1,-8.026009827E0,5.238656158E0,1.386506476E1
8.719164917E0,9.302704926E0,-7.249275055E0,4.455784149E0,1.260739149E1
8.729104917E0,8.484955444E0,-7.291187897E0,1.168619843E0,1.124818039E1
8.739043917E0,8.197702789E0,-8.182883606E0,1.152603149E-2,1.158283419E1
8.748982917E0,8.752000122E0,-9.576934662E0,7.785310364E-1,1.299697250E1
8.758922917E0,9.463320923E0,-1.029858398E1,-1.825453949E0,1.410487707E1
8.768861917E0,9.724378052E0,-9.934990082E0,-5.289101257E0,1.487421085E1
8.778801917E0,9.439520416E0,-9.754166107E0,-5.922284546E0,1.480951574E1
8.788740917E0,9.049581299E0,-1.028780640E1,-5.028642883E0,1.459524345E1
8.798679917E0,9.017697601E0,-1.162482605E1,-3.444187775E0,1.511019127E1
8.808619917E0,8.878038025E0,-1.319371353E1,-1.508263550E0,1.597399433E1
8.818558917E0,7.829917603E0,-1.414154251E1,1.096619568E0,1.620164833E1
8.828498917E0,5.917045441E0,-1.507305542E1,7.107220459E0,1.768391951E1
8.838437917E0,4.741240540E0,-1.519130951E1,8.643924866E0,1.811001611E1
8.848377917E0,4.653073883E0,-1.463761093E1,4.057013397E0,1.588616090E1
8.858316917E0,4.794529724E0,-1.380354538E1,3.150947571E-1,1.461590452E1
8.868255917E0,4.887486420E0,-1.222941879E1,-1.965263214E0,1.331572255E1
8.878195917E0,4.526886292E0,-1.025337799E1,-3.018173676E0,1.160749034E1
8.888134917E0,3.913611603E0,-8.583600311E0,-2.452649689E0,9.747309402E0
8.898074917E0,3.861220551E0,-7.363337860E0,-9.262738037E-1,8.365748726E0
8.908013917E0,3.776796112E0,-6.825655975E0,3.475772095E-1,7.808622048E0
8.917952917E0,3.260220337E0,-6.465654602E0,2.158511353E-1,7.244330044E0
8.927892917E0,3.341351624E0,-6.132297821E0,-5.658233643E-2,6.983760362E0
8.937831917E0,3.450175323E0,-6.045777740E0,-5.107379150E-1,6.979684195E0
8.947771917E0,3.309617615E0,-5.990243225E0,-1.151705017E0,6.939957284E0
8.957710917E0,3.250640259E0,-5.951324158E0,-1.380878448E0,6.920386305E0
8.967649917E0,3.247347107E0,-5.995182953E0,-1.025068359E0,6.894798548E0
8.977589917E0,3.309617615E0,-5.928870850E0,-8.077203369E-1,6.837944900E0
8.987528917E0,3.329526215E0,-5.899831238E0,-7.036866760E-1,6.810941813E0
8.997468917E0,3.285966797E0,-5.857918396E0,-7.638615417E-1,6.759901640E0
9.007407917E0,2.955304413E0,-5.694458313E0,-1.010099487E0,6.494688647E0
9.017346917E0,2.245031433E0,-5.530848541E0,-1.481469269E0,6.150219745E0
9.027286917E0,1.171763306E0,-5.412444763E0,-1.630110168E0,5.772767683E0
9.037225917E0,2.568658447E-1,-5.146447906E0,-1.548679504E0,5.380549630E0
9.047165917E0,-5.435197449E-1,-4.828359375E0,-1.493743744E0,5.083280274E0
9.057104917E0,-1.400188293E0,-4.530179443E0,-1.204395447E0,4.892200061E0
9.067044917E0,-2.118544464E0,-4.218976593E0,-7.818241882E-1,4.785315371E0
9.076983917E0,-2.351160736E0,-4.019441528E0,-4.770579529E-1,4.680966919E0
9.086922917E0,-1.928140411E0,-4.130360870E0,2.580633545E-1,4.565545210E0
9.096862917E0,-1.279838562E-1,-4.386927338E0,2.465073853E0,5.033696498E0
9.106801917E0,2.455344086E0,-4.470154266E0,5.286107483E0,7.345333625E0
9.116741917E0,5.133424988E0,-4.756957855E0,8.375832367E0,1.091491035E1
9.126680917E0,8.189020844E0,-5.760620728E0,1.093925171E1,1.482943160E1
9.136619917E0,1.182960022E1,-7.842042389E0,1.449765198E1,2.028839528E1
9.146559917E0,1.587553665E1,-1.130628845E1,1.877261215E1,2.706059477E1
9.156498917E0,1.704325836E1,-1.481858459E1,1.837728424E1,2.911679380E1
9.166438917E0,1.712663498E1,-1.611099701E1,1.623389145E1,2.857315317E1
9.176377917E0,1.563154404E1,-1.302546341E1,1.504820709E1,2.530724012E1
9.186316917E0,9.778415680E0,-7.915539551E0,1.012449600E1,1.614864078E1
9.196256917E0,6.259982300E0,-4.099524994E0,6.185587006E0,9.708499893E0
9.206195917E0,4.102219391E0,-2.004331970E0,4.055965576E0,6.107078461E0
9.216135917E0,3.139271851E0,-1.940564575E0,-2.293231201E-1,3.697757120E0
9.226074917E0,4.509372711E0,-4.338577881E0,-8.013735352E0,1.016748025E1
9.236013917E0,6.885232086E0,-7.781568146E0,-1.053239777E1,1.479495273E1
9.245953917E0,8.505313110E0,-1.031849258E1,-1.015218842E1,1.678923971E1
9.255892917E0,8.235274658E0,-1.182421143E1,-7.519762573E0,1.625357049E1
9.265832917E0,9.970915375E0,-1.301154236E1,3.836521912E-1,1.639715149E1
9.275771917E0,1.446127762E1,-1.389261017E1,1.868848709E1,2.741154351E1
9.285711917E0,1.008587631E1,-1.255439301E1,1.154579041E1,1.981522043E1
9.295650917E0,4.002975769E0,-9.249266052E0,-3.681594086E0,1.072971913E1
9.305589917E0,5.086422729E-1,-6.999893646E0,-3.827091522E0,7.993988838E0
9.315529917E0,-1.082399139E0,-5.994883575E0,-2.509980469E0,6.588643178E0
9.325468917E0,-1.123413849E0,-5.690117340E0,-2.221081238E0,6.210692062E0
9.335408917E0,-1.239422607E-1,-6.155499573E0,-2.039658508E0,6.485810937E0
9.345347917E0,8.057743835E-1,-7.254065094E0,-1.539698181E0,7.459316539E0
9.355286917E0,1.952090607E0,-8.705895996E0,-1.484013977E0,9.044643736E0
9.365226917E0,3.265908508E0,-9.948013000E0,-1.892065430E0,1.063997334E1
9.375165917E0,4.352648621E0,-1.038794815E1,-2.197280731E0,1.147532393E1
9.385105917E0,4.961881714E0,-1.021460861E1,-2.149829407E0,1.155769292E1
9.395044917E0,5.158872070E0,-9.639205170E0,-1.973346405E0,1.110956045E1
9.404983917E0,5.103038177E0,-8.938961334E0,-1.773511963E0,1.044468157E1
9.414923917E0,4.913232880E0,-8.319100342E0,-1.847458191E0,9.836685905E0
9.424862917E0,4.784500580E0,-7.943381653E0,-1.976489868E0,9.481311622E0
9.434802917E0,5.068160706E0,-7.641758881E0,-1.838476868E0,9.352151032E0
9.444741917E0,5.657485199E0,-7.586972809E0,-1.106049957E0,9.528517287E0
9.454680917E0,6.237528992E0,-7.671846313E0,-3.493734741E-1,9.893738202E0
9.464620917E0,6.549629974E0,-7.625592499E0,2.814147949E-1,1.005616766E1
9.474559917E0,6.437363434E0,-7.264094238E0,1.124611359E0,9.770949994E0
9.484499917E0,6.088139648E0,-6.740183716E0,2.110760651E0,9.324742968E0
9.494438917E0,5.787415009E0,-6.230493622E0,3.025957489E0,9.026053511E0
9.504377917E0,5.917195129E0,-6.200705566E0,2.751278687E0,9.001748837E0
9.514317917E0,6.333030396E0,-6.499933319E0,1.640887756E0,9.222197123E0
9.524256917E0,6.479276276E0,-6.797963562E0,3.607498169E-1,9.398056718E0
9.534196917E0,6.489305420E0,-6.993606720E0,-6.897656250E-1,9.565427142E0
9.544135917E0,6.314918060E0,-6.935527496E0,-1.256487122E0,9.463534839E0
9.554075917E0,6.124214630E0,-6.731052704E0,-1.341061249E0,9.198452077E0
9.564014917E0,6.007756805E0,-6.572981415E0,-1.185235291E0,8.983429702E0
9.573953917E0,5.862109680E0,-6.467151489E0,-9.204359436E-1,8.776991547E0
9.583893917E0,5.707181854E0,-6.516399078E0,-5.728587341E-1,8.681218163E0
9.593832917E0,5.920787659E0,-6.683302002E0,-1.437011719E-1,8.929888139E0
9.603772917E0,6.457721100E0,-6.876550140E0,2.441423035E-1,9.436562356E0
9.613711917E0,6.954687653E0,-7.174879761E0,4.761598206E-1,1.000366473E1
9.623650917E0,7.303612061E0,-7.497908020E0,6.816824341E-1,1.048933100E1
9.633590917E0,7.734416199E0,-7.688611450E0,1.101559296E0,1.096126694E1
9.643529917E0,8.190218353E0,-7.763455811E0,1.823807373E0,1.143141269E1
9.653469917E0,8.264613647E0,-7.634723511E0,2.926863556E0,1.162580630E1
9.663408917E0,7.961044922E0,-7.436535645E0,4.313579865E0,1.171696505E1
9.673347208E0,7.564818878E0,-7.330256653E0,5.152734833E0,1.172645827E1
9.683287208E0,7.396269379E0,-7.344626770E0,4.009262695E0,1.116792418E1
9.693226208E0,8.024962006E0,-7.450606384E0,1.595831451E0,1.106608461E1
9.703166208E0,9.156608734E0,-7.512876892E0,-1.889071655E-1,1.184577936E1
9.713105208E0,1.005069946E1,-7.373367004E0,-7.949967957E-1,1.249060129E1
9.723044208E0,1.040965302E1,-7.031927032E0,-6.387217712E-1,1.257842753E1
9.732984208E0,1.028481262E1,-6.793173523E0,-2.724334717E-1,1.232877923E1
9.742923208E0,1.001028351E1,-6.918013916E0,1.432521057E-1,1.216902682E1
9.752863208E0,9.742340698E0,-7.302564240E0,7.291337585E-1,1.219722439E1
9.762802208E0,9.795929260E0,-7.857610016E0,1.556762695E0,1.265408137E1
9.772741208E0,1.032418076E1,-8.667725372E0,2.631976776E0,1.373482702E1
9.782681208E0,1.101170105E1,-9.565708008E0,3.740122375E0,1.505818200E1
9.792620208E0,1.115375565E1,-9.930649109E0,5.028343506E0,1.575780109E1
9.802560208E0,1.060230240E1,-9.612261200E0,6.000272369E0,1.551797828E1
9.812499208E0,9.444909210E0,-8.791068878E0,5.277575226E0,1.394066004E1
9.822438208E0,8.696615295E0,-8.210276642E0,4.481380920E0,1.277194328E1
9.832378208E0,8.057893524E0,-7.995473328E0,3.716022491E0,1.194429006E1
9.842317208E0,7.682923279E0,-8.463999023E0,2.786904602E0,1.176577353E1
9.852257208E0,7.465126190E0,-9.106163635E0,1.693727875E0,1.189617751E1
9.862196208E0,8.046666870E0,-9.135951691E0,-2.279759216E0,1.238595023E1
9.872135208E0,8.826545105E0,-8.956624603E0,-5.181624756E0,1.360067123E1
9.882075208E0,8.706494751E0,-9.436376953E0,-5.134173431E0,1.382779801E1
9.892014208E0,8.603508911E0,-1.034543655E1,-4.111649780E0,1.406961574E1
9.901954208E0,8.963959351E0,-1.129910339E1,-2.975512390E0,1.472670970E1
9.911893208E0,9.411678314E0,-1.261471756E1,-1.467997284E0,1.580714408E1
9.921833208E0,9.336085510E0,-1.370879242E1,1.318757629E0,1.663828729E1
9.931772208E0,8.254883881E0,-1.427626236E1,7.203919373E0,1.799586700E1
9.941711208E0,7.322921906E0,-1.442430450E1,9.171427917E0,1.859572090E1
9.951651208E0,7.120542755E0,-1.404738831E1,4.244273987E0,1.631088928E1
9.961590208E0,6.582262115E0,-1.314102310E1,-6.939569092E-1,1.471374320E1
9.971530208E0,5.638474731E0,-1.230995132E1,-3.363355865E0,1.395132473E1
9.981469208E0,4.883145447E0,-1.114761841E1,-3.607198792E0,1.269355698E1
9.991408208E0,4.493954773E0,-9.275012512E0,-2.606978760E0,1.063098419E1
1.000134821E1,4.548441467E0,-7.482490082E0,-2.428250427E0,9.086934452E0
1.001128721E1,4.290378113E0,-6.392307129E0,-1.335672455E0,7.813639081E0
1.002122721E1,3.783532104E0,-5.907615051E0,-7.200027466E-2,7.015711997E0
1.003116621E1,3.138074341E0,-5.735173645E0,-2.939886475E-1,6.544169667E0
1.004110521E1,2.777324524E0,-5.652395782E0,-7.765850830E-1,6.345564907E0
1.005104521E1,2.370171204E0,-5.664670258E0,-7.894583130E-1,6.191077862E0
1.006098421E1,2.071392517E0,-5.642067261E0,-6.463558960E-1,6.044945482E0
1.007092421E1,2.082170105E0,-5.574857025E0,-8.119116211E-1,6.006135503E0
1.008086321E1,2.282453613E0,-5.480553131E0,-1.132694550E0,6.043927040E0
1.009080221E1,2.510130157E0,-5.428461456E0,-1.344653778E0,6.130011499E0
1.010074221E1,2.451601868E0,-5.482050018E0,-1.697919159E0,6.240685346E0
1.011068121E1,1.967358856E0,-5.511239319E0,-1.751208344E0,6.108272289E0
1.012062121E1,1.094523926E0,-5.454656982E0,-1.461560669E0,5.752166984E0
1.013056021E1,-3.592529297E-3,-5.320535889E0,-1.068178711E0,5.426704415E0
1.014049921E1,-1.048569489E0,-5.237308960E0,-6.559359741E-1,5.381371119E0
1.015043921E1,-1.867815857E0,-5.142106934E0,-3.858975220E-1,5.484424919E0
1.016037821E1,-2.275717621E0,-5.010231171E0,-5.008584595E-1,5.525591938E0
1.017031821E1,-2.452500000E0,-4.913831635E0,-7.096742249E-1,5.537520663E0
1.018025721E1,-2.581681366E0,-4.999303894E0,-2.850073242E-1,5.633768479E0
1.019019621E1,-2.385140076E0,-5.281766510E0,7.210505676E-1,5.840022651E0
1.020013621E1,-4.665797424E-1,-5.373974762E0,2.106120300E0,5.790772325E0
1.021007521E1,2.555934906E0,-5.229076080E0,4.131408691E0,7.137547035E0
1.022001521E1,5.675148468E0,-5.565875702E0,6.844666443E0,1.048979224E1
1.022995421E1,9.547296295E0,-6.415808258E0,1.133428024E1,1.614866467E1
1.023989321E1,1.431248703E1,-8.317004700E0,1.760444138E1,2.416477205E1
1.024983321E1,1.767943542E1,-1.211730194E1,2.045196991E1,2.962557200E1
1.025977221E1,1.782433411E1,-1.548140625E1,1.875285324E1,3.015046153E1
1.026971221E1,1.754097336E1,-1.573078766E1,1.628538437E1,2.864187792E1
1.027965121E1,1.614886826E1,-1.216849548E1,1.315224976E1,2.412135780E1
1.028959021E1,1.054811508E1,-6.843468933E0,8.365952911E0,1.510248214E1
1.029953021E1,6.704108734E0,-2.855312347E0,5.308860168E0,9.015646333E0
1.030946921E1,4.354444885E0,-7.828720093E-1,4.058659973E0,6.003898702E0
1.031940921E1,3.398981781E0,-1.448388062E0,2.227218475E0,4.314094026E0
1.032934821E1,5.190157013E0,-5.083129578E0,-1.851799164E0,7.497005820E0
1.033928821E1,8.467292175E0,-9.324858856E0,-6.834038544E0,1.433011208E1
1.034922721E1,1.111333969E1,-1.230860413E1,-8.895850983E0,1.881871992E1
1.035916621E1,1.101948486E1,-1.359353210E1,-7.965685272E0,1.922668207E1
1.036910621E1,1.019380188E1,-1.365191071E1,-3.707789612E0,1.743662715E1
1.037904521E1,1.148351990E1,-1.230935257E1,6.374793549E0,1.800081617E1
1.038898521E1,7.636819153E0,-9.995464325E0,1.278296768E1,1.793417343E1
1.039892421E1,1.756148071E0,-7.460036774E0,4.794978790E0,9.040355431E0
1.040886321E1,-4.062551880E-1,-5.298232269E0,-1.089584198E0,5.424343479E0
1.041880321E1,-1.820065155E0,-4.573738861E0,-1.982178040E0,5.306670719E0
1.042874221E1,-1.837129669E0,-4.772525482E0,-2.320025482E0,5.615564365E0
1.043868221E1,-4.147874451E-1,-5.850883026E0,-2.689307556E0,6.452693697E0
1.044862121E1,9.517208862E-1,-7.274871826E0,-2.270628204E0,7.680187835E0
1.045856021E1,2.108365631E0,-8.863967285E0,-2.063908081E0,9.342100312E0
1.046850021E1,3.289858704E0,-1.039049286E1,-2.247426453E0,1.112818214E1
1.047843921E1,4.625830536E0,-1.097876953E1,-2.388283539E0,1.215053854E1
1.048837921E1,5.523364105E0,-1.075782898E1,-2.231260071E0,1.229703041E1
1.049831821E1,5.581892395E0,-9.853709106E0,-1.868863678E0,1.147805547E1
1.050825721E1,5.281616821E0,-8.763376465E0,-1.794468384E0,1.038808741E1
1.051819721E1,4.842879181E0,-7.915838928E0,-1.898651733E0,9.472004176E0
1.052813621E1,4.482578430E0,-7.532486115E0,-2.076481934E0,9.007976114E0
1.053807621E1,4.475393372E0,-7.378905487E0,-2.436034241E0,8.967254588E0
1.054801521E1,5.334456940E0,-7.549999695E0,-2.126028900E0,9.485722172E0
1.055795421E1,6.533313904E0,-8.026309204E0,-8.222401428E-1,1.038180663E1
1.056789421E1,7.107370148E0,-8.323740692E0,2.311193848E-1,1.094772971E1
1.057783321E1,6.979685669E0,-8.261170807E0,1.375938721E0,1.090211734E1
1.058777321E1,6.339317322E0,-7.673642578E0,3.841311951E0,1.066899302E1
1.059771221E1,5.351671143E0,-6.951244812E0,5.514831848E0,1.036212134E1
1.060765121E1,5.195545807E0,-6.739734650E0,2.686313782E0,8.923788496E0
1.061759121E1,5.786666565E0,-6.928791504E0,3.427871704E-1,9.033889787E0
1.062753021E1,6.026467896E0,-7.127727814E0,-5.592370605E-1,9.350698646E0
1.063747021E1,6.017636261E0,-7.119345245E0,-1.196911011E0,9.398383843E0
1.064740921E1,6.000272369E0,-7.081623688E0,-1.510209503E0,9.403903195E0
1.065734821E1,5.936205597E0,-7.009174347E0,-1.453028412E0,9.299373822E0
1.066728821E1,5.814358978E0,-6.905889130E0,-1.507664795E0,9.152656889E0
1.067722792E1,5.702990570E0,-6.820865936E0,-1.709894257E0,9.053841833E0
1.068716792E1,5.459596710E0,-6.622678070E0,-1.973196716E0,8.806847696E0
1.069710692E1,5.110522614E0,-6.619684296E0,-1.610500946E0,8.516535379E0
1.070704592E1,5.210065613E0,-6.707401886E0,-1.081201630E0,8.561718327E0
1.071698592E1,5.782924347E0,-6.728807373E0,-6.171665955E-1,8.893815676E0
1.072692492E1,6.198759613E0,-6.998995514E0,-1.730401611E-1,9.350962616E0
1.073686492E1,6.668033752E0,-7.225324860E0,2.917433167E-1,9.836315754E0
1.074680392E1,6.904092865E0,-7.363337860E0,1.009351044E0,1.014416247E1
1.075674292E1,7.047344971E0,-7.483837280E0,2.274819489E0,1.052842321E1
1.076668292E1,7.377109222E0,-7.649093628E0,4.394860840E0,1.149979024E1
1.077662192E1,7.813451843E0,-7.967331848E0,6.643035736E0,1.298685221E1
1.078656192E1,8.409063263E0,-8.433312836E0,5.969735870E0,1.332181882E1
1.079650092E1,9.265133057E0,-8.693322144E0,3.012335815E0,1.305720902E1
1.080643992E1,1.013482452E1,-8.617130585E0,9.219328308E-1,1.333490037E1
1.081637992E1,1.058598633E1,-8.136180725E0,3.832031250E-2,1.335147976E1
1.082631892E1,1.078671890E1,-7.589517517E0,9.999206543E-2,1.318954432E1
1.083625892E1,1.091200836E1,-7.134763184E0,7.045848083E-1,1.305653905E1
1.084619792E1,1.101559296E1,-6.854845276E0,1.564696198E0,1.306830005E1
1.085613692E1,1.092997101E1,-6.848558350E0,2.635269928E0,1.316478884E1
1.086607692E1,1.081680634E1,-7.107819214E0,3.579057312E0,1.342885120E1
1.087601592E1,1.107801315E1,-7.707472229E0,3.586392059E0,1.396387165E1
1.088595592E1,1.149040558E1,-8.356073456E0,2.990780640E0,1.451888952E1
1.089589492E1,1.168604874E1,-8.780291290E0,3.344345398E0,1.499472895E1
1.090583392E1,1.131062943E1,-8.790170746E0,4.788841553E0,1.510398766E1
1.091577392E1,1.037372772E1,-8.535250854E0,5.545518036E0,1.453332392E1
1.092571292E1,9.105115814E0,-8.351133728E0,5.445825348E0,1.350191032E1
1.093565292E1,8.421038361E0,-7.929909668E0,4.231550446E0,1.231679234E1
1.094559192E1,8.325836334E0,-7.997119904E0,1.957180023E0,1.170914305E1
1.095553092E1,8.087681580E0,-8.902437286E0,1.019380188E0,1.207075470E1
1.096547092E1,8.400980072E0,-9.664203186E0,-1.421444092E0,1.288385783E1
1.097540992E1,8.947643280E0,-9.515711975E0,-5.052293701E0,1.400481226E1
1.098534992E1,8.788075104E0,-9.469907227E0,-6.179898834E0,1.432133222E1
1.099528892E1,8.482710114E0,-9.998458099E0,-5.364394684E0,1.416694270E1
1.100522792E1,8.801247711E0,-1.086829926E1,-4.240831146E0,1.461391593E1
1.101516792E1,9.525292053E0,-1.243598923E1,-2.786455536E0,1.591066784E1
1.102510692E1,9.892179108E0,-1.455812622E1,-7.873626709E-1,1.761857504E1
1.103504692E1,8.851692810E0,-1.590816879E1,2.643652496E0,1.839595604E1
1.104498592E1,7.225025482E0,-1.586371124E1,7.989036713E0,1.917506285E1
1.105492492E1,6.706354065E0,-1.531629959E1,8.795858917E0,1.889262692E1
1.106486492E1,6.424490204E0,-1.454809708E1,3.901187439E0,1.637499516E1
1.107480392E1,5.859564972E0,-1.313862808E1,-4.352947998E-1,1.439262072E1
1.108474392E1,5.081932068E0,-1.128518234E1,-2.565514984E0,1.263974846E1
1.109468292E1,4.570595398E0,-9.496402130E0,-3.180585938E0,1.100854771E1
1.110462192E1,4.707261200E0,-7.990383911E0,-3.438349915E0,9.890742803E0
1.111456192E1,4.111949158E0,-6.994355164E0,-4.201013947E0,9.136610324E0
1.112450092E1,3.238814850E0,-6.490203552E0,-3.919748840E0,8.244822300E0
1.113444092E1,3.250490570E0,-6.127058716E0,-2.559976501E0,7.393241315E0
1.114437992E1,3.359463959E0,-5.709876251E0,-1.289119263E0,6.749112043E0
1.115431892E1,3.206781464E0,-5.402714996E0,-3.333567810E-1,6.291574003E0
1.116425892E1,3.038231964E0,-4.856949921E0,3.517684937E-1,5.739734931E0
1.117419792E1,2.857557678E0,-4.462969208E0,2.794688416E-1,5.306772359E0
1.118413792E1,2.943479004E0,-4.285139008E0,-5.912704468E-2,5.199036542E0
1.119407692E1,3.165766754E0,-4.187541962E0,-4.415817261E-1,5.268071871E0
1.120401592E1,3.404969330E0,-4.290078735E0,-6.918612671E-1,5.520621677E0
1.121395592E1,3.277733917E0,-4.672234039E0,-7.557783508E-1,5.757127015E0
1.122389492E1,2.600242767E0,-5.114414520E0,-7.903564453E-1,5.791645849E0
1.123383492E1,1.320104828E0,-5.252577209E0,-9.292675781E-1,5.495068910E0
1.124377392E1,3.367996216E-2,-5.048551483E0,-1.303190002E0,5.214145242E0
1.125371292E1,-1.080453186E0,-4.720583496E0,-1.556912384E0,5.086773418E0
1.126365292E1,-2.011217651E0,-4.395758972E0,-1.741777954E0,5.138237424E0
1.127359192E1,-2.463876343E0,-4.347110138E0,-1.772613831E0,5.301906542E0
1.128353192E1,-2.600242767E0,-4.594246216E0,-1.190025330E0,5.411517442E0
1.129347092E1,-2.658471680E0,-5.256768494E0,1.236428833E-1,5.892060270E0
1.130340992E1,-2.265239410E0,-6.405330048E0,2.338287506E0,7.185203620E0
1.131334992E1,-2.755769348E-1,-6.929689636E0,5.129682770E0,8.626133921E0
1.132328892E1,2.643502808E0,-7.078330536E0,8.033045197E0,1.102817688E1
1.133322892E1,5.633385315E0,-7.918832703E0,1.127650040E1,1.488631595E1
1.134316792E1,8.979077911E0,-1.005114853E1,1.644390472E1,2.126150111E1
1.135310692E1,1.200473602E1,-1.319835388E1,1.974753479E1,2.661344327E1
1.136304692E1,1.373408981E1,-1.500644394E1,1.866438721E1,2.760757020E1
1.137298592E1,1.498578690E1,-1.345267502E1,1.795186890E1,2.697809984E1
1.138292592E1,1.403586227E1,-8.783285065E0,1.456800568E1,2.205398639E1
1.139286492E1,1.228420486E1,-4.444258118E0,8.625363464E0,1.565407341E1
1.140280392E1,1.113055389E1,-1.429527283E0,4.848118286E0,1.222444392E1
1.141274392E1,1.049467621E1,6.436614990E-1,6.206393738E0,1.220949844E1
1.142268292E1,9.892328796E0,7.673043823E-1,3.855682068E0,1.064486774E1
1.143262292E1,8.538094940E0,-1.894909515E0,-7.540718994E0,1.154782188E1
1.144256192E1,8.390052795E0,-5.085973663E0,-1.419498138E1,1.725565445E1
1.145250092E1,9.475745087E0,-7.992329865E0,-1.415082321E1,1.881257237E1
1.146244092E1,1.008707382E1,-1.002136047E1,-9.745783539E0,1.723824297E1
1.147237992E1,1.018032990E1,-1.140912460E1,-3.553460541E0,1.569822674E1
1.148231992E1,1.435679489E1,-1.370984024E1,1.608914246E1,2.555264730E1
1.149225892E1,1.092188782E1,-1.502964569E1,3.039504318E1,3.562353903E1
1.150219792E1,3.311264191E0,-1.276605286E1,6.171067200E0,1.456086009E1
1.151213792E1,1.353186035E-1,-9.700427856E0,-4.010160828E0,1.049752359E1
1.152207692E1,-2.025887146E0,-8.418194275E0,-3.204536133E0,9.232511327E0
1.153201692E1,-2.467468872E0,-7.950417023E0,-3.316952362E0,8.961010347E0
1.154195592E1,-5.599855042E-1,-7.725734253E0,-3.258124695E0,8.403328510E0
1.155189492E1,7.351213074E-1,-8.261919250E0,-2.547402649E0,8.676921879E0
1.156183492E1,1.293609924E0,-9.312434692E0,-2.597099304E0,9.753962853E0
1.157177392E1,1.980980530E0,-1.030157776E1,-3.228785706E0,1.097596671E1
1.158171392E1,2.753673706E0,-1.058703415E1,-3.601211243E0,1.151680222E1
1.159165292E1,3.542533264E0,-1.013706985E1,-3.502266998E0,1.129493698E1
1.160159192E1,3.940854950E0,-9.316625977E0,-3.091970215E0,1.057781344E1
1.161153192E1,3.952380981E0,-8.531808014E0,-2.492915955E0,9.727676668E0
1.162147092E1,3.810027008E0,-7.990982666E0,-2.071691895E0,9.091975422E0
1.163141092E1,3.628155212E0,-7.890840912E0,-1.985171814E0,8.908972313E0
1.164134992E1,3.810625763E0,-8.018974457E0,-1.918410645E0,9.083232874E0
1.165128892E1,4.590204620E0,-8.255332947E0,-1.809287567E0,9.617381245E0
1.166122892E1,5.482798462E0,-8.393345947E0,-1.898202667E0,1.020355372E1
1.167116792E1,6.328240356E0,-8.185128937E0,-2.014361115E0,1.054042753E1
1.168110792E1,7.138206024E0,-8.006250916E0,-8.824150085E-1,1.076255988E1
1.169104692E1,7.022346954E0,-7.644602966E0,2.354603577E-1,1.038309939E1
1.170098592E1,6.641838226E0,-7.062613220E0,1.141675873E0,9.762066601E0
1.171092592E1,6.685697021E0,-6.486760712E0,3.073857880E0,9.809445013E0
1.172086492E1,6.780300293E0,-6.126909027E0,5.771398315E0,1.080835440E1
1.173080492E1,6.554120636E0,-6.251000977E0,5.290747833E0,1.048920984E1
1.174074392E1,6.760840759E0,-6.403384094E0,2.880609741E0,9.747317996E0
1.175068292E1,6.977140961E0,-6.358926544E0,7.586224365E-1,9.470583445E0
1.176062292E1,6.748416595E0,-6.130052490E0,-9.190887451E-1,9.163154162E0
1.177056192E1,6.506968689E0,-5.928870850E0,-1.818717957E0,8.988875685E0
1.178050192E1,6.337970123E0,-5.951024780E0,-2.047741699E0,8.931842323E0
1.179044092E1,6.378535767E0,-6.155050507E0,-1.872605896E0,9.059636754E0
1.180037992E1,6.530469818E0,-6.474635925E0,-1.497186584E0,9.317162340E0
1.181031992E1,6.783144379E0,-6.736291809E0,-9.484277344E-1,9.606674251E0
1.182025892E1,7.048392792E0,-6.912924500E0,-4.484674072E-1,9.882787517E0
1.183019892E1,7.102879486E0,-7.047644348E0,-9.086105347E-2,1.000642012E1
1.184013792E1,6.823410645E0,-7.288643188E0,2.386038208E-1,9.987000758E0
1.185007692E1,6.573580170E0,-7.490872650E0,5.641767883E-1,9.982155316E0
1.186001692E1,6.604416046E0,-7.711962891E0,1.049766998E0,1.020758021E1
1.186995592E1,6.839577026E0,-7.967631226E0,1.656006317E0,1.063039596E1
1.187989492E1,6.768025818E0,-8.244405670E0,2.627486115E0,1.098544863E1
1.188983492E1,6.472839661E0,-8.464298401E0,4.066593475E0,1.140522613E1
1.189977392E1,6.220614166E0,-8.606203308E0,5.300327911E0,1.186828766E1
1.190971392E1,6.561006317E0,-8.622220001E0,4.085753632E0,1.157941555E1
1.191965292E1,8.031248932E0,-8.389603729E0,1.337319031E0,1.169080118E1
1.192959192E1,9.667795715E0,-7.929161224E0,-1.480421448E-1,1.250439076E1
1.193953192E1,1.065125061E1,-7.198081512E0,-5.673202515E-1,1.286792016E1
1.194947092E1,1.099912720E1,-6.382727051E0,-5.993536377E-1,1.273103407E1
1.195941092E1,1.101454514E1,-5.784720612E0,-2.143542480E-1,1.244303600E1
1.196934992E1,1.108759323E1,-5.537883911E0,4.950205994E-1,1.240354495E1
1.197928892E1,1.130479156E1,-5.798192596E0,1.922152863E0,1.284959226E1
1.198922892E1,1.139310791E1,-6.481371918E0,3.987707520E0,1.370083578E1
1.199916792E1,1.159997772E1,-7.695048065E0,4.913532257E0,1.476197978E1
1.200910792E1,1.190369614E1,-8.928333435E0,4.918771362E0,1.567186751E1
1.201904692E1,1.149055527E1,-9.550888824E0,5.057682495E0,1.577442518E1
1.202898592E1,9.975106659E0,-9.445358276E0,4.439917145E0,1.443711918E1
1.203892592E1,8.640032959E0,-8.991202698E0,3.630699921E0,1.298745077E1
1.204886492E1,7.761958923E0,-8.485404510E0,3.498375092E0,1.202034626E1
1.205880492E1,7.435936890E0,-8.594826965E0,2.570604401E0,1.165213349E1
1.206874392E1,7.626640320E0,-9.314380646E0,2.063459015E0,1.221397529E1
1.207868292E1,8.235873413E0,-9.782756653E0,-9.250762939E-1,1.282137687E1
1.208862292E1,8.927884369E0,-9.785001984E0,-5.174888763E0,1.422085992E1
1.209856192E1,8.874595184E0,-1.031130753E1,-5.901178436E0,1.482920799E1
1.210850192E1,8.923693085E0,-1.114522339E1,-4.770878906E0,1.505355733E1
1.211844092E1,9.391769714E0,-1.208721451E1,-3.638334045E0,1.573351733E1
1.212837992E1,9.610165558E0,-1.354009323E1,-2.300266571E0,1.676247694E1
1.213831992E1,9.255852356E0,-1.513323029E1,-3.712280273E-2,1.773941487E1
1.214825892E1,7.631580048E0,-1.635573807E1,6.328839111E0,1.912603948E1
1.215819892E1,5.697152710E0,-1.597912125E1,1.035007690E1,1.987244214E1
1.216813792E1,5.047054596E0,-1.509251495E1,6.966363373E0,1.737201734E1
1.217807692E1,4.917573853E0,-1.426698166E1,2.043700104E0,1.522846047E1
1.218801692E1,4.998405762E0,-1.265573227E1,-1.539398804E0,1.369384417E1
1.219795592E1,4.362228699E0,-1.077189972E1,-3.772904205E0,1.221874253E1
1.220789592E1,3.217559052E0,-9.253607025E0,-5.054239655E0,1.102394066E1
1.221783492E1,3.350183258E0,-8.007897491E0,-4.949307861E0,9.992286946E0
1.222777392E1,4.119134216E0,-6.904841309E0,-4.235442352E0,9.087522881E0
1.223771392E1,4.184099121E0,-5.971981201E0,-3.519780579E0,8.096919182E0
1.224765292E1,3.897445221E0,-5.323230286E0,-1.856439514E0,6.853701744E0
1.225759292E1,3.610941010E0,-4.867128754E0,-7.933502197E-2,6.060868859E0
1.226753192E1,3.552113342E0,-4.359833679E0,7.035369873E-1,5.667505906E0
1.227747092E1,3.631747742E0,-4.084556122E0,5.795947266E-1,5.496282418E0
1.228741092E1,4.020189972E0,-3.938759308E0,4.834945679E-2,5.628329234E0
1.229734992E1,4.521198120E0,-3.953877869E0,-4.005670166E-1,6.019537904E0
1.230728992E1,5.127437439E0,-4.330195312E0,-7.917036438E-1,6.757810355E0
1.231722892E1,5.145549774E0,-4.747078400E0,-9.276210022E-1,7.062005136E0
1.232716792E1,4.204756165E0,-5.066663818E0,-8.225395203E-1,6.635331786E0
1.233710792E1,2.406994629E0,-5.344037018E0,-9.048683167E-1,5.930526238E0
1.234704692E1,9.395960999E-1,-5.353018341E0,-1.122515717E0,5.549566445E0
1.235698692E1,-3.098556519E-2,-5.176834717E0,-1.432521057E0,5.371470410E0
1.236692592E1,-8.306227112E-1,-4.794978790E0,-1.547481995E0,5.106511158E0
1.237686492E1,-1.587448883E0,-4.398153992E0,-1.322200470E0,4.859214605E0
1.238680492E1,-2.189197540E0,-4.305945740E0,-9.635462952E-1,4.925665036E0
1.239674392E1,-2.350412292E0,-4.516258392E0,-4.089495850E-1,5.107667528E0
1.240668292E1,-2.188149719E0,-5.033432922E0,7.611671448E-1,5.541012687E0
1.241662292E1,-1.486408997E0,-5.841452637E0,2.780018921E0,6.637807305E0
1.242656192E1,5.014572144E-1,-6.283333740E0,5.422024841E0,8.314451011E0
1.243650192E1,2.747386780E0,-6.752607880E0,9.176367645E0,1.171970863E1
1.244644092E1,5.304968262E0,-7.756420441E0,1.354383545E1,1.648454503E1
1.245637992E1,8.231532440E0,-9.632169800E0,1.598750381E1,2.039943871E1
1.246631992E1,1.164293839E1,-1.213436646E1,1.606549164E1,2.325727596E1
1.247625892E1,1.442175980E1,-1.358964020E1,1.578946564E1,2.533718022E1
1.248619892E1,1.526211227E1,-1.283266434E1,1.290436523E1,2.375146284E1
1.249613792E1,1.478101273E1,-9.290280762E0,9.938582611E0,2.008887946E1
1.250607692E1,1.339100327E1,-5.281018066E0,8.052355042E0,1.649389408E1
1.251601692E1,1.126707001E1,-2.343376923E0,8.229885864E0,1.414812013E1
1.252595592E1,1.052012329E1,-6.888674927E-1,1.037238052E1,1.478965213E1
1.253589592E1,1.077773758E1,-2.090402985E0,3.713926849E0,1.158976551E1
1.254583492E1,1.085931793E1,-5.753585358E0,-6.708300018E0,1.400106494E1
1.255577392E1,1.016491196E1,-9.347312164E0,-1.336465805E1,1.921748591E1
1.256571392E1,8.884324951E0,-1.169038971E1,-1.348740280E1,1.993756444E1
1.257565292E1,8.408165131E0,-1.182780396E1,-8.791517944E0,1.696717345E1
1.258559292E1,9.701026611E0,-1.062640228E1,1.894161072E0,1.451269062E1
1.259553192E1,1.084644470E1,-9.156009979E0,2.545052536E1,2.914115857E1
1.260547092E1,4.473297729E0,-8.253536682E0,1.471215591E1,1.745218588E1
1.261541092E1,2.121089172E-1,-6.852001190E0,-1.536554718E0,7.025376211E0
1.262534992E1,-1.304088135E0,-6.633904724E0,-3.493435364E0,7.610087279E0
1.263528992E1,-9.009764099E-1,-7.488028564E0,-3.539988556E0,8.331497419E0
1.264522892E1,7.619155884E-2,-8.468190308E0,-2.963088226E0,8.971953192E0
1.265516792E1,1.055305481E0,-9.384285278E0,-2.357597351E0,9.733280285E0
1.266510792E1,2.428250427E0,-1.011566437E1,-2.057471466E0,1.060453934E1
1.267504692E1,3.715274048E0,-1.089793762E1,-2.159708862E0,1.171463393E1
1.268498708E1,4.628375244E0,-1.121093674E1,-2.331551514E0,1.235083367E1
1.269492608E1,5.060376892E0,-1.077234879E1,-2.487826538E0,1.215895528E1
1.270486508E1,5.081333313E0,-9.854008484E0,-2.502196655E0,1.136584443E1
1.271480508E1,4.706512756E0,-8.793314209E0,-2.254461823E0,1.022527433E1
1.272474408E1,4.219126282E0,-7.914491730E0,-2.137704620E0,9.220086061E0
1.273468408E1,3.996239777E0,-7.459737396E0,-2.219434662E0,8.748914481E0
1.274462308E1,4.236340485E0,-7.458240509E0,-2.248623962E0,8.867256730E0
1.275456208E1,5.010829926E0,-7.685168610E0,-2.321971436E0,9.463708810E0
1.276450208E1,6.292464752E0,-7.965834961E0,-2.261347504E0,1.040016018E1
1.277444108E1,7.458090820E0,-8.395291901E0,-1.334624634E0,1.130863686E1
1.278438108E1,7.954907684E0,-8.702004089E0,8.277786255E-2,1.179034705E1
1.279432008E1,7.614665222E0,-8.578061829E0,1.530567169E0,1.157190162E1
1.280425908E1,6.747368774E0,-7.948022003E0,6.084696808E0,1.207151914E1
1.281419908E1,5.633984070E0,-7.326215057E0,7.413483582E0,1.184799318E1
1.282413808E1,5.514831848E0,-7.090006256E0,3.307671661E0,9.571951256E0
1.283407708E1,5.956114197E0,-7.029681702E0,6.117778015E-1,9.233958698E0
1.284401708E1,5.915847931E0,-6.818171539E0,-8.090675354E-1,9.063073991E0
1.285395608E1,5.851332092E0,-6.570586395E0,-1.342109070E0,8.900109527E0
1.286389608E1,5.867049408E0,-6.423143005E0,-1.484313354E0,8.825090422E0
1.287383508E1,5.823639679E0,-6.263125763E0,-1.735041962E0,8.726505259E0
1.288377408E1,5.830974426E0,-6.109994202E0,-1.790875854E0,8.633627756E0
1.289371408E1,5.883664856E0,-6.092779999E0,-1.728605347E0,8.644510206E0
1.290365308E1,5.974076843E0,-6.147566071E0,-1.604812775E0,8.721100089E0
1.291359308E1,6.027366028E0,-6.145171051E0,-1.353186035E0,8.713402374E0
1.292353208E1,6.102958832E0,-6.303541718E0,-9.445358276E-1,8.824561894E0
1.293347108E1,6.201753387E0,-6.625222778E0,-4.740641785E-1,9.087357085E0
1.294341108E1,6.493796082E0,-6.887028351E0,-1.279838562E-1,9.466621727E0
1.295335008E1,6.858737183E0,-7.035818939E0,1.025367737E-1,9.826267739E0
1.296329008E1,6.998247070E0,-7.125033417E0,3.504212952E-1,9.993215615E0
1.297322908E1,6.746320953E0,-7.243886261E0,8.343649292E-1,9.933926686E0
1.298316808E1,6.629264374E0,-7.464228058E0,1.790127411E0,1.014230757E1
1.299310808E1,6.801107025E0,-7.839048615E0,3.490441589E0,1.094938000E1
1.300304708E1,6.883136444E0,-8.150700531E0,5.743855591E0,1.211624379E1
1.301298708E1,7.037166138E0,-8.403524780E0,6.298152924E0,1.264150569E1
1.302292608E1,7.689659271E0,-8.684191132E0,3.839815063E0,1.221843750E1
1.303286508E1,8.823251953E0,-8.715925140E0,1.037492523E0,1.244562240E1
1.304280508E1,9.629026337E0,-8.270301819E0,-4.150868225E-1,1.269993454E1
1.305274408E1,9.909842377E0,-7.481591949E0,-7.562274170E-1,1.243989847E1
1.306268408E1,9.943672028E0,-6.703060913E0,-4.098477173E-1,1.199898388E1
1.307262308E1,9.828711090E0,-6.141428833E0,3.138972473E-1,1.159393123E1
1.308256208E1,9.681716766E0,-5.943390656E0,9.053173828E-1,1.139645259E1
1.309250208E1,9.565109253E0,-6.205495605E0,1.489253082E0,1.149858102E1
1.310244108E1,9.331594849E0,-6.854246521E0,3.071013794E0,1.197875133E1
1.311238108E1,9.496551819E0,-7.697592773E0,4.138444061E0,1.290597343E1
1.312232008E1,1.022808060E1,-8.479117584E0,3.390449524E0,1.371146293E1
1.313225908E1,1.097008759E1,-9.142837372E0,3.059038696E0,1.460452035E1
1.314219908E1,1.082653610E1,-9.330397339E0,3.747756500E0,1.477551614E1
1.315213808E1,1.004261627E1,-8.953331451E0,4.192332001E0,1.409226502E1
1.316207708E1,9.259893951E0,-8.435857544E0,3.692970428E0,1.305937820E1
1.317201708E1,8.705147552E0,-8.112380219E0,2.889591064E0,1.224500074E1
1.318195608E1,8.461903381E0,-7.983049164E0,1.933080139E0,1.179278091E1
1.319189608E1,8.644373932E0,-8.569230194E0,1.589245148E0,1.227528439E1
1.320183508E1,8.481811981E0,-9.468260651E0,1.916464691E0,1.285542419E1
1.321177408E1,8.465495911E0,-9.919422455E0,-4.745132446E-1,1.304931897E1
1.322171408E1,8.281229095E0,-1.002974304E1,-3.437451782E0,1.345327379E1
1.323165308E1,7.896828461E0,-1.041010208E1,-4.697381744E0,1.388508265E1
1.324159308E1,8.057294769E0,-1.102936432E1,-4.465663605E0,1.437042197E1
1.325153208E1,8.736133118E0,-1.201805832E1,-3.475023651E0,1.525875280E1
1.326147108E1,9.391919403E0,-1.359592712E1,-1.869612122E0,1.662987775E1
1.327141108E1,9.397906952E0,-1.561358139E1,1.061143341E0,1.825460501E1
1.328135008E1,8.149053955E0,-1.675136536E1,6.606511688E0,1.976515414E1
1.329129008E1,6.501729584E0,-1.608584930E1,8.547076263E0,1.934113616E1
1.330122908E1,5.476062469E0,-1.481319580E1,5.129682770E0,1.660517014E1
1.331116808E1,4.765190735E0,-1.293325516E1,7.996371460E-1,1.380635909E1
1.332110808E1,4.086053009E0,-1.087533463E1,-2.152972870E0,1.181541470E1
1.333104708E1,3.822900238E0,-8.841663666E0,-3.223546600E0,1.015779677E1
1.334098708E1,3.985462189E0,-7.548353119E0,-3.256178741E0,9.135876732E0
1.335092608E1,4.262985077E0,-6.899003448E0,-2.929108887E0,8.622584834E0
1.336086508E1,4.582869873E0,-6.181545410E0,-2.237247620E0,8.013705563E0
1.337080508E1,4.133654022E0,-5.787714386E0,-1.500030670E0,7.268756799E0
1.338074408E1,3.652704163E0,-5.634732513E0,-9.645941162E-1,6.784017984E0
1.339068308E1,3.453019409E0,-5.434598694E0,-7.753875732E-1,6.485324347E0
1.340062308E1,3.447780304E0,-5.234315186E0,-7.313790894E-1,6.310321692E0
1.341056208E1,3.519032135E0,-5.132377167E0,-5.180726624E-1,6.244460091E0
1.342050208E1,3.757037201E0,-5.205125885E0,-2.139051819E-1,6.422960333E0
1.343044108E1,4.240232391E0,-5.585634613E0,-2.417472839E-1,7.016931417E0
1.344038008E1,4.387526093E0,-5.991740112E0,-3.948788452E-1,7.436885376E0
1.345032008E1,3.912863159E0,-6.193670197E0,-7.292834473E-1,7.362329995E0
1.346025908E1,3.186124420E0,-6.388265533E0,-1.235231323E0,7.244799636E0
1.347019908E1,2.112407227E0,-6.366860046E0,-1.422940979E0,6.857399811E0
1.348013808E1,1.142424316E0,-6.019582214E0,-1.413510590E0,6.287965930E0
1.349007708E1,2.646496582E-1,-5.380710754E0,-1.309177551E0,5.544008796E0
1.350001708E1,-6.110293579E-1,-4.656367035E0,-1.058149567E0,4.814020289E0
1.350995608E1,-1.518143005E0,-4.041894836E0,-8.449928284E-1,4.399509624E0
1.351989608E1,-2.304906921E0,-3.671415253E0,-7.210505676E-1,4.394519291E0
1.352983508E1,-2.671943665E0,-3.738775177E0,-5.297483826E-1,4.625835721E0
1.353977408E1,-2.386038208E0,-4.057013397E0,-8.652008057E-2,4.707443230E0
1.354971408E1,-1.080602875E0,-4.357288971E0,8.687933350E-1,4.572578223E0
1.355965308E1,7.087760925E-1,-4.837041321E0,2.357747040E0,5.427550404E0
1.356959308E1,2.558629303E0,-5.609135742E0,4.730462952E0,7.770860147E0
1.357953208E1,4.979395294E0,-6.603517914E0,9.444909210E0,1.255416809E1
1.358947108E1,8.574918365E0,-8.096064148E0,1.614916763E1,1.999677711E1
1.359941108E1,1.326706100E1,-1.066277664E1,2.074027039E1,2.683036580E1
1.360935008E1,1.588990677E1,-1.379800690E1,1.755878632E1,2.740775635E1
1.361928908E1,1.577569427E1,-1.549622543E1,1.424812088E1,2.630616812E1
1.362922908E1,1.589095459E1,-1.418061127E1,1.399978729E1,2.548737370E1
1.363916808E1,1.429287781E1,-1.017104919E1,1.372870102E1,2.227585755E1
1.364910808E1,8.858428802E0,-5.674849091E0,1.056517960E1,1.490968454E1
1.365904708E1,6.221362610E0,-3.451522522E0,7.359895020E0,1.023652359E1
1.366898608E1,5.349725189E0,-4.328997803E0,5.246290283E0,8.653516240E0
1.367892592E1,6.187982025E0,-7.556436310E0,2.742896118E0,1.014467005E1
1.368886492E1,8.494086456E0,-1.050814819E1,-4.394860840E0,1.420864121E1
1.369880492E1,1.083491867E1,-1.200413727E1,-1.191986252E1,2.008924828E1
1.370874392E1,1.081665665E1,-1.187570435E1,-1.194575867E1,2.001833072E1
1.371868292E1,9.825417938E0,-1.082788330E1,-8.015531616E0,1.667425085E1
1.372862292E1,8.893156586E0,-9.053323517E0,-2.779120789E0,1.299132068E1
1.373856192E1,7.608827362E0,-6.109994202E0,4.833897858E0,1.089003450E1
1.374850192E1,3.515439606E0,-4.137695618E0,7.216942291E0,9.031228968E0
1.375844092E1,2.787203979E-1,-3.495980072E0,1.960922241E0,4.018056466E0
1.376837992E1,2.564167786E-1,-3.920497284E0,-1.417252808E0,4.176679786E0
1.377831992E1,8.363108826E-1,-4.564907227E0,-1.809586945E0,4.981204552E0
1.378825892E1,1.520088959E0,-5.845793610E0,-1.612746277E0,6.251793656E0
1.379819892E1,2.086211700E0,-7.837252350E0,-1.429527283E0,8.235189852E0
1.380813792E1,3.019969940E0,-9.838889923E0,-1.321302338E0,1.037640657E1
1.381807692E1,4.454287262E0,-1.148097519E1,-1.381926270E0,1.239206143E1
1.382801692E1,5.689817963E0,-1.243943207E1,-1.399888916E0,1.375038863E1
1.383795592E1,6.440806274E0,-1.225995529E1,-1.340761871E0,1.391359521E1
1.384789492E1,6.436614990E0,-1.066367477E1,-1.177301788E0,1.251119546E1
1.385783492E1,5.889502716E0,-8.686735840E0,-1.197509766E0,1.056312697E1
1.386777392E1,5.337899780E0,-7.273374939E0,-1.241817627E0,9.106990067E0
1.387771392E1,4.888234863E0,-6.432872772E0,-1.092428284E0,8.152919216E0
1.388765292E1,4.741240540E0,-6.055058441E0,-5.676196289E-1,7.711373848E0
1.389759192E1,5.233117676E0,-6.013594666E0,9.141490173E-1,8.023995877E0
1.390753192E1,6.377338257E0,-6.536008301E0,3.168610840E0,9.665916532E0
1.391747092E1,6.800208893E0,-7.232809296E0,3.497027893E0,1.052547269E1
1.392741092E1,6.405779114E0,-7.602540436E0,1.819616089E0,1.010661317E1
1.393734992E1,5.962850189E0,-7.721842346E0,4.087998962E-1,9.764709363E0
1.394728892E1,5.356910248E0,-7.768245850E0,-1.574725342E-1,9.437527673E0
1.395722892E1,4.837490387E0,-7.732021179E0,-2.450404358E-1,9.123897718E0
1.396716792E1,4.474195862E0,-7.571554871E0,-4.105961609E-1,8.804286511E0
1.397710792E1,4.078418884E0,-7.566315765E0,2.829116821E-2,8.595547408E0
1.398704692E1,3.779340820E0,-7.589068451E0,1.010698242E0,8.538084558E0
1.399698592E1,3.728446655E0,-7.428302765E0,1.371298370E0,8.423862276E0
1.400692592E1,4.020788727E0,-7.084018707E0,8.830137634E-1,8.193276288E0
1.401686492E1,4.381688232E0,-6.824757843E0,2.224374390E-1,8.113321749E0
1.402680492E1,5.120102692E0,-6.624025269E0,-5.927673340E-2,8.372375772E0
1.403674392E1,6.350394287E0,-6.359525299E0,-7.155120850E-2,8.987557466E0
1.404668292E1,7.473359070E0,-6.121520233E0,1.357676697E-1,9.661394237E0
1.405662292E1,8.327931976E0,-5.914351044E0,5.866300964E-1,1.023123327E1
1.406656192E1,8.700507202E0,-5.790857849E0,9.761201477E-1,1.049693626E1
1.407650092E1,8.605903931E0,-5.905220032E0,1.384321289E0,1.052851136E1
1.408644092E1,8.085436249E0,-6.305936737E0,1.932331696E0,1.043422365E1
1.409637992E1,7.380102997E0,-6.795867920E0,1.966909790E0,1.022342776E1
1.410631992E1,6.773414612E0,-7.192543030E0,1.652264099E0,1.001707529E1
1.411625892E1,6.279441833E0,-7.457192688E0,1.298100586E0,9.834946754E0
1.412619792E1,6.021677856E0,-7.507937164E0,7.894583130E-1,9.656757691E0
1.413613792E1,6.197562103E0,-7.427105255E0,3.092568970E-1,9.678187244E0
1.414607692E1,6.643035736E0,-7.196135559E0,8.666976929E-2,9.793967655E0
1.415601692E1,7.526498566E0,-6.880741425E0,-1.606159973E-1,1.019894998E1
1.416595592E1,8.878636780E0,-6.668632507E0,-3.469784546E-1,1.110951145E1
1.417589492E1,1.022284149E1,-6.590794373E0,1.158590698E-1,1.216381856E1
1.418583492E1,1.106005051E1,-6.434669037E0,1.252744904E0,1.285686792E1
1.419577392E1,1.119477036E1,-6.465953979E0,2.921624451E0,1.325395539E1
1.420571392E1,1.051952454E1,-7.028184814E0,4.560416565E0,1.344816632E1
1.421565292E1,9.598190460E0,-8.008645935E0,5.313201141E0,1.358284860E1
1.422559192E1,9.184151459E0,-9.082662506E0,4.706213379E0,1.374743033E1
1.423553192E1,9.495354309E0,-9.865085449E0,2.680475922E0,1.395229786E1
1.424547092E1,1.030741562E1,-1.047177383E1,5.848338318E-1,1.470519958E1
1.425540992E1,1.086964645E1,-1.085632416E1,1.576222229E-1,1.536339263E1
1.426534992E1,1.045081741E1,-1.078701828E1,1.825903015E0,1.512988003E1
1.427528892E1,9.618248749E0,-1.023062531E1,4.096082153E0,1.462717649E1
1.428522892E1,9.245972900E0,-9.460626526E0,4.887785797E0,1.410255009E1
1.429516792E1,8.726702728E0,-8.490194550E0,4.263134766E0,1.290011868E1
1.430510692E1,8.718769226E0,-7.620802460E0,2.625689850E0,1.187382896E1
1.431504692E1,1.005803421E1,-7.640411682E0,-1.551074524E0,1.272579172E1
1.432498592E1,1.021595581E1,-7.818092194E0,-5.544170837E0,1.400807442E1
1.433492592E1,9.278904419E0,-7.745642853E0,-6.834936676E0,1.388558280E1
1.434486492E1,8.651409302E0,-7.755372620E0,-6.511309662E0,1.331877776E1
1.435480392E1,8.045469360E0,-8.297844543E0,-5.429060211E0,1.276943601E1
1.436474392E1,7.856262817E0,-9.818382568E0,-3.629502411E0,1.308796353E1
1.437468292E1,7.698191528E0,-1.149414780E1,-2.017953644E0,1.398033345E1
1.438462292E1,7.109316101E0,-1.250754044E1,-7.039860535E-1,1.440404594E1
1.439456192E1,6.158643036E0,-1.361823074E1,2.032024384E0,1.508357437E1
1.440450092E1,4.903353424E0,-1.420516022E1,5.199737091E0,1.590178347E1
1.441444092E1,3.830234985E0,-1.350746109E1,4.853207703E0,1.485516173E1
1.442437992E1,3.478765869E0,-1.228255829E1,2.102976837E0,1.293775721E1
1.443431892E1,2.768642578E0,-1.131871262E1,1.077908478E0,1.170215893E1
1.444425892E1,2.011067963E0,-1.034573593E1,1.021775208E0,1.058879931E1
1.445419792E1,1.776954803E0,-9.673334198E0,4.917274475E-1,9.847474740E0
1.446413792E1,1.666933594E0,-9.500743103E0,3.305126953E-1,9.651529711E0
1.447407692E1,2.026785278E0,-9.450298004E0,1.122216339E0,9.730126435E0
1.448401592E1,2.462978210E0,-9.160800018E0,1.886377258E0,9.671863202E0
1.449395592E1,2.789449310E0,-8.674012299E0,1.992656250E0,9.326853475E0
1.450389492E1,3.126398621E0,-8.228089600E0,1.479673004E0,8.925539703E0
1.451383492E1,3.069067841E0,-7.935897217E0,1.416055298E-1,8.509858646E0
1.452377392E1,3.037034454E0,-7.638914795E0,-1.559157715E0,8.367052665E0
1.453371292E1,3.359613647E0,-7.193291473E0,-2.721490631E0,8.392672836E0
1.454365292E1,3.413351898E0,-6.650969238E0,-3.186872864E0,8.126655009E0
1.455359192E1,3.638783112E0,-6.000721436E0,-2.968477020E0,7.619793705E0
1.456353192E1,3.763623505E0,-5.341941376E0,-2.611170044E0,7.037002810E0
1.457347092E1,3.944148102E0,-4.643793182E0,-1.904489594E0,6.383431678E0
1.458340992E1,4.176165619E0,-4.095333710E0,-4.001179504E-1,5.862781920E0
1.459334992E1,4.619693298E0,-3.959416351E0,1.459764404E0,6.256952623E0
1.460328892E1,5.044509888E0,-4.190386047E0,2.959645386E0,7.194853441E0
1.461322792E1,5.022805023E0,-4.669090576E0,3.409310303E0,7.658483783E0
1.462316792E1,4.565805359E0,-5.065017242E0,3.410507812E0,7.624469934E0
1.463310692E1,3.945794678E0,-5.204078064E0,2.765648804E0,7.092287180E0
1.464304692E1,3.545826416E0,-5.129533081E0,1.657054138E0,6.452195209E0
1.465298592E1,3.132984924E0,-4.947661285E0,1.430575104E0,6.028390487E0
1.466292492E1,2.997965698E0,-4.714745636E0,2.512225800E0,6.126002221E0
1.467286492E1,3.448828125E0,-4.370461578E0,3.933520203E0,6.816739032E0
1.468280329E1,4.278253326E0,-4.080664215E0,5.057682495E0,7.780451413E0
1.469274329E1,5.389841766E0,-4.042493591E0,6.428382111E0,9.312155780E0
1.470268229E1,6.100863190E0,-4.228706360E0,7.603139191E0,1.062592183E1
1.471262129E1,6.147416382E0,-4.577930145E0,7.531887360E0,1.074604577E1
1.472256129E1,6.092480621E0,-5.138215027E0,7.339088287E0,1.083428773E1
1.473250029E1,6.568939819E0,-5.824088745E0,7.302713928E0,1.141930868E1
1.474244029E1,7.869884491E0,-6.342760162E0,6.646478577E0,1.209716355E1
1.475237929E1,9.493857422E0,-6.446494446E0,5.390889587E0,1.267881343E1
1.476231829E1,1.057056839E1,-6.208639069E0,4.418361969E0,1.303096457E1
1.477225829E1,1.118084930E1,-5.733227692E0,3.637735291E0,1.308107064E1
1.478219729E1,1.163620239E1,-4.945415955E0,3.194956055E0,1.304093897E1
1.479213629E1,1.209260330E1,-3.788322144E0,4.334386597E0,1.339288417E1
1.480207629E1,1.265109192E1,-2.960992584E0,5.252427521E0,1.401447818E1
1.481201529E1,1.253433472E1,-3.738625488E0,1.642983398E0,1.318280174E1
1.482195529E1,1.155926239E1,-6.139333191E0,-2.519410858E0,1.332874301E1
1.483189429E1,9.864187317E0,-9.098230133E0,-5.087620239E0,1.435144114E1
1.484183329E1,8.832083588E0,-1.176418625E1,-5.861211548E0,1.583526379E1
1.485177329E1,9.261091461E0,-1.439765991E1,-2.730172577E0,1.733534737E1
1.486171229E1,1.224348953E1,-1.834824463E1,1.113803833E1,2.471066601E1
1.487165229E1,1.007135651E1,-1.914324142E1,2.061468155E1,2.988077993E1
1.488159129E1,3.180735626E0,-1.335537735E1,2.602787476E0,1.397346363E1
1.489153029E1,1.197509766E-2,-8.675060120E0,-5.275180206E0,1.015304573E1
1.490147029E1,-1.147214355E0,-6.564748535E0,-4.029770050E0,7.787879735E0
1.491140929E1,-1.141376495E0,-5.505551147E0,-3.367996216E0,6.554176703E0
1.492134929E1,-4.453239441E-1,-5.183720398E0,-2.631078644E0,5.830252603E0
1.493128829E1,8.698411560E-1,-5.553301849E0,-1.722019043E0,5.878871886E0
1.494122729E1,2.226470032E0,-6.439608765E0,-1.200802917E0,6.918645640E0
1.495116729E1,3.116668854E0,-7.601791992E0,-1.398541718E0,8.334073744E0
1.496110629E1,3.987557831E0,-8.598868561E0,-1.988614655E0,9.684820402E0
1.497104529E1,4.492308197E0,-8.938811646E0,-2.432741089E0,1.029569890E1
1.498098529E1,4.575834503E0,-8.948840790E0,-2.579735413E0,1.037665879E1
1.499092429E1,4.380490723E0,-8.898695068E0,-2.641107788E0,1.026405978E1
1.500086429E1,4.226760406E0,-8.697663116E0,-2.556683350E0,1.000257352E1
1.501080329E1,4.224365387E0,-8.287815399E0,-2.478545837E0,9.626854963E0
1.502074229E1,4.299658813E0,-8.005053406E0,-2.510878601E0,9.427218958E0
1.503068229E1,4.682712250E0,-8.032296753E0,-2.282752991E0,9.573742547E0
1.504062129E1,5.203030243E0,-8.074209595E0,-2.208956451E0,9.856159135E0
1.505056129E1,5.719905396E0,-7.891739044E0,-2.437830505E0,1.004688412E1
1.506050029E1,6.166875916E0,-7.821984100E0,-1.846560059E0,1.013032960E1
1.507043929E1,6.259982300E0,-7.938890991E0,-6.679110718E-1,1.013210115E1
1.508037929E1,6.030509491E0,-7.829767914E0,2.956352234E-1,9.887351035E0
1.509031829E1,6.009104004E0,-7.586523743E0,1.968256989E0,9.876168741E0
1.510025729E1,6.490203552E0,-7.159761200E0,5.835465088E0,1.128882524E1
1.511019729E1,6.950646057E0,-6.519841919E0,8.775052185E0,1.295458838E1
1.512013629E1,6.926097107E0,-6.204298096E0,5.621410217E0,1.086574382E1
1.513007629E1,7.010371857E0,-6.328390045E0,1.949246521E0,9.643308360E0
1.514001529E1,6.864724731E0,-6.428382111E0,-4.349954224E-1,9.414763046E0
1.514995429E1,6.924001465E0,-6.365662537E0,-1.751956787E0,9.567278004E0
1.515989429E1,7.125033417E0,-6.220165100E0,-2.057471466E0,9.679346254E0
1.516983329E1,7.137756958E0,-6.087391205E0,-1.907333679E0,9.572973824E0
1.517977329E1,7.158264313E0,-6.011349335E0,-1.746418304E0,9.509313629E0
1.518971229E1,7.183711395E0,-6.057154083E0,-1.534159698E0,9.520949059E0
1.519965129E1,7.265142059E0,-6.239474945E0,-1.131347351E0,9.643302524E0
1.520959129E1,7.294780426E0,-6.547534332E0,-7.426057434E-1,9.830335222E0
1.521953029E1,7.195686493E0,-7.037016449E0,-3.550616455E-1,1.007092714E1
1.522947029E1,6.942862244E0,-7.539820862E0,1.022373962E-1,1.025000913E1
1.523940929E1,6.522985382E0,-8.004155273E0,7.698490906E-1,1.035415412E1
1.524934829E1,6.031557312E0,-8.403225403E0,1.969604187E0,1.052963539E1
1.525928829E1,5.455405426E0,-8.650960236E0,4.222269745E0,1.106472427E1
1.526922729E1,5.256768494E0,-8.712631989E0,6.483168182E0,1.206544822E1
1.527916729E1,6.205196228E0,-8.650511169E0,4.938530273E0,1.173562461E1
1.528910629E1,8.116421814E0,-8.587791595E0,1.289119263E0,1.188647534E1
1.529904529E1,9.855205994E0,-8.326435089E0,-4.984634399E-1,1.291135439E1
1.530898529E1,1.084973785E1,-7.739355927E0,-9.997709656E-1,1.336465427E1
1.531892429E1,1.107726471E1,-7.023245087E0,-1.033899994E0,1.315677446E1
1.532886329E1,1.081126785E1,-6.437064056E0,-4.605921936E-1,1.259092735E1
1.533880329E1,1.046937881E1,-6.180796967E0,6.369255066E-1,1.217439189E1
1.534874229E1,1.028196854E1,-6.402036896E0,2.243833923E0,1.231826871E1
1.535868229E1,1.031055908E1,-7.146887970E0,3.498225403E0,1.302394783E1
1.536862129E1,1.066741699E1,-8.375682678E0,3.585942993E0,1.402871458E1
1.537856029E1,1.128203888E1,-9.640851746E0,3.673061829E0,1.528796281E1
1.538850029E1,1.136167328E1,-1.023331970E1,3.785028992E0,1.575229813E1
1.539843929E1,1.048195267E1,-9.892179108E0,4.153712311E0,1.499932882E1
1.540837929E1,9.321416016E0,-8.943751373E0,4.971012726E0,1.384162031E1
1.541831829E1,8.080646210E0,-8.507408752E0,5.138963470E0,1.280944153E1
1.542825729E1,6.820865936E0,-8.938661957E0,4.671335907E0,1.217560138E1
1.543819729E1,6.377937012E0,-9.402397614E0,2.395318909E0,1.161123224E1
1.544813629E1,6.816225586E0,-9.145831146E0,-2.048041077E0,1.158885805E1
1.545807529E1,7.516918488E0,-8.713829498E0,-5.053940277E0,1.256889814E1
1.546801529E1,7.420518951E0,-8.890312500E0,-5.436245270E0,1.279275265E1
1.547795429E1,7.320526886E0,-9.437574463E0,-4.517904968E0,1.276986260E1
1.548789429E1,7.936945038E0,-1.070903046E1,-2.787054291E0,1.361785965E1
1.549783329E1,8.864865417E0,-1.194935120E1,1.363664246E-1,1.487922809E1
1.550777229E1,8.887767792E0,-1.241158997E1,5.007536774E0,1.606597044E1
1.551771229E1,8.129744110E0,-1.261860947E1,8.652457123E0,1.732590715E1
1.552765129E1,7.267986145E0,-1.264151184E1,5.723946991E0,1.566508900E1
1.553759129E1,6.907535706E0,-1.239781860E1,1.414259033E0,1.426254130E1
1.554753029E1,6.605613556E0,-1.227492416E1,-6.884184265E-1,1.395642553E1
1.555746929E1,6.417454834E0,-1.208272385E1,-1.595382385E0,1.377393143E1
1.556740929E1,6.313121796E0,-1.120584732E1,-1.699715424E0,1.297364843E1
1.557734829E1,5.961502991E0,-1.005863297E1,-1.114731903E0,1.174556266E1
1.558728729E1,5.432353363E0,-9.011111298E0,-5.137316895E-1,1.053444399E1
1.559722729E1,4.842579803E0,-8.250243530E0,-1.773811340E-1,9.568101250E0
1.560716629E1,4.072880402E0,-7.580685883E0,-3.607498169E-1,8.613088508E0
1.561710629E1,3.270548859E0,-6.857090607E0,-1.381926270E0,7.721780989E0
1.562704529E1,2.871478729E0,-6.358776855E0,-2.169588318E0,7.306609792E0
1.563698429E1,2.689008179E0,-6.108197937E0,-2.166893921E0,7.016856582E0
1.564692429E1,2.527044983E0,-5.874683533E0,-1.940714264E0,6.683130614E0
1.565686329E1,2.547702026E0,-5.637127533E0,-1.303339691E0,6.321921131E0
1.566680329E1,2.650687866E0,-5.370980988E0,-6.493496704E-1,6.024552923E0
1.567674229E1,2.901117096E0,-5.122797089E0,-4.195774841E-1,5.902167033E0
1.568668204E1,3.126697998E0,-5.028493195E0,-5.095404053E-1,5.943199105E0
1.569662204E1,3.310665436E0,-4.912484436E0,-7.078779602E-1,5.966079129E0
1.570656104E1,3.297193451E0,-4.831203461E0,-8.024812317E-1,5.903895973E0
1.571650004E1,2.479294281E0,-4.760700073E0,-7.222480774E-1,5.415977068E0
1.572644004E1,9.321116638E-1,-4.560865631E0,-8.060737610E-1,4.724413442E0
1.573637904E1,-4.746629333E-1,-4.296964417E0,-8.315208435E-1,4.402344263E0
1.574631904E1,-1.615290985E0,-4.127965851E0,-7.044351196E-1,4.488373410E0
1.575625804E1,-2.147584076E0,-4.168082428E0,-7.487429810E-1,4.748225410E0
1.576619704E1,-2.188149719E0,-4.448599091E0,-3.852987671E-1,4.972573599E0
1.577613704E1,-1.920057220E0,-4.894821167E0,1.370250549E0,5.433551376E0
1.578607604E1,2.275268555E-1,-4.907844086E0,3.592229919E0,6.086281117E0
1.579601604E1,3.088527374E0,-4.666845245E0,5.726491699E0,8.006944053E0
1.580595504E1,6.037395172E0,-4.996759186E0,8.870254211E0,1.183634879E1
1.581589404E1,9.373807068E0,-6.314319305E0,1.289822800E1,1.714943651E1
1.582583404E1,1.316362610E1,-8.596772919E0,1.659568909E1,2.286049984E1
1.583577304E1,1.583497101E1,-1.115106125E1,1.614886826E1,2.521662983E1
1.584571204E1,1.625769196E1,-1.269016068E1,1.319356384E1,2.448311362E1
1.585565204E1,1.672112823E1,-1.180984131E1,1.302980438E1,2.426611389E1
1.586559104E1,1.448178497E1,-8.533903656E0,1.233973938E1,2.085230864E1
1.587553104E1,9.867031403E0,-5.247038727E0,8.284073181E0,1.391098820E1
1.588547004E1,7.683222656E0,-3.218457184E0,6.135141907E0,1.034554702E1
1.589540904E1,6.981332245E0,-2.819985809E0,5.021457825E0,9.050213178E0
1.590534904E1,8.240962830E0,-4.642296295E0,-2.674787750E0,9.829489954E0
1.591528804E1,9.739945679E0,-7.884104919E0,-9.597741394E0,1.578424189E1
1.592522804E1,1.001148102E1,-1.083402054E1,-1.059960800E1,1.816473074E1
1.593516704E1,9.567504272E0,-1.189845703E1,-8.552614746E0,1.750021819E1
1.594510604E1,9.346264343E0,-1.142214752E1,-4.017046509E0,1.529558021E1
1.595504604E1,1.123398880E1,-9.910590820E0,1.010683273E1,1.807125847E1
1.596498504E1,7.523953857E0,-9.052425385E0,2.111853378E1,2.417744313E1
1.597492504E1,1.798959045E0,-7.735464020E0,5.045557709E0,9.409107813E0
1.598486404E1,-3.951782227E-1,-5.828130341E0,-3.396586761E0,6.757223596E0
1.599480304E1,-1.223555603E0,-5.412594452E0,-3.296894073E0,6.454670987E0
1.600474304E1,-1.089883575E0,-6.000422058E0,-3.137924652E0,6.858533532E0
1.601468204E1,-6.433621216E-1,-6.811734924E0,-2.739453278E0,7.370091706E0
1.602462104E1,8.039781189E-1,-7.768694916E0,-2.073637848E0,8.080778145E0
1.603456104E1,2.147135010E0,-8.939859467E0,-1.683998108E0,9.347038336E0
1.604450004E1,3.444936218E0,-1.021206390E1,-1.771715698E0,1.092212485E1
1.605444004E1,4.940925293E0,-1.103325623E1,-2.114203491E0,1.227254424E1
1.606437904E1,5.869893494E0,-1.116348541E1,-2.437531128E0,1.284603496E1
1.607431804E1,5.773344269E0,-1.057266403E1,-2.510429535E0,1.230507965E1
1.608425804E1,5.100044403E0,-9.555080109E0,-2.442770233E0,1.110302370E1
1.609419704E1,4.725822601E0,-8.676557007E0,-2.325713654E0,1.015012240E1
1.610413704E1,4.738695831E0,-8.010142822E0,-2.249821472E0,9.574932003E0
1.611407604E1,4.881798248E0,-7.697892151E0,-2.334096222E0,9.409436905E0
1.612401504E1,5.386548615E0,-7.779023438E0,-2.402054901E0,9.762068396E0
1.613395504E1,6.361770630E0,-8.004155273E0,-2.008972321E0,1.041991348E1
1.614389404E1,7.289241943E0,-8.328231354E0,-4.065545654E-1,1.107509694E1
1.615383304E1,7.396419067E0,-8.295599213E0,7.331753540E-1,1.113829105E1
1.616377304E1,6.653813324E0,-7.911198578E0,2.235601044E0,1.057630402E1
1.617371204E1,5.293741608E0,-7.497159576E0,4.927602997E0,1.041692724E1
1.618365204E1,4.350403290E0,-7.152127075E0,4.346960449E0,9.432655810E0
1.619359104E1,4.908891907E0,-7.040010223E0,1.817370758E0,8.772787480E0
1.620353004E1,5.479056244E0,-7.027735748E0,4.496649170E-1,8.922517896E0
1.621347004E1,5.708828430E0,-7.092700653E0,-3.362008667E-1,9.110990924E0
1.622340904E1,5.658233643E0,-7.094796295E0,-9.087602234E-1,9.120174755E0
1.623334904E1,5.664071503E0,-6.897356873E0,-1.487307129E0,9.048056162E0
1.624328804E1,5.495671692E0,-6.603667603E0,-1.877695312E0,8.794121493E0
1.625322704E1,5.467081146E0,-6.445446625E0,-1.678160248E0,8.616784799E0
1.626316704E1,5.536387024E0,-6.369404755E0,-1.261875916E0,8.533066801E0
1.627310604E1,5.499114532E0,-6.275699615E0,-9.804611206E-1,8.401545710E0
1.628304504E1,5.636229401E0,-6.389313354E0,-6.146218872E-1,8.542140660E0
1.629298504E1,6.333928528E0,-6.744225311E0,-1.962419128E-1,9.254282065E0
1.630292404E1,7.119794312E0,-7.328610077E0,2.797682190E-1,1.022146110E1
1.631286404E1,7.637417908E0,-7.929161224E0,7.746391296E-1,1.103638599E1
1.632280304E1,7.714657288E0,-8.377478943E0,1.532662811E0,1.149117687E1
1.633274204E1,7.512128448E0,-8.489895172E0,3.089425507E0,1.174967846E1
1.634268204E1,7.427254944E0,-8.223299561E0,5.860313416E0,1.253515237E1
1.635262104E1,7.769293671E0,-7.727680206E0,7.242688751E0,1.313527715E1
1.636256104E1,8.543783112E0,-7.288044434E0,4.882397003E0,1.224539187E1
1.637250004E1,9.540560303E0,-7.255561981E0,1.343605957E0,1.206112547E1
1.638243904E1,1.044887146E1,-7.284002838E0,-6.583309937E-1,1.275417625E1
1.639237904E1,1.100032471E1,-7.081473999E0,-1.112037506E0,1.312977704E1
1.640231804E1,1.118683685E1,-6.749614105E0,-7.417076111E-1,1.308635700E1
1.641225704E1,1.099837875E1,-6.422544250E0,1.109193420E-1,1.273678582E1
1.642219704E1,1.059616516E1,-6.380332031E0,1.082249451E0,1.241606286E1
1.643213604E1,1.004156845E1,-6.709347839E0,2.783012695E0,1.239328871E1
1.644207604E1,9.697134705E0,-7.298672333E0,4.481829987E0,1.293799982E1
1.645201504E1,1.010324020E1,-7.952362976E0,3.951333160E0,1.345096923E1
1.646195404E1,1.104792572E1,-8.432564392E0,2.685565338E0,1.415546065E1
1.647189404E1,1.164443527E1,-8.639733582E0,2.938838654E0,1.479441252E1
1.648183304E1,1.170281387E1,-8.406518555E0,4.174069977E0,1.500160881E1
1.649177304E1,1.110450806E1,-7.618257751E0,4.621639252E0,1.423753840E1
1.650171204E1,1.003273682E1,-6.792724457E0,3.596570892E0,1.263852190E1
1.651165104E1,8.687783661E0,-6.665339355E0,2.511926422E0,1.123450524E1
1.652159104E1,7.932604065E0,-7.255561981E0,1.951342163E0,1.092598385E1
1.653153004E1,8.103099518E0,-8.443940735E0,1.999092865E0,1.187251992E1
1.654146904E1,8.557853851E0,-9.528734894E0,3.143463135E-2,1.280760084E1
