"Time (s)","Acceleration x (m/s^2)","Acceleration y (m/s^2)","Acceleration z (m/s^2)","Absolute acceleration (m/s^2)"
5.286999978E-3,-1.601669312E0,-9.353000336E0,1.494641876E0,9.606139402E0
1.522599999E-2,-1.372645569E0,-9.246272278E0,1.888772278E0,9.536517583E0
2.516399999E-2,-1.541793823E0,-9.383237457E0,2.335443420E0,9.791658151E0
3.510299997E-2,-2.228565674E0,-9.736353149E0,2.582878876E0,1.031670204E1
4.504199998E-2,-3.938459930E0,-1.010368927E1,1.607806549E0,1.096271159E1
5.498099999E-2,-5.377866669E0,-1.012359787E1,2.862048340E-1,1.146693494E1
6.491999998E-2,-6.265520782E0,-9.831106110E0,-1.553768921E-1,1.165896822E1
7.485799998E-2,-6.948849792E0,-9.469009094E0,9.400451660E-2,1.174553036E1
8.479699999E-2,-7.522157593E0,-9.245074768E0,5.243595886E-1,1.193018086E1
9.473600000E-2,-7.979306946E0,-9.081315308E0,8.937913513E-1,1.212181876E1
1.046750000E-1,-8.117469635E0,-8.923693085E0,1.490450592E0,1.215512462E1
1.146140000E-1,-7.841892700E0,-8.936716003E0,2.428250427E0,1.213493198E1
1.245520000E-1,-6.905290375E0,-9.336983643E0,3.194506989E0,1.204438349E1
1.344910000E-1,-5.852080536E0,-1.007569748E1,3.619024200E0,1.220097793E1
1.444300000E-1,-5.197192383E0,-1.108055786E1,3.387455750E0,1.269899317E1
1.543690000E-1,-5.264402618E0,-1.206805435E1,2.767145691E0,1.345395726E1
1.643080000E-1,-5.720803528E0,-1.274195297E1,2.888543243E0,1.426284125E1
1.742470000E-1,-5.934858398E0,-1.275288025E1,3.718716888E0,1.454947951E1
1.841850000E-1,-6.020031281E0,-1.190698929E1,4.035607910E0,1.393927192E1
1.941240000E-1,-6.108647003E0,-1.083297272E1,1.769320679E0,1.256182159E1
2.040630000E-1,-5.875881042E0,-9.836644592E0,-4.466711426E-1,1.146669394E1
2.140020000E-1,-5.552104340E0,-9.303902435E0,5.619314575E-1,1.084915804E1
2.239410000E-1,-4.800666962E0,-9.556127930E0,2.872825928E0,1.107335148E1
2.338790000E-1,-3.610941010E0,-1.018257523E1,2.598296814E0,1.111192510E1
2.438180000E-1,-2.703378296E0,-1.083551743E1,4.209246826E-1,1.117559259E1
2.537570000E-1,-2.065105591E0,-1.115824631E1,-1.825753326E0,1.149367204E1
2.636960000E-1,-2.010169830E0,-1.124042542E1,-3.376528473E0,1.190751405E1
2.736350000E-1,-2.496059418E0,-1.157198593E1,-3.996539154E0,1.249453866E1
2.835740000E-1,-3.313210144E0,-1.231833389E1,-3.683240662E0,1.327723515E1
2.935120000E-1,-3.991898804E0,-1.281230667E1,-2.932402039E0,1.373642748E1
3.034510000E-1,-4.372706909E0,-1.290571243E1,-2.062860260E0,1.378163167E1
3.133900000E-1,-4.443359985E0,-1.265513351E1,-1.057251434E0,1.345413070E1
3.233290000E-1,-4.393962708E0,-1.197689392E1,-1.197509766E-1,1.275802636E1
3.332680000E-1,-4.596790924E0,-1.102936432E1,9.503736877E-1,1.198668320E1
3.432060000E-1,-4.175866241E0,-1.025068359E1,1.060993652E0,1.111935612E1
3.531450000E-1,-3.777694244E0,-9.852960663E0,-1.981878662E-1,1.055419756E1
3.630847083E-1,-3.707340546E0,-9.625882874E0,-1.109792175E0,1.037466306E1
3.730237083E-1,-3.751798096E0,-9.510622559E0,-1.355880432E0,1.031340594E1
3.829627083E-1,-3.714076538E0,-9.216933289E0,-8.527766418E-1,9.973637841E0
3.929017083E-1,-3.695664825E0,-8.603658600E0,-3.752696228E-1,9.371323658E0
4.028397083E-1,-3.762875061E0,-8.066126404E0,1.636097717E-1,8.902156595E0
4.127787083E-1,-3.411106567E0,-7.697443085E0,5.233117676E-1,8.435646582E0
4.227177083E-1,-2.736609192E0,-7.329957275E0,2.742297363E-1,7.828953026E0
4.326567083E-1,-1.945055237E0,-7.085216217E0,-3.727249146E-2,7.347442954E0
4.425957083E-1,-1.369951172E0,-6.996899872E0,-2.273771667E-1,7.133377489E0
4.525337083E-1,-1.132544861E0,-7.030579834E0,-1.913021851E-1,7.123784611E0
4.624727083E-1,-1.115630035E0,-7.055577850E0,-1.766326904E-2,7.143257042E0
4.724117083E-1,-1.178050232E0,-7.040758667E0,1.094224548E-1,7.139471845E0
4.823507083E-1,-1.251996460E0,-7.029981079E0,-7.259902954E-2,7.140966302E0
4.922897083E-1,-1.091829529E0,-7.059619446E0,-3.109034729E-1,7.150313239E0
5.022277083E-1,-5.712121582E-1,-7.093898163E0,-3.254232788E-1,7.124294687E0
5.121667083E-1,2.415975952E-1,-7.118447113E0,-2.237846375E-1,7.126060501E0
5.221057083E-1,9.398954773E-1,-7.151827698E0,-1.041833496E-1,7.214076316E0
5.320447083E-1,1.445094910E0,-7.176825714E0,1.821711731E-1,7.323135460E0
5.419837083E-1,1.850751343E0,-7.220085754E0,7.499404907E-1,7.491150083E0
5.519227083E-1,1.953587494E0,-7.281757507E0,1.536554718E0,7.694250899E0
5.618607083E-1,1.303339691E0,-7.235803070E0,2.211950226E0,7.677777297E0
5.717997083E-1,4.340972900E-2,-7.041207733E0,2.539469147E0,7.485278505E0
5.817387083E-1,-1.309177551E0,-6.872209167E0,2.978506165E0,7.603466556E0
5.916777083E-1,-2.591261444E0,-6.927294617E0,3.370540924E0,8.127889806E0
6.016167083E-1,-3.931125183E0,-7.165299683E0,3.448229370E0,8.870487615E0
6.115547083E-1,-5.605393524E0,-7.391329651E0,3.450474701E0,9.897371683E0
6.214937083E-1,-7.414531403E0,-7.588619385E0,3.998634796E0,1.133805540E1
6.314327083E-1,-8.902586975E0,-7.884853363E0,4.939578094E0,1.287735995E1
6.413717083E-1,-9.779912567E0,-8.075856171E0,5.458698578E0,1.380809664E1
6.513107083E-1,-1.082009949E1,-8.179740143E0,6.021528168E0,1.484053581E1
6.612497083E-1,-1.216190918E1,-8.333320770E0,6.674769745E0,1.618359729E1
6.711877083E-1,-1.363095428E1,-8.685837708E0,6.820716248E0,1.754334237E1
6.811267083E-1,-1.426668228E1,-8.981023865E0,5.267546082E0,1.766193802E1
6.910657083E-1,-1.369576950E1,-8.866212616E0,2.691403198E0,1.653564270E1
7.010047083E-1,-1.202030365E1,-8.231532440E0,6.798861694E-1,1.458451478E1
7.109437083E-1,-9.579329681E0,-7.290439453E0,2.022294617E-1,1.203972430E1
7.208817083E-1,-8.126600647E0,-6.531667328E0,7.979905701E-1,1.045662972E1
7.308207083E-1,-7.676187286E0,-6.443949738E0,1.369352417E0,1.011550619E1
7.407597083E-1,-7.241640930E0,-7.567363586E0,1.734293518E0,1.061669106E1
7.506987083E-1,-6.454877014E0,-9.400002594E0,1.591789856E0,1.151343915E1
7.606377083E-1,-5.124144287E0,-1.095901062E1,9.044192505E-1,1.213155978E1
7.705767083E-1,-3.363804932E0,-1.140208923E1,8.707392883E-1,1.191977388E1
7.805147083E-1,-1.560953979E0,-1.042566971E1,2.712359619E-1,1.054536558E1
7.904537083E-1,-1.582209778E-1,-9.197324066E0,3.598516846E-1,9.205720889E0
8.003927083E-1,7.484436035E-2,-8.852890320E0,1.435514832E-1,8.854370431E0
8.103317083E-1,-2.406994629E-1,-9.775122528E0,2.878514099E-1,9.782321560E0
8.202707083E-1,-5.686674500E-1,-1.113115265E1,1.105151825E0,1.120032600E1
8.302087083E-1,-1.310225372E0,-1.193707672E1,1.077309723E0,1.205699330E1
8.401477083E-1,-1.900148621E0,-1.162722107E1,5.688171387E-2,1.178159879E1
8.500867083E-1,-2.090253296E0,-1.045650558E1,-8.970845032E-1,1.070104801E1
8.600257083E-1,-2.147883453E0,-9.331744537E0,-1.165027313E0,9.646354134E0
8.699647083E-1,-2.073488159E0,-8.495134277E0,-1.128203888E0,8.817000825E0
8.799037083E-1,-1.940414886E0,-7.962691498E0,-1.151106262E0,8.276153179E0
8.898417083E-1,-1.848805389E0,-7.786208496E0,-1.369801483E0,8.119081242E0
8.997807083E-1,-1.929038544E0,-7.989485779E0,-1.686393127E0,8.390291681E0
9.097197083E-1,-2.098336487E0,-8.422235870E0,-2.119891663E0,8.934820296E0
9.196587083E-1,-2.378703461E0,-8.961564331E0,-2.433639221E0,9.585951454E0
9.295977083E-1,-2.937192078E0,-9.455387421E0,-2.545007629E0,1.022294050E1
9.395367083E-1,-3.585344238E0,-9.714049530E0,-2.446213074E0,1.063961512E1
9.494747083E-1,-4.021088104E0,-9.711504822E0,-2.216291199E0,1.074217958E1
9.594137083E-1,-4.187092896E0,-9.455836487E0,-1.785936127E0,1.049448228E1
9.693527083E-1,-4.446503448E0,-8.829089813E0,-1.285826111E-1,9.886392332E0
9.792917083E-1,-4.692891083E0,-8.283474426E0,1.230291595E0,9.599624612E0
9.892307083E-1,-4.626279602E0,-8.318052521E0,9.258247375E-1,9.562929056E0
9.991687083E-1,-4.454137573E0,-8.588989105E0,4.128414917E-1,9.684033946E0
1.009107708E0,-4.185146942E0,-8.817114716E0,7.708969116E-2,9.760272007E0
1.019046708E0,-3.839066620E0,-8.990304565E0,-2.559677124E-2,9.775718075E0
1.028985708E0,-3.465892639E0,-9.027277679E0,9.610015869E-2,9.670232124E0
1.038924708E0,-3.088527374E0,-8.934919739E0,2.794688416E-1,9.457795457E0
1.048863708E0,-2.716550903E0,-8.758287048E0,5.180726624E-1,9.184532656E0
1.058801708E0,-2.489024048E0,-8.538843384E0,6.580316162E-1,8.918525251E0
1.068740708E0,-2.502645721E0,-8.350984039E0,5.077441406E-1,8.732695697E0
1.078679708E0,-2.661465454E0,-8.168513489E0,2.139051819E-1,8.593821409E0
1.088618708E0,-2.755320282E0,-8.104596405E0,4.445755005E-2,8.560271562E0
1.098557708E0,-2.683769073E0,-8.180338898E0,2.245330811E-2,8.609359156E0
1.108495708E0,-2.451452179E0,-8.588839417E0,1.441502380E-1,8.933003952E0
1.118434708E0,-2.437082062E0,-9.265282745E0,3.571572876E-1,9.587095215E0
1.128373708E0,-2.828069000E0,-9.780960388E0,6.457571411E-1,1.020206659E1
1.138312708E0,-3.532055054E0,-9.960736542E0,9.624984741E-1,1.061216701E1
1.148251708E0,-3.889960785E0,-9.908195801E0,1.194366302E0,1.071123941E1
1.158190708E0,-3.850892029E0,-9.448352051E0,9.782157898E-1,1.024976254E1
1.168128708E0,-3.939208374E0,-9.055568848E0,3.773652649E-1,9.882463980E0
1.178067708E0,-4.019740906E0,-8.716074829E0,-3.100053406E-1,9.603352575E0
1.188006708E0,-3.948489075E0,-8.557554474E0,-9.574090576E-1,9.473063741E0
1.197945708E0,-4.015699310E0,-8.786877594E0,-1.034798126E0,9.716268109E0
1.207884708E0,-4.120481415E0,-9.108408966E0,-7.072792053E-1,1.002206191E1
1.217823708E0,-4.111051025E0,-9.250613251E0,-5.131329346E-1,1.013597018E1
1.227761708E0,-4.018094330E0,-9.079069977E0,-4.550537109E-1,9.938896698E0
1.237700708E0,-3.982169037E0,-8.745862885E0,-4.331991577E-1,9.619534778E0
1.247639708E0,-4.199666748E0,-8.539142761E0,-5.590873718E-1,9.532404659E0
1.257578708E0,-4.687651978E0,-8.536448364E0,-7.846682739E-1,9.770401017E0
1.267517708E0,-5.287454681E0,-8.647218018E0,-1.024020538E0,1.018725549E1
1.277455708E0,-5.684279480E0,-8.794212341E0,-1.209335175E0,1.054095325E1
1.287394708E0,-6.069578247E0,-8.911119232E0,-1.206491089E0,1.084912194E1
1.297333708E0,-6.442153473E0,-8.964109039E0,-1.041534119E0,1.108789365E1
1.307272708E0,-6.698570251E0,-8.878936157E0,-7.843688965E-1,1.114995898E1
1.317211708E0,-6.762487335E0,-8.772956543E0,-4.411326599E-1,1.108560325E1
1.327150708E0,-6.468648376E0,-8.872050476E0,-3.532653809E-2,1.097988795E1
1.337088708E0,-5.846691742E0,-9.248667297E0,4.020639038E-1,1.094912355E1
1.347027708E0,-5.039869537E0,-9.649683380E0,9.017248535E-1,1.092381719E1
1.356966333E0,-4.269721069E0,-1.009156448E1,1.475631409E0,1.105656727E1
1.366905333E0,-3.787274323E0,-1.066666855E1,2.059567108E0,1.150491553E1
1.376844333E0,-3.713477783E0,-1.136107452E1,2.354304199E0,1.218222803E1
1.386783333E0,-4.171375580E0,-1.199395844E1,2.185455322E0,1.288532608E1
1.396721333E0,-4.864284668E0,-1.239901611E1,1.877695312E0,1.345074740E1
1.406660333E0,-5.695655823E0,-1.239602234E1,1.885179749E0,1.377155648E1
1.416599333E0,-6.735094299E0,-1.194980026E1,1.923200684E0,1.385127873E1
1.426538333E0,-7.680528259E0,-1.134625534E1,1.983674927E0,1.384424035E1
1.436477333E0,-8.313112793E0,-1.061607376E1,2.323318634E0,1.368234906E1
1.446415333E0,-8.329428864E0,-9.621242523E0,2.040257263E0,1.288838014E1
1.456354333E0,-7.822582855E0,-8.621022491E0,1.791474609E0,1.177812432E1
1.466293333E0,-7.213349762E0,-8.231682129E0,3.143313446E0,1.138742398E1
1.476232333E0,-6.102210388E0,-8.452323303E0,4.667294312E0,1.142201283E1
1.486171333E0,-4.451293488E0,-8.900191956E0,3.780538330E0,1.064518204E1
1.496110333E0,-2.965932312E0,-9.608818359E0,8.608598328E-1,1.009292943E1
1.506048333E0,-2.109413452E0,-1.028062134E1,-2.432591400E0,1.077303584E1
1.515987333E0,-2.072440338E0,-1.072474777E1,-4.303700409E0,1.174040293E1
1.525926333E0,-2.449805603E0,-1.105121887E1,-4.248465271E0,1.209051046E1
1.535865333E0,-2.939886475E0,-1.161464722E1,-2.586172028E0,1.225688575E1
1.545804333E0,-3.745361481E0,-1.209559708E1,-7.140151978E-1,1.268231126E1
1.555743333E0,-4.249213715E0,-1.209095673E1,2.775228882E-1,1.281889507E1
1.565681333E0,-4.404291229E0,-1.190399551E1,2.951861572E-1,1.269606338E1
1.575620333E0,-4.017794952E0,-1.174293045E1,-6.480024719E-1,1.242815349E1
1.585559333E0,-3.497626648E0,-1.183947968E1,-1.895358582E0,1.248995818E1
1.595498333E0,-3.207829285E0,-1.199201248E1,-2.578088837E0,1.267852807E1
1.605437333E0,-3.001258850E0,-1.193288544E1,-2.374961243E0,1.253163000E1
1.615375333E0,-2.944227448E0,-1.155671768E1,-1.438358917E0,1.201228851E1
1.625314333E0,-2.807711334E0,-1.089180038E1,-8.328680420E-1,1.127866250E1
1.635253333E0,-2.563868408E0,-9.960287476E0,-9.824070740E-1,1.033178936E1
1.645192333E0,-2.246228943E0,-8.985215149E0,-1.373693390E0,9.363048076E0
1.655131333E0,-1.907034302E0,-8.170309753E0,-1.506616974E0,8.524120834E0
1.665070333E0,-1.829794922E0,-7.716752930E0,-7.997868347E-1,7.970952529E0
1.675008333E0,-1.625320129E0,-7.558681641E0,2.525248718E-1,7.735573830E0
1.684947333E0,-1.169667664E0,-7.558232574E0,4.032614136E-1,7.658826402E0
1.694886333E0,-9.033714294E-1,-7.604187012E0,4.700225830E-2,7.657803162E0
1.704825333E0,-9.925859070E-1,-7.644453278E0,2.068698120E-1,7.711399861E0
1.714764333E0,-1.106499023E0,-7.604037323E0,4.146377563E-1,7.695300395E0
1.724703333E0,-1.068328400E0,-7.478897552E0,4.734654236E-1,7.569636958E0
1.734641333E0,-9.171427917E-1,-7.368876343E0,3.314108276E-1,7.433123340E0
1.744580333E0,-3.915856934E-1,-7.349716187E0,1.707948303E-1,7.362121858E0
1.754519333E0,5.921685791E-1,-7.357949066E0,1.101708984E-1,7.382561596E0
1.764458333E0,1.748364258E0,-7.182813263E0,3.773652649E-1,7.402161069E0
1.774397333E0,2.571951599E0,-6.948849792E0,5.493576050E-1,7.429888441E0
1.784336333E0,3.025957489E0,-6.754553833E0,8.393046570E-1,7.448815242E0
1.794274333E0,3.159030762E0,-6.583309937E0,1.202150116E0,7.400311478E0
1.804213333E0,2.967279510E0,-6.433471527E0,1.603764954E0,7.264046091E0
1.814152333E0,2.098635864E0,-6.175108795E0,2.111958160E0,6.855407238E0
1.824091333E0,2.564167786E-1,-5.923332367E0,2.579585724E0,6.465746546E0
1.834030333E0,-2.308948517E0,-5.982609100E0,3.139870605E0,7.140143018E0
1.843968333E0,-5.022206268E0,-6.399043121E0,3.814367981E0,8.984414937E0
1.853907333E0,-7.584128723E0,-6.944209442E0,4.664899292E0,1.129169335E1
1.863846333E0,-9.455237732E0,-7.746091919E0,5.248834991E0,1.330239562E1
1.873785333E0,-1.080108902E1,-8.419840851E0,5.416486359E0,1.472737480E1
1.883724333E0,-1.182436111E1,-8.730295258E0,4.876409454E0,1.548589488E1
1.893663333E0,-1.263402740E1,-8.647517395E0,3.827390900E0,1.578122703E1
1.903601333E0,-1.367062180E1,-8.368796997E0,4.051325226E0,1.653287330E1
1.913540333E0,-1.483654724E1,-8.010741577E0,4.716990967E0,1.750842992E1
1.923479333E0,-1.527723083E1,-7.519463196E0,4.086801453E0,1.751108377E1
1.933418333E0,-1.469583984E1,-6.615193634E0,2.757565613E0,1.635031081E1
1.943357333E0,-1.258208542E1,-5.645959167E0,1.968556366E0,1.393057582E1
1.953296333E0,-9.507030029E0,-5.538782043E0,1.076561279E0,1.105534761E1
1.963234333E0,-6.938371582E0,-6.942113800E0,-4.984634399E-1,9.827635017E0
1.973173333E0,-4.524042206E0,-9.738748169E0,-9.452842712E-1,1.077978368E1
1.983112333E0,-2.513872375E0,-1.266636017E1,7.141648865E-1,1.293314601E1
1.993051333E0,-1.252146149E0,-1.412522644E1,1.763033752E0,1.428979286E1
2.002990333E0,-5.173242188E-1,-1.491513382E1,3.795806580E0,1.539925286E1
2.012928333E0,-1.521885223E0,-1.538440796E1,3.719016266E0,1.590054165E1
2.022867333E0,-3.037633209E0,-1.399858978E1,-1.416055298E0,1.439419828E1
2.032806333E0,-2.917283478E0,-1.150253036E1,-4.408033447E0,1.265896941E1
2.042745333E0,-1.874102783E0,-9.524992676E0,-3.248993683E0,1.023687973E1
2.052684333E0,-3.960763550E-1,-8.204139404E0,-4.385879517E-1,8.225395993E0
2.062623333E0,1.793121185E0,-7.247778168E0,2.606230316E0,7.908097648E0
2.072561333E0,1.619033203E0,-7.108118591E0,1.678309937E0,7.480865101E0
2.082500333E0,-5.114863586E-1,-7.653434601E0,-1.512604523E0,7.818225625E0
2.092439333E0,-1.673220520E0,-8.226742401E0,-2.949765930E0,8.898318745E0
2.102378333E0,-2.133213959E0,-8.921298065E0,-3.645818481E0,9.870772683E0
2.112317333E0,-2.438279572E0,-9.601333923E0,-3.946992188E0,1.066346884E1
2.122256333E0,-3.068020020E0,-9.535171509E0,-3.530558167E0,1.062059714E1
2.132194333E0,-3.728596344E0,-1.019499939E1,-3.814667358E0,1.150617792E1
2.142133333E0,-3.909420319E0,-1.029499146E1,-3.533551941E0,1.156531044E1
2.152072333E0,-3.857777710E0,-9.882898407E0,-3.169808350E0,1.107257038E1
2.162011333E0,-3.713178406E0,-9.370064850E0,-2.779420166E0,1.045518941E1
2.171950333E0,-3.712429962E0,-8.982670441E0,-2.243983612E0,9.975267762E0
2.181889333E0,-3.826642456E0,-8.633746033E0,-5.463638306E-1,9.459560057E0
2.191827333E0,-4.082610168E0,-8.232580261E0,5.473368073E0,1.069583291E1
2.201766333E0,-3.799099731E0,-8.783584442E0,4.117787018E0,1.041828606E1
2.211705333E0,-3.393143921E0,-9.438622284E0,1.387913818E0,1.012557757E1
2.221644333E0,-2.978206787E0,-9.696685638E0,5.394781494E-1,1.015807387E1
2.231583333E0,-2.853815460E0,-9.629625092E0,4.912783813E-1,1.005561020E1
2.241522333E0,-2.507286072E0,-9.217082977E0,5.725593567E-1,9.569165391E0
2.251460333E0,-2.175575867E0,-8.673563232E0,4.540058899E-1,8.953767411E0
2.261399333E0,-2.116897888E0,-8.272547150E0,4.400848389E-2,8.539217163E0
2.271338333E0,-2.181713104E0,-8.018525391E0,-4.544549561E-1,8.322448607E0
2.281277333E0,-2.394720154E0,-7.986042938E0,-8.794212341E-1,8.383611879E0
2.291216333E0,-2.757864990E0,-8.229885864E0,-1.163979492E0,8.757379111E0
2.301154333E0,-3.136427765E0,-8.509354706E0,-1.149160309E0,9.141491456E0
2.311093333E0,-3.424129486E0,-8.570278015E0,-9.175918579E-1,9.274497443E0
2.321032333E0,-3.629352722E0,-8.492290192E0,-6.728507996E-1,9.259801406E0
2.330971333E0,-3.758384399E0,-8.434061279E0,-5.066963196E-1,9.247463659E0
2.340910333E0,-3.808380432E0,-8.412057037E0,-4.331991577E-1,9.244140124E0
2.350849333E0,-3.902235260E0,-8.458460541E0,-4.625381470E-1,9.326678738E0
2.360787708E0,-3.847898254E0,-8.458011475E0,-6.301895142E-1,9.313507283E0
2.370726708E0,-3.563938751E0,-8.419242096E0,-5.559439087E-1,9.159387017E0
2.380665708E0,-3.173550568E0,-8.416248322E0,-1.972897339E-1,8.996865135E0
2.390604708E0,-2.794987793E0,-8.463100891E0,2.915936279E-1,8.917458175E0
2.400543708E0,-2.512674866E0,-8.556656342E0,8.502319336E-1,8.958392549E0
2.410482708E0,-2.221679993E0,-8.632099457E0,1.367107086E0,9.017648519E0
2.420420708E0,-2.096091156E0,-8.756041718E0,1.492396545E0,9.126286876E0
2.430359708E0,-2.375110931E0,-9.032816162E0,1.065634003E0,9.400451882E0
2.440298708E0,-2.900668030E0,-9.270072784E0,2.591111755E-1,9.716751672E0
2.450237708E0,-3.472778320E0,-9.545649719E0,-5.801934814E-1,1.017429321E1
2.460176708E0,-4.164340210E0,-9.823322296E0,-1.382824402E0,1.075879146E1
2.470115708E0,-5.143005066E0,-1.001971390E1,-1.764231262E0,1.139989823E1
2.480053708E0,-6.032006378E0,-1.005818390E1,-1.489702148E0,1.182249452E1
2.489992708E0,-6.652316437E0,-9.908644867E0,-6.042933655E-1,1.194988400E1
2.499931708E0,-7.062164154E0,-9.707762604E0,4.453239441E-1,1.201304003E1
2.509870708E0,-6.960525513E0,-9.525441742E0,1.247505798E0,1.186335646E1
2.519809708E0,-6.297853546E0,-9.498348083E0,1.972897339E0,1.156606673E1
2.529748708E0,-5.467380524E0,-9.692644043E0,2.693798218E0,1.144972258E1
2.539686708E0,-4.688250732E0,-1.027298721E1,4.119732971E0,1.202023964E1
2.549625708E0,-4.147275696E0,-1.124326950E1,5.534291382E0,1.319997674E1
2.559564708E0,-4.456981659E0,-1.229827560E1,5.602100372E0,1.423010179E1
2.569503708E0,-5.344037018E0,-1.291155029E1,5.193599854E0,1.490772760E1
2.579442708E0,-6.537505188E0,-1.252729935E1,3.782783661E0,1.462811181E1
2.589381708E0,-7.385042725E0,-1.123518631E1,1.608405304E0,1.354087276E1
2.599319708E0,-7.627837830E0,-9.785301361E0,1.228944397E-1,1.240770469E1
2.609258708E0,-7.984546051E0,-8.851543121E0,-3.962260437E-1,1.192727070E1
2.619197708E0,-8.498577118E0,-8.568930817E0,-2.038760376E-1,1.207037505E1
2.629136708E0,-8.902736664E0,-8.617280273E0,5.080435181E-1,1.240057852E1
2.639075708E0,-8.652008057E0,-8.825497284E0,5.854325867E-1,1.237292920E1
2.649013708E0,-7.843090210E0,-9.198072510E0,-2.489323425E-1,1.209051567E1
2.658952708E0,-6.971752167E0,-9.807904358E0,-1.127156067E0,1.208597522E1
2.668891708E0,-5.874384155E0,-1.058224411E1,-1.468745728E0,1.219218986E1
2.678830708E0,-4.834047546E0,-1.150372787E1,-1.392404480E0,1.255557888E1
2.688769708E0,-4.031566315E0,-1.238868759E1,-1.380130005E0,1.310106355E1
2.698708708E0,-3.280578003E0,-1.301169205E1,-1.228944397E0,1.347503715E1
2.708647708E0,-2.637066193E0,-1.332499054E1,-5.890251160E-1,1.359619217E1
2.718585708E0,-2.479743347E0,-1.333367249E1,3.519181824E-1,1.356686388E1
2.728524708E0,-2.929408264E0,-1.304282730E1,5.595364380E-1,1.337945656E1
2.738463708E0,-3.193608856E0,-1.261681320E1,-9.789642334E-2,1.301509495E1
2.748402708E0,-3.293900299E0,-1.205293579E1,-7.481442261E-1,1.251729844E1
2.758341708E0,-3.130140839E0,-1.139250916E1,-9.077124023E-1,1.184951427E1
2.768280708E0,-2.860701141E0,-1.062011536E1,-1.215622101E0,1.106563140E1
2.778218708E0,-2.592458954E0,-1.003602997E1,-1.402583313E0,1.045992260E1
2.788157708E0,-2.565814362E0,-9.601633301E0,-1.321152649E0,1.002597675E1
2.798096708E0,-2.496658173E0,-9.098230133E0,-9.580078125E-1,9.483083494E0
2.808035708E0,-2.186203766E0,-8.540040894E0,-6.559359741E-1,8.839798492E0
2.817974708E0,-1.920805664E0,-8.014184418E0,-6.146218872E-1,8.264042978E0
2.827912708E0,-1.747915192E0,-7.674241333E0,-5.968089294E-1,7.893374972E0
2.837851708E0,-1.736389160E0,-7.434889069E0,-6.231541443E-1,7.660348808E0
2.847790708E0,-1.611249390E0,-7.383545837E0,-3.770658875E-1,7.566706841E0
2.857729708E0,-1.387315063E0,-7.410340118E0,-3.951782227E-2,7.539187318E0
2.867668708E0,-1.149309998E0,-7.369175720E0,1.112187195E-1,7.459090687E0
2.877607708E0,-9.918374634E-1,-7.353757782E0,-2.589614868E-2,7.420388513E0
2.887545708E0,-9.743238831E-1,-7.383994904E0,-2.421963501E-1,7.451935778E0
2.897484708E0,-1.059197388E0,-7.347021790E0,-4.538562012E-1,7.436841650E0
2.907423708E0,-9.608518982E-1,-7.214996338E0,-5.231620789E-1,7.297472651E0
2.917362708E0,-5.486091614E-1,-6.997049561E0,-4.589456177E-1,7.033513037E0
2.927301708E0,-1.392105103E-2,-6.737489319E0,-4.382885742E-1,6.751744441E0
2.937240708E0,5.689668274E-1,-6.518045654E0,-4.846920776E-1,6.560759774E0
2.947178708E0,1.046324158E0,-6.300547943E0,-4.767585754E-1,6.404607511E0
2.957117708E0,1.563798065E0,-6.114784241E0,-2.041754150E-1,6.314882287E0
2.967056708E0,2.036664734E0,-6.042933655E0,4.447251892E-1,6.392404156E0
2.976995708E0,2.061662750E0,-6.155649261E0,1.206491089E0,6.602885117E0
2.986934708E0,1.526974640E0,-6.233637085E0,2.111509094E0,6.756356526E0
2.996873708E0,2.805166626E-1,-6.154302063E0,3.046015778E0,6.872578526E0
3.006811708E0,-1.202150116E0,-6.247707825E0,3.625760193E0,7.322919837E0
3.016750708E0,-3.142265625E0,-6.709796906E0,4.228856049E0,8.531027561E0
3.026689708E0,-5.730533295E0,-7.342381439E0,4.939877472E0,1.054286330E1
3.036628708E0,-8.488697662E0,-8.114176483E0,6.309978333E0,1.333092925E1
3.046567708E0,-1.116288666E1,-8.876840515E0,7.788004761E0,1.624996475E1
3.056506708E0,-1.270288422E1,-9.522148590E0,7.341483307E0,1.749091073E1
3.066444708E0,-1.358425140E1,-9.870174866E0,6.632856903E0,1.805400312E1
3.076383708E0,-1.453866669E1,-9.523495789E0,6.723418579E0,1.863529336E1
3.086322708E0,-1.497515900E1,-8.530909882E0,5.901178436E0,1.821690746E1
3.096261708E0,-1.437370972E1,-7.494764557E0,3.337160339E0,1.655027691E1
3.106200708E0,-1.333966003E1,-6.526727600E0,3.739224243E-1,1.485545425E1
3.116139708E0,-1.205009171E1,-5.503754883E0,-1.441951447E0,1.332573645E1
3.126077708E0,-1.049093399E1,-4.630620575E0,-7.179071045E-1,1.148989702E1
3.136016708E0,-9.245374146E0,-5.338797913E0,-4.505630493E-2,1.067622294E1
3.145955708E0,-8.313262482E0,-7.846083984E0,-1.450184326E0,1.152277751E1
3.155894708E0,-7.252717896E0,-1.056697586E1,-2.434836731E0,1.304573975E1
3.165833708E0,-6.008804626E0,-1.265273849E1,-1.296004944E0,1.406688143E1
3.175772708E0,-4.681365051E0,-1.436008804E1,4.631518707E0,1.579804649E1
3.185710708E0,-4.436923370E0,-1.611294296E1,9.357191620E0,1.915385744E1
3.195649708E0,-3.887865143E0,-1.699011887E1,4.542004852E0,1.801136981E1
3.205588708E0,-2.051184540E0,-1.449211349E1,-2.390379181E0,1.483046271E1
3.215527708E0,-9.024732971E-1,-1.121093674E1,-4.653522949E0,1.217188713E1
3.225466708E0,-2.221380615E-1,-9.502090302E0,-3.009940796E0,9.969895135E0
3.235405708E0,2.604583740E-1,-8.383915558E0,-1.409468994E0,8.505555919E0
3.245343708E0,7.635621643E-1,-7.534132690E0,-9.406439209E-1,7.630923506E0
3.255282708E0,1.239123230E0,-6.947053528E0,-1.203048248E0,7.158512708E0
3.265221708E0,1.540895691E0,-6.684050446E0,-2.019300842E0,7.150417175E0
3.275160708E0,1.870360565E0,-6.885980530E0,-3.243305511E0,7.837984890E0
3.285099708E0,1.710043945E0,-7.604636078E0,-3.992048492E0,8.757350703E0
3.295038708E0,9.047186279E-1,-8.761580200E0,-4.063450012E0,9.700279862E0
3.304976708E0,9.355545044E-2,-9.780810699E0,-4.062851257E0,1.059149522E1
3.314915708E0,-6.387217712E-1,-1.023002655E1,-3.741918640E0,1.091161600E1
3.324854708E0,-8.201445007E-1,-9.948162689E0,-3.586392059E0,1.060663877E1
3.334793708E0,-4.830455017E-1,-9.409133606E0,-3.742068329E0,1.013746534E1
3.344732708E0,-2.192939758E-1,-9.002129974E0,-3.859424286E0,9.797019432E0
3.354671708E0,-3.863465881E-1,-8.879235535E0,-3.669020233E0,9.615185741E0
3.364609958E0,-9.473799133E-1,-9.095236359E0,-3.338956604E0,9.734961958E0
3.374548958E0,-1.578317871E0,-9.397158508E0,-3.000809784E0,9.990121856E0
3.384487958E0,-2.092498627E0,-9.573641510E0,-2.470013580E0,1.010614315E1
3.394426958E0,-2.561174011E0,-9.669591980E0,-1.862726440E0,1.017498753E1
3.404365958E0,-3.303181000E0,-9.735005951E0,9.080117798E-1,1.032016623E1
3.414304958E0,-5.138065338E0,-9.468560028E0,9.390272827E0,1.429092608E1
3.424242958E0,-5.285957794E0,-9.223818970E0,5.162763977E0,1.181838898E1
3.434181958E0,-5.021158447E0,-9.175319824E0,1.587598572E0,1.057917744E1
3.444120958E0,-4.411625977E0,-9.014404449E0,1.930984497E-1,1.003788914E1
3.454059958E0,-3.697461090E0,-8.641529846E0,3.278182983E-1,9.405037024E0
3.463998958E0,-3.278482361E0,-8.363108826E0,5.487588501E-1,8.999509548E0
3.473937958E0,-3.462749176E0,-8.231981506E0,9.804611206E-2,8.931168144E0
3.483875958E0,-4.087400208E0,-8.092022552E0,8.681945801E-2,9.066157238E0
3.493814958E0,-4.711153107E0,-7.932753754E0,2.436932373E-1,9.229460012E0
3.503753958E0,-5.066813507E0,-7.932005310E0,5.658233643E-2,9.412359370E0
3.513692958E0,-5.077142029E0,-8.126151581E0,-4.409829712E-1,9.591985023E0
3.523631958E0,-5.164111176E0,-8.226742401E0,-5.258564758E-1,9.727479622E0
3.533570958E0,-5.246589661E0,-8.176896057E0,1.197509766E-3,9.715365852E0
3.543508958E0,-4.927004242E0,-8.352780304E0,3.112028503E-1,9.702636591E0
3.553447958E0,-4.562362518E0,-8.724457397E0,1.877096558E-1,9.847159161E0
3.563386958E0,-4.257446594E0,-9.049581299E0,-1.333726501E-1,1.000192789E1
3.573325958E0,-3.889960785E0,-9.383686523E0,-3.474275208E-1,1.016395954E1
3.583264958E0,-3.585044861E0,-9.629924469E0,-1.899549866E-1,1.027735739E1
3.593203958E0,-3.292702789E0,-9.656569061E0,2.642005920E-1,1.020593061E1
3.603141958E0,-3.121458893E0,-9.475894775E0,8.822653198E-1,1.001571163E1
3.613080958E0,-3.196752319E0,-9.321715393E0,1.333427124E0,9.944427141E0
3.623019958E0,-3.645519104E0,-9.395511932E0,1.118025055E0,1.013979458E1
3.632958958E0,-4.140390015E0,-9.586215363E0,6.471043396E-1,1.046217465E1
3.642897958E0,-4.531526642E0,-9.695637817E0,3.802093506E-1,1.070909359E1
3.652836958E0,-5.103786621E0,-9.714049530E0,1.523831177E-1,1.097427067E1
3.662774958E0,-5.875132599E0,-9.716743927E0,-2.260299683E-1,1.135708524E1
3.672713958E0,-6.596482544E0,-9.696835327E0,-4.806504822E-1,1.173768385E1
3.682652958E0,-7.169191589E0,-9.592202911E0,-2.151026917E-1,1.197722563E1
3.692591958E0,-7.484735413E0,-9.475894775E0,3.240760803E-1,1.207968838E1
3.702530958E0,-7.375163269E0,-9.544901276E0,6.358776855E-1,1.207901130E1
3.712469958E0,-6.954238586E0,-9.774523773E0,9.020242310E-1,1.202981284E1
3.722407958E0,-6.495742035E0,-1.010443771E1,1.129102020E0,1.206520607E1
3.732346958E0,-6.129453735E0,-1.049452652E1,1.670825500E0,1.226771975E1
3.742285958E0,-5.830525360E0,-1.077085190E1,2.919379120E0,1.259083202E1
3.752224958E0,-5.814209290E0,-1.096035782E1,4.080514526E0,1.306082203E1
3.762163958E0,-6.166576538E0,-1.109941864E1,4.323010254E0,1.341313453E1
3.772102958E0,-6.316265259E0,-1.087443649E1,3.884422302E0,1.316196461E1
3.782040958E0,-6.225553894E0,-1.028855484E1,2.915786591E0,1.237391181E1
3.791979958E0,-5.931265869E0,-9.623637543E0,1.978136444E0,1.147638175E1
3.801918958E0,-5.376818848E0,-9.243577881E0,1.653012543E0,1.082064524E1
3.811857958E0,-4.643044739E0,-9.412726135E0,1.839075623E0,1.065549046E1
3.821796958E0,-3.949836273E0,-1.009246262E1,1.820514221E0,1.098968973E1
3.831735958E0,-3.476221161E0,-1.089838669E1,8.729846191E-1,1.147262168E1
3.841674958E0,-3.423530731E0,-1.140598114E1,-1.097218323E0,1.195913276E1
3.851612958E0,-3.582051086E0,-1.147588577E1,-2.560126190E0,1.229151294E1
3.861551958E0,-3.518134003E0,-1.173709259E1,-2.803819427E0,1.256972604E1
3.871490958E0,-3.652105408E0,-1.250664230E1,-2.203567657E0,1.321399584E1
3.881429958E0,-4.089046783E0,-1.344354401E1,-1.140478363E0,1.409786757E1
3.891368958E0,-4.508923645E0,-1.413510590E1,-2.023791504E-1,1.483821312E1
3.901307958E0,-4.729564819E0,-1.421608749E1,1.178050232E-1,1.498265013E1
3.911245958E0,-4.922064514E0,-1.371463028E1,3.061134338E-1,1.457434418E1
3.921184958E0,-4.839885406E0,-1.263327896E1,6.560856628E-1,1.354454416E1
3.931123958E0,-4.608167267E0,-1.134610565E1,1.164129181E0,1.230140300E1
3.941062958E0,-4.071682892E0,-1.007599686E1,1.289568329E0,1.094382477E1
3.951001958E0,-3.394790497E0,-9.033414917E0,6.227050781E-1,9.670312776E0
3.960940958E0,-3.008743286E0,-8.453820190E0,-3.194357300E-1,8.978956017E0
3.970878958E0,-2.723885651E0,-8.349487152E0,-6.614744568E-1,8.807442148E0
3.980817958E0,-2.696941681E0,-8.412356415E0,-3.861968994E-1,8.842532608E0
3.990756958E0,-2.669997711E0,-8.417745209E0,-1.155596924E-1,8.831799150E0
4.000695958E0,-2.422861633E0,-8.366252289E0,-1.784289551E-1,8.711846690E0
4.010634958E0,-2.216141510E0,-8.328081665E0,-2.655477905E-1,8.621991826E0
4.020573958E0,-2.369422760E0,-8.208031311E0,-8.023315430E-2,8.543557782E0
4.030511958E0,-2.317331085E0,-8.051007843E0,2.227368164E-1,8.380833034E0
4.040450958E0,-2.057471466E0,-7.922125854E0,4.749623108E-1,8.198710636E0
4.050389958E0,-1.685195618E0,-7.788304138E0,5.161267090E-1,7.985233397E0
4.060328958E0,-1.067430267E0,-7.500303040E0,3.743714905E-1,7.585124064E0
4.070267958E0,-4.848417664E-1,-7.235803070E0,1.646575928E-3,7.252028704E0
4.080206958E0,-1.942959595E-1,-7.070097656E0,-3.838018799E-1,7.083172712E0
4.090144958E0,9.340576172E-2,-6.917714539E0,-6.014492798E-1,6.944439525E0
4.100083958E0,5.384303284E-1,-6.699169006E0,-7.490423584E-1,6.762383977E0
4.110022958E0,1.120120697E0,-6.439758453E0,-6.435118103E-1,6.568048931E0
4.119961958E0,1.688788147E0,-6.174659729E0,-3.430865479E-1,6.410626846E0
4.129900958E0,2.150727539E0,-5.941444702E0,1.182540894E-2,6.318744649E0
4.139839958E0,2.666255493E0,-5.688171387E0,3.927832031E-1,6.294322102E0
4.149777958E0,3.195554810E0,-5.434748383E0,9.047186279E-1,6.369189612E0
4.159716958E0,3.452121277E0,-5.301226044E0,1.579216003E0,6.520280827E0
4.169655958E0,2.987487488E0,-5.378764801E0,2.690205688E0,6.715161869E0
4.179594958E0,1.065783691E0,-5.500461731E0,3.902534637E0,6.827938981E0
4.189533958E0,-1.807640991E0,-5.719007263E0,5.264402618E0,7.980510319E0
4.199472958E0,-5.173092499E0,-6.366860046E0,7.325915680E0,1.099849232E1
4.209410958E0,-8.991801453E0,-7.556735687E0,9.739047546E0,1.525797479E1
4.219349958E0,-1.264315842E1,-9.107810211E0,1.073702225E1,1.892314214E1
4.229288958E0,-1.479673004E1,-1.037687119E1,9.844278717E0,2.057990522E1
4.239227958E0,-1.553574326E1,-1.079465240E1,9.104217682E0,2.099453783E1
4.249166958E0,-1.584095856E1,-1.032088760E1,8.915759583E0,2.090328821E1
4.259105958E0,-1.591924576E1,-9.320068817E0,8.728648682E0,2.040772834E1
4.269043958E0,-1.475167374E1,-8.111033020E0,6.295308838E0,1.797308121E1
4.278982958E0,-1.151675079E1,-6.499933319E0,2.915187836E0,1.354189802E1
4.288921958E0,-7.942782898E0,-5.076692963E0,1.857637024E-1,9.428420852E0
4.298860958E0,-6.085744629E0,-4.570296021E0,-1.207538910E0,7.705974541E0
4.308799958E0,-4.877307587E0,-5.373376007E0,-2.222877502E0,7.589629991E0
4.318738958E0,-4.055067444E0,-7.771239624E0,-3.037034454E0,9.276816024E0
4.328677958E0,-2.832260284E0,-1.031490005E1,-3.045267334E0,1.112171365E1
4.338615958E0,-9.563612366E-1,-1.174547516E1,6.664141846E-1,1.180317421E1
4.348554958E0,-1.047821045E-2,-1.181328415E1,6.040838013E0,1.326821450E1
4.358493958E0,-2.280208282E0,-1.160656403E1,6.011948090E0,1.326857936E1
4.368432250E0,-5.633085938E0,-1.267040176E1,1.270108795E0,1.392422042E1
4.378371250E0,-7.672594757E0,-1.430889450E1,8.023315430E-2,1.623636688E1
4.388310250E0,-7.471263428E0,-1.452369781E1,4.757107544E-1,1.633964125E1
4.398248250E0,-4.211641846E0,-1.270602768E1,-1.692979431E0,1.349248849E1
4.408187250E0,-1.114731903E0,-1.013796799E1,-2.594105530E0,1.052380186E1
4.418126250E0,-3.382965088E-2,-7.934400330E0,-1.429976349E0,8.062300255E0
4.428065250E0,4.742138672E-1,-6.849905548E0,-1.895059204E-1,6.868915293E0
4.438004250E0,1.233584747E0,-6.439608765E0,9.566606140E-1,6.626121935E0
4.447943250E0,3.037184143E-1,-6.804100800E0,-5.545967102E-1,6.833418623E0
4.457881250E0,-1.096769257E0,-7.546257477E0,-2.513872375E0,8.029225307E0
4.467820250E0,-1.735341339E0,-8.427774353E0,-2.909499664E0,9.083170064E0
4.477759250E0,-2.328557739E0,-9.421408081E0,-3.204236755E0,1.022018809E1
4.487698250E0,-2.561323700E0,-1.012883698E1,-3.422183533E0,1.099386455E1
4.497637250E0,-2.616858215E0,-1.032328262E1,-3.267106018E0,1.113966305E1
4.507576250E0,-2.596051483E0,-9.928553467E0,-2.847528534E0,1.065007399E1
4.517514250E0,-2.672093353E0,-9.465416565E0,-2.514620819E0,1.015172456E1
4.527453250E0,-2.784359894E0,-9.242829437E0,-2.262994080E0,9.914822148E0
4.537392250E0,-2.951113129E0,-9.259145508E0,-1.909429321E0,9.903876239E0
4.547331250E0,-3.245700531E0,-9.356892242E0,-1.301693115E0,9.989014433E0
4.557270250E0,-3.557801514E0,-9.384285278E0,3.671415253E0,1.068653600E1
4.567209250E0,-3.463198242E0,-9.521849213E0,5.187312927E0,1.138277514E1
4.577148250E0,-3.235222321E0,-9.595496063E0,2.824626160E-1,1.013015268E1
4.587086250E0,-3.014581146E0,-9.541458435E0,-8.419990540E-1,1.004171753E1
4.597025250E0,-2.878963165E0,-9.248068542E0,-7.191046143E-1,9.712482284E0
4.606964250E0,-2.708916779E0,-8.862171021E0,-3.155438232E-1,9.272317575E0
4.616903250E0,-2.544408875E0,-8.620872803E0,2.128573608E-1,8.991038464E0
4.626842250E0,-2.684218140E0,-8.532855835E0,2.399510193E-1,8.948308902E0
4.636781250E0,-3.094963989E0,-8.537496185E0,-2.418969727E-1,9.084390863E0
4.646719250E0,-3.463647308E0,-8.494685211E0,-7.081773376E-1,9.200980636E0
4.656658250E0,-3.679797821E0,-8.355474701E0,-9.292675781E-1,9.177058772E0
4.666597250E0,-3.883374481E0,-8.237220612E0,-9.779164124E-1,9.159078626E0
4.676536250E0,-4.112398224E0,-8.274193726E0,-7.258406067E-1,9.268276299E0
4.686475250E0,-4.356390839E0,-8.235574036E0,2.065704346E-2,9.316826045E0
4.696414250E0,-4.738097076E0,-8.161777496E0,5.385800171E-1,9.452737394E0
4.706352250E0,-5.031636658E0,-8.223000183E0,5.366340637E-1,9.655209764E0
4.716291250E0,-4.908742218E0,-8.165819092E0,-1.451980591E-2,9.527673506E0
4.726230250E0,-4.556973724E0,-8.181386719E0,3.921844482E-2,9.364968567E0
4.736169250E0,-4.226461029E0,-8.443641357E0,8.970845032E-1,9.484872841E0
4.746108250E0,-3.854783936E0,-8.753946075E0,1.351689148E0,9.660123945E0
4.756047250E0,-3.488944702E0,-9.054670715E0,1.493444366E0,9.817849712E0
4.765985250E0,-3.161575470E0,-9.176966400E0,1.758543091E0,9.864316781E0
4.775924250E0,-3.190764771E0,-9.120084686E0,1.894161072E0,9.846053558E0
4.785863250E0,-3.634591827E0,-9.192384338E0,1.487307129E0,9.996112748E0
4.795802250E0,-4.220623169E0,-9.395511932E0,4.376898193E-1,1.030926170E1
4.805741250E0,-4.830904083E0,-9.613009644E0,-6.846762085E-1,1.078036967E1
4.815680250E0,-5.443130951E0,-9.732161865E0,-1.342857513E0,1.123146987E1
4.825619250E0,-6.072272644E0,-9.760003967E0,-1.510808258E0,1.159364973E1
4.835557250E0,-6.572232971E0,-9.713750153E0,-1.444196777E0,1.181680552E1
4.845496250E0,-6.842421112E0,-9.526190186E0,-1.331032104E0,1.180418030E1
4.855435250E0,-6.867269440E0,-9.211394806E0,-1.024020538E0,1.153506835E1
4.865374250E0,-6.537954254E0,-8.892707520E0,-3.936813354E-1,1.104445915E1
4.875313250E0,-5.913752289E0,-8.898395691E0,2.517764282E-1,1.068724957E1
4.885252250E0,-5.249134369E0,-9.191486206E0,9.484277344E-1,1.062715133E1
4.895190250E0,-4.678071899E0,-9.692344666E0,1.788331146E0,1.090981348E1
4.905129250E0,-4.320315857E0,-1.040261765E1,2.730172577E0,1.159022973E1
4.915068250E0,-4.187541962E0,-1.121018829E1,3.623365173E0,1.250330374E1
4.925007250E0,-4.217779083E0,-1.187031555E1,4.698429565E0,1.344504712E1
4.934946250E0,-4.433181152E0,-1.209335175E1,5.801934814E0,1.412673703E1
4.944885250E0,-5.400319977E0,-1.175355835E1,4.270020447E0,1.362140464E1
4.954823250E0,-6.319109344E0,-1.087129303E1,1.336869965E0,1.264529068E1
4.964762250E0,-6.907685394E0,-9.887688446E0,2.975811768E-1,1.206528304E1
4.974701250E0,-7.450606384E0,-9.210197296E0,1.152154083E0,1.190238332E1
4.984640250E0,-7.770341492E0,-9.020391998E0,1.745220795E0,1.203293291E1
4.994579250E0,-7.398365021E0,-9.069489899E0,1.209335175E0,1.176664538E1
5.004518250E0,-6.516099701E0,-9.378297729E0,4.029620361E-1,1.142691568E1
5.014457250E0,-5.484744415E0,-1.011356873E1,-4.468208313E-1,1.151374581E1
5.024395250E0,-4.631518707E0,-1.107756409E1,-1.398392029E0,1.208796475E1
5.034334250E0,-3.971241760E0,-1.193123886E1,-2.066602478E0,1.274347157E1
5.044273250E0,-3.618126068E0,-1.251831802E1,-2.101330261E0,1.319904206E1
5.054212250E0,-3.673211517E0,-1.298863998E1,-1.586999817E0,1.359101983E1
5.064151250E0,-4.163442078E0,-1.341495346E1,-6.855743408E-1,1.406290292E1
5.074090250E0,-4.653223572E0,-1.337857910E1,-1.002914429E-2,1.416470857E1
5.084028250E0,-4.896467743E0,-1.281245636E1,4.149371338E-1,1.372248546E1
5.093967250E0,-5.256618805E0,-1.199485657E1,6.030958557E-1,1.311000953E1
5.103906250E0,-5.347479858E0,-1.105376358E1,4.367916870E-1,1.228706707E1
5.113845250E0,-5.117557983E0,-1.013856674E1,4.758604431E-1,1.136689837E1
5.123784250E0,-4.503085785E0,-9.466614075E0,5.155279541E-1,1.049572926E1
5.133723250E0,-3.835174713E0,-8.898545380E0,-4.610412598E-2,9.689932948E0
5.143662250E0,-3.368744659E0,-8.674012299E0,-6.634204102E-1,9.328829325E0
5.153600250E0,-3.004102936E0,-8.568332062E0,-7.773335266E-1,9.112913704E0
5.163539250E0,-2.718945923E0,-8.281678162E0,-5.749543762E-1,8.735527038E0
5.173478250E0,-2.587818604E0,-7.909701691E0,-6.813830566E-1,8.350117893E0
5.183417250E0,-2.422711945E0,-7.521409149E0,-6.497987366E-1,7.928642201E0
5.193356250E0,-2.455793152E0,-7.129524078E0,-4.902305603E-1,7.556544157E0
5.203295250E0,-2.192640381E0,-6.881639557E0,-3.225791931E-1,7.229708996E0
5.213233250E0,-1.767973480E0,-6.804250488E0,-3.137475586E-1,7.037186403E0
5.223172250E0,-1.409918060E0,-6.823710022E0,-3.616479492E-1,6.977225569E0
5.233111250E0,-1.085991669E0,-6.958280182E0,-5.275030518E-1,7.062244718E0
5.243050250E0,-9.382489014E-1,-7.117399292E0,-9.183403015E-1,7.237474186E0
5.252989250E0,-9.726773071E-1,-7.249574432E0,-1.371448059E0,7.441995725E0
5.262928250E0,-7.714956665E-1,-7.227420502E0,-1.497635651E0,7.421167375E0
5.272866250E0,-2.347119141E-1,-7.102729797E0,-1.355431366E0,7.234711773E0
5.282805250E0,4.867877197E-1,-6.986571350E0,-1.136287079E0,7.095089135E0
5.292744250E0,1.185983734E0,-6.916517029E0,-8.220904541E-1,7.065451008E0
5.302683250E0,1.887425079E0,-6.809788971E0,-3.415896606E-1,7.074763795E0
5.312622250E0,2.575544128E0,-6.662794647E0,2.887495422E-1,7.149100389E0
5.322561250E0,3.037483521E0,-6.553222504E0,8.080197144E-1,7.268007098E0
5.332499250E0,3.221301270E0,-6.526577911E0,1.294657745E0,7.392505650E0
5.342438250E0,2.993175659E0,-6.549480286E0,1.932631073E0,7.455860474E0
5.352377250E0,1.896406403E0,-6.606811066E0,2.657124481E0,7.369302559E0
5.362316583E0,-2.031275940E-1,-6.759493561E0,3.539389801E0,7.632777619E0
5.372255583E0,-2.780767365E0,-7.280260620E0,4.245621185E0,8.874692168E0
5.382194583E0,-5.813909912E0,-8.327782288E0,5.594466248E0,1.159532487E1
5.392133583E0,-9.744735718E0,-9.757159882E0,9.091045074E0,1.651693506E1
5.402071583E0,-1.375414810E1,-1.095945969E1,1.173769135E1,2.114378738E1
5.412010583E0,-1.540326874E1,-1.129131958E1,1.041399399E1,2.175329530E1
5.421949583E0,-1.545161819E1,-1.093476105E1,7.656428375E0,2.041916745E1
5.431888583E0,-1.576476700E1,-9.661957855E0,5.882766724E0,1.940330519E1
5.441827583E0,-1.563363968E1,-7.717950439E0,5.168901215E0,1.818502099E1
5.451766583E0,-1.411325134E1,-5.753136292E0,3.210224304E0,1.557523614E1
5.461704583E0,-1.211041626E1,-4.280798035E0,1.048719177E0,1.288748330E1
5.471643583E0,-1.049737061E1,-3.314856720E0,4.086502075E-2,1.100839383E1
5.481582583E0,-9.157207489E0,-3.805087280E0,-4.201762390E-1,9.925204596E0
5.491521583E0,-7.994126129E0,-6.232888641E0,-1.750759277E0,1.028689027E1
5.501460583E0,-6.913074188E0,-9.571545868E0,-3.367547150E0,1.227784423E1
5.511399583E0,-5.915398865E0,-1.220501953E1,-3.512595520E0,1.401045227E1
5.521338583E0,-4.517455902E0,-1.322963882E1,-4.200265503E-1,1.398596345E1
5.531276583E0,-3.320844269E0,-1.282293457E1,6.531817017E0,1.476889607E1
5.541215583E0,-3.285068665E0,-1.288535477E1,8.207731934E0,1.562660894E1
5.551154583E0,-2.940036163E0,-1.373618546E1,2.569406891E0,1.428035207E1
5.561093583E0,-1.887724457E0,-1.331017136E1,-2.399659882E0,1.365586075E1
5.571032583E0,-1.073717194E0,-1.118758530E1,-3.670068054E0,1.182304246E1
5.580971583E0,-3.432362366E-1,-9.402996368E0,-2.162552948E0,9.654573376E0
5.590909583E0,8.232879639E-2,-8.412057037E0,-7.158114624E-1,8.442858975E0
5.600848583E0,5.297483826E-1,-7.639663239E0,-1.950444031E-1,7.660491503E0
5.610787583E0,8.608598328E-1,-7.207362213E0,-4.903802490E-1,7.275137285E0
5.620726583E0,5.803431702E-1,-7.333549805E0,-1.227148132E0,7.458126003E0
5.630665583E0,3.709286499E-1,-7.806865540E0,-2.112856293E0,8.096227475E0
5.640604583E0,4.370910645E-1,-8.551866302E0,-2.719993744E0,8.984644223E0
5.650542583E0,3.475772095E-1,-9.486822052E0,-2.985541534E0,9.951585844E0
5.660481583E0,-3.318598938E-1,-1.023975632E1,-3.287313995E0,1.075960844E1
5.670420583E0,-1.408421173E0,-1.069166656E1,-3.588637390E0,1.136546094E1
5.680359583E0,-1.882335663E0,-1.062295944E1,-3.615731049E0,1.137822332E1
5.690298583E0,-1.556014252E0,-9.960287476E0,-3.370091858E0,1.062948851E1
5.700237583E0,-1.059347076E0,-9.320667572E0,-3.236868896E0,9.923425843E0
5.710176583E0,-9.376501465E-1,-9.044940948E0,-2.938389587E0,9.556373681E0
5.720114583E0,-1.169967041E0,-9.144933014E0,-2.580932922E0,9.573914427E0
5.730053583E0,-1.616039429E0,-9.403445435E0,-2.193239136E0,9.790131122E0
5.739992583E0,-2.109563141E0,-9.620494080E0,-1.785337372E0,1.000957504E1
5.749931583E0,-2.592159576E0,-9.770482178E0,-7.141648865E-1,1.013368860E1
5.759870583E0,-3.825894012E0,-9.860445099E0,6.219266968E0,1.226968313E1
5.769809583E0,-4.274361420E0,-9.535021820E0,6.049819336E0,1.207423375E1
5.779747583E0,-3.785178680E0,-8.930728455E0,2.076332245E0,9.919508252E0
5.789686583E0,-3.248843994E0,-8.646918640E0,-4.337979126E-1,9.247289868E0
5.799625583E0,-2.902164917E0,-8.510402527E0,-1.722168732E0,9.155073867E0
5.809564583E0,-2.840642853E0,-8.290360107E0,-1.780098267E0,8.942486923E0
5.819503583E0,-3.172652435E0,-8.115224304E0,-1.192719727E0,8.794610243E0
5.829442583E0,-3.709436188E0,-7.776329041E0,-4.975653076E-1,8.630109004E0
5.839381583E0,-4.295018463E0,-7.613018646E0,1.633103943E-1,8.742534346E0
5.849319583E0,-4.783752136E0,-7.820337524E0,3.189866638E-1,9.172988389E0
5.859258583E0,-5.163063354E0,-8.254734192E0,-1.975891113E-2,9.736439298E0
5.869197583E0,-5.404660950E0,-8.698411560E0,-3.022215271E-1,1.024519700E1
5.879136583E0,-5.502856750E0,-8.952433319E0,-2.646496582E-1,1.051178073E1
5.889075583E0,-5.365891571E0,-8.789721680E0,1.272354126E-2,1.029816301E1
5.899014583E0,-4.869224396E0,-8.403674469E0,2.839595032E-1,9.716569549E0
5.908952583E0,-4.371958466E0,-8.297395477E0,3.927832031E-1,9.386962830E0
5.918891583E0,-4.041445770E0,-8.660690002E0,5.424719238E-1,9.572622996E0
5.928830583E0,-3.721560974E0,-9.152417450E0,8.325686646E-1,9.915136502E0
5.938769583E0,-3.284320221E0,-9.426946564E0,1.448986816E0,1.008730111E1
5.948708583E0,-2.776875458E0,-9.467212830E0,2.219734039E0,1.011268388E1
5.958647583E0,-2.398162994E0,-9.528285828E0,2.573298798E0,1.015683431E1
5.968586583E0,-2.342179413E0,-9.593101044E0,2.181264038E0,1.011292761E1
5.978524583E0,-2.915038147E0,-9.547146606E0,8.544232178E-1,1.001875715E1
5.988463583E0,-3.948638763E0,-9.447154541E0,-6.942562866E-1,1.026267357E1
5.998402583E0,-5.046605530E0,-9.244925079E0,-1.601070557E0,1.065365168E1
6.008341583E0,-6.072572021E0,-9.114845581E0,-1.875300293E0,1.111185368E1
6.018280583E0,-6.780899048E0,-8.980874176E0,-1.400787048E0,1.134014538E1
6.028219583E0,-7.383695526E0,-8.892707520E0,-2.883004761E-1,1.156210724E1
6.038157583E0,-7.735014954E0,-8.942553864E0,3.814068604E-1,1.182984350E1
6.048096583E0,-7.649692383E0,-9.038204956E0,1.992356873E-1,1.184257731E1
6.058035583E0,-7.204817505E0,-9.247918854E0,5.867797852E-2,1.172334600E1
6.067974583E0,-6.701114960E0,-9.785600739E0,5.249583435E-1,1.187175239E1
6.077913583E0,-6.401288452E0,-1.054107971E1,1.495090942E0,1.242280774E1
6.087852583E0,-6.332880707E0,-1.126766876E1,2.806214447E0,1.322651038E1
6.097791583E0,-6.305787048E0,-1.188483536E1,4.511318665E0,1.419028745E1
6.107729583E0,-6.601422272E0,-1.223705292E1,5.772146759E0,1.505463113E1
6.117668583E0,-7.448959808E0,-1.219528976E1,5.953868866E0,1.548097701E1
6.127607583E0,-8.139174500E0,-1.170475983E1,5.746400299E0,1.537103381E1
6.137546583E0,-8.227341156E0,-1.048764084E1,2.883902893E0,1.363805883E1
6.147485583E0,-7.955506439E0,-8.882079620E0,6.047424316E-2,1.192413847E1
6.157424583E0,-7.815996552E0,-7.991880798E0,-5.538482666E-2,1.117868634E1
6.167362583E0,-7.405999146E0,-8.130642242E0,1.298699341E0,1.107442037E1
6.177301583E0,-6.258784790E0,-9.064101105E0,1.980980530E0,1.119172014E1
6.187240583E0,-5.098846893E0,-1.049273026E1,3.037184143E-1,1.166995599E1
6.197179583E0,-4.057761841E0,-1.171269333E1,-2.091151428E0,1.257082060E1
6.207118583E0,-3.344345398E0,-1.220995926E1,-3.560645599E0,1.315089154E1
6.217057583E0,-3.060984650E0,-1.263447647E1,-3.525019684E0,1.346942413E1
6.226995583E0,-3.092419281E0,-1.337453751E1,-2.295775909E0,1.391804216E1
6.236934583E0,-3.596421204E0,-1.412283142E1,-7.854167175E-1,1.459470768E1
6.246873583E0,-4.272565155E0,-1.452818848E1,6.273454285E-1,1.515640576E1
6.256812583E0,-4.531376953E0,-1.429392563E1,1.336420898E0,1.505442486E1
6.266751583E0,-4.496649170E0,-1.366179016E1,8.208929443E-1,1.440618719E1
6.276690583E0,-4.669090576E0,-1.263462616E1,3.457809448E-2,1.346979512E1
6.286629583E0,-4.434528351E0,-1.133023865E1,-8.479866028E-1,1.219665654E1
6.296567583E0,-4.001329193E0,-1.015742752E1,-1.169967041E0,1.097965355E1
6.306506583E0,-3.759282532E0,-9.371711426E0,-6.730004883E-1,1.011998566E1
6.316445583E0,-3.255430298E0,-8.591384125E0,-1.282832336E-1,9.188371139E0
6.326384583E0,-2.745141449E0,-8.051905975E0,-9.205856323E-2,8.507494707E0
6.336323583E0,-2.143692169E0,-7.635022888E0,-2.043251038E-1,7.932889724E0
6.346262583E0,-1.691781921E0,-7.369475098E0,-4.321513367E-1,7.573509362E0
6.356200583E0,-1.703906708E0,-7.265591125E0,-1.165476379E0,7.553174674E0
6.366139083E0,-1.816023560E0,-7.207661591E0,-1.430275726E0,7.569281064E0
6.376078083E0,-1.711989899E0,-7.077432404E0,-6.894662476E-1,7.314118029E0
6.386017083E0,-1.647474060E0,-6.949897614E0,-1.080752563E-1,7.143313508E0
6.395956083E0,-1.522783356E0,-6.803801422E0,1.535806274E-1,6.973820327E0
6.405895083E0,-1.294807434E0,-6.653663635E0,4.505630493E-2,6.778627895E0
6.415834083E0,-9.855505371E-1,-6.499633942E0,-4.107458496E-1,6.586749076E0
6.425772083E0,-4.120930481E-1,-6.436614990E0,-9.704319763E-1,6.522390009E0
6.435711083E0,2.106120300E-1,-6.413712616E0,-1.441352692E0,6.577048314E0
6.445650083E0,7.674540710E-1,-6.273454285E0,-1.491648102E0,6.493860829E0
6.455589083E0,1.535806274E0,-6.108647003E0,-1.273701324E0,6.426241840E0
6.465528083E0,2.444416809E0,-5.951623535E0,-8.488847351E-1,6.489807511E0
6.475467083E0,3.331621857E0,-5.819448395E0,-5.318440247E-1,6.726703642E0
6.485406083E0,3.913910980E0,-5.704337769E0,-1.721420288E-2,6.917981271E0
6.495344083E0,4.023183746E0,-5.661526794E0,7.402107239E-1,6.984755187E0
6.505283083E0,3.961961060E0,-5.731281738E0,1.545835419E0,7.136829334E0
6.515222083E0,3.726201324E0,-5.870641937E0,2.489772491E0,7.385660439E0
6.525161083E0,2.063309326E0,-6.021228790E0,3.760330353E0,7.392734669E0
6.535100083E0,-1.379231873E0,-6.180796967E0,4.947810974E0,8.036502046E0
6.545039083E0,-5.002297668E0,-7.117848358E0,6.135590973E0,1.064576084E1
6.554977083E0,-9.120234375E0,-8.833879852E0,8.552614746E0,1.530892966E1
6.564916083E0,-1.447983902E1,-1.086410797E1,1.299792068E1,2.228543296E1
6.574855083E0,-1.864567612E1,-1.267638931E1,1.619751709E1,2.776169382E1
6.584794083E0,-1.849449051E1,-1.354323669E1,1.244197678E1,2.608195210E1
6.594733083E0,-1.691392731E1,-1.298310150E1,7.263944550E0,2.252569093E1
6.604672083E0,-1.618688919E1,-1.167796555E1,6.334676971E0,2.094083077E1
6.614611083E0,-1.389111328E1,-9.776170349E0,4.155658264E0,1.748731056E1
6.624549083E0,-1.045755341E1,-7.032974854E0,1.653162231E0,1.271047221E1
6.634488083E0,-7.767647095E0,-5.044659576E0,2.639012146E-1,9.265774413E0
6.644427083E0,-6.765331421E0,-5.124743042E0,1.648072815E-1,8.488808039E0
6.654366083E0,-6.367458801E0,-7.368427277E0,1.121168518E-1,9.739138684E0
6.664305083E0,-5.709726562E0,-1.055859329E1,-3.626957703E-1,1.200901403E1
6.674244083E0,-5.259313202E0,-1.243554016E1,-7.756869507E-1,1.352422732E1
6.684182083E0,-4.603526917E0,-1.210951813E1,-2.436483307E0,1.318215992E1
6.694121083E0,-3.534899139E0,-1.090617050E1,-1.971250763E0,1.163296594E1
6.704060083E0,-2.404150543E0,-1.053314621E1,-7.063810730E-1,1.082709948E1
6.713999083E0,-9.749226379E-1,-1.060769119E1,5.601351929E-1,1.066711479E1
6.723938083E0,4.704716492E-1,-9.838141479E0,1.649569702E-1,9.850765561E0
6.733877083E0,1.359622650E0,-8.693771210E0,-4.138893127E-1,8.809173398E0
6.743816083E0,1.269659729E0,-8.059091034E0,-3.173400879E-1,8.164660976E0
6.753754083E0,9.807604980E-1,-7.959098969E0,9.774673462E-2,8.019894137E0
6.763693083E0,8.616082764E-1,-8.272397461E0,-1.480421448E-1,8.318464104E0
6.773632083E0,1.287322998E-1,-8.994346161E0,-1.685644684E0,9.151843140E0
6.783571083E0,-3.059637451E-1,-9.934990082E0,-2.565215607E0,1.026537738E1
6.793510083E0,-3.559597778E-1,-1.089823700E1,-2.720592499E0,1.123832286E1
6.803449083E0,-5.420228577E-1,-1.145777344E1,-2.799328766E0,1.180722670E1
6.813388083E0,-8.216413879E-1,-1.135718262E1,-2.908601532E0,1.175247440E1
6.823326083E0,-1.541494446E0,-1.066921326E1,-2.795436859E0,1.113655171E1
6.833265083E0,-2.101030884E0,-9.836345215E0,-2.595003662E0,1.038759173E1
6.843204083E0,-2.032623138E0,-8.888815613E0,-2.308499451E0,9.405943309E0
6.853143083E0,-1.980531464E0,-8.138725433E0,-2.021546173E0,8.616728236E0
6.863082083E0,-2.018702087E0,-7.881560211E0,-1.857786713E0,8.345389203E0
6.873021083E0,-2.090702362E0,-8.053552551E0,-1.768272858E0,8.506323175E0
6.882959083E0,-2.418221283E0,-8.635392609E0,-1.663640442E0,9.120608488E0
6.892898083E0,-3.171454926E0,-9.397457886E0,-1.158441010E0,9.985605972E0
6.902837083E0,-5.105433197E0,-9.995913391E0,4.290078735E0,1.201617694E1
6.912776083E0,-6.249504089E0,-9.974807281E0,5.462291107E0,1.297650592E1
6.922715083E0,-5.337001648E0,-9.436975708E0,4.116439819E-1,1.084940311E1
6.932654083E0,-4.245770874E0,-9.023535461E0,-1.495090942E0,1.008395059E1
6.942593083E0,-3.491788788E0,-8.544980621E0,-1.631157990E0,9.373897756E0
6.952531083E0,-3.098257141E0,-7.942782898E0,-9.752220154E-1,8.581261880E0
6.962470083E0,-2.969375153E0,-7.629783783E0,1.407073975E-1,8.188442339E0
6.972409083E0,-3.143912201E0,-7.731572113E0,7.688012695E-1,8.381673261E0
6.982348083E0,-3.419638824E0,-7.999963989E0,3.035687256E-1,8.705487206E0
6.992287083E0,-3.472928009E0,-8.217312012E0,-5.535488892E-1,8.938224769E0
7.002226083E0,-3.607498169E0,-8.510552216E0,-1.085841980E0,9.307126026E0
7.012164083E0,-3.877386932E0,-8.697214050E0,-1.119072876E0,9.587908310E0
7.022103083E0,-4.077371063E0,-8.547225952E0,-6.176156616E-1,9.490072464E0
7.032042083E0,-4.296066284E0,-8.408464508E0,1.592687988E-1,9.443718942E0
7.041981083E0,-4.293521576E0,-8.320746918E0,6.149212646E-1,9.383351478E0
7.051920083E0,-4.094585266E0,-8.588989105E0,5.316943359E-1,9.529903526E0
7.061859083E0,-3.763922882E0,-9.168583832E0,4.656816101E-1,9.922041338E0
7.071798083E0,-3.471580811E0,-9.721084900E0,5.066963196E-1,1.033480073E1
7.081736083E0,-3.256927185E0,-9.846673737E0,7.758366394E-1,1.040031157E1
7.091675083E0,-3.064726868E0,-9.410480804E0,1.338965607E0,9.987118135E0
7.101614083E0,-3.127147064E0,-8.823701019E0,2.011067963E0,9.575027039E0
7.111553083E0,-3.665427704E0,-8.487051086E0,2.290836182E0,9.524354404E0
7.121492083E0,-4.616100769E0,-8.476123810E0,1.795067139E0,9.817093622E0
7.131431083E0,-5.828579407E0,-8.892557831E0,5.216651917E-1,1.064528333E1
7.141370083E0,-6.851552124E0,-9.555678864E0,-9.074130249E-1,1.179314053E1
7.151308083E0,-7.353159027E0,-9.946216736E0,-1.574276276E0,1.246894225E1
7.161247083E0,-7.753576355E0,-9.784852295E0,-9.228309631E-1,1.251850222E1
7.171186083E0,-8.150700531E0,-9.419761505E0,3.534150696E-1,1.246157005E1
7.181125083E0,-8.265511780E0,-9.031169586E0,1.402733002E0,1.232267702E1
7.191064083E0,-8.053702240E0,-8.903784485E0,1.800904999E0,1.214013001E1
7.201003083E0,-7.594008179E0,-9.106013947E0,1.963766327E0,1.201852023E1
7.210941083E0,-7.089557190E0,-9.492959290E0,2.514022064E0,1.211191166E1
7.220880083E0,-6.743177490E0,-1.011790970E1,3.439547424E0,1.263617924E1
7.230819083E0,-6.733148346E0,-1.084195404E1,4.076023865E0,1.339765743E1
7.240758083E0,-7.091353455E0,-1.148247208E1,4.502187653E0,1.422688133E1
7.250697083E0,-7.750582581E0,-1.154204819E1,5.327421570E0,1.488864760E1
7.260636083E0,-8.196205902E0,-1.062460602E1,5.516927490E0,1.450849865E1
7.270575083E0,-8.269852753E0,-9.004524994E0,2.508333893E0,1.248053179E1
7.280513083E0,-8.210276642E0,-7.855514374E0,-2.986289978E-1,1.136692253E1
7.290452083E0,-8.405620422E0,-7.349566498E0,1.736089783E0,1.129976062E1
7.300391083E0,-8.612639923E0,-8.166268158E0,3.698658600E0,1.243163616E1
7.310330083E0,-8.047265625E0,-1.016146912E1,1.339414673E0,1.303103873E1
7.320269083E0,-6.731950836E0,-1.170371201E1,-2.247875519E0,1.368754840E1
7.330208083E0,-5.465135193E0,-1.292756699E1,-4.311184845E0,1.468250679E1
7.340147083E0,-4.634961548E0,-1.395637756E1,-4.479434967E0,1.537298542E1
7.350085083E0,-4.215533752E0,-1.508877274E1,-3.135230255E0,1.597721679E1
7.360024083E0,-4.202061768E0,-1.623254425E1,-1.260678406E0,1.681493758E1
7.369963458E0,-4.253854065E0,-1.696422272E1,3.427871704E-1,1.749278794E1
7.379902458E0,-4.027075653E0,-1.701915848E1,1.290017395E0,1.753662563E1
7.389841458E0,-3.387605438E0,-1.635528900E1,1.406325531E0,1.676153634E1
7.399780458E0,-2.733465729E0,-1.481424362E1,6.782395935E-1,1.507957751E1
7.409719458E0,-2.814447327E0,-1.288176224E1,-2.395019531E-2,1.318565454E1
7.419657458E0,-2.715952148E0,-1.114432526E1,-5.689668274E-1,1.148460294E1
7.429596458E0,-2.375410309E0,-9.456135864E0,-7.713459778E-1,9.780391313E0
7.439535458E0,-2.427202606E0,-8.279133453E0,-2.278262329E-1,8.630600676E0
7.449474458E0,-2.316432953E0,-7.585026855E0,-2.658471680E-1,7.935311509E0
7.459413458E0,-2.072440338E0,-7.235653381E0,-3.396437073E-1,7.534258202E0
7.469352458E0,-1.761686554E0,-7.098089447E0,-4.261637878E-1,7.325846633E0
7.479290458E0,-1.795067139E0,-7.042255554E0,-6.997947693E-1,7.301050749E0
7.489229458E0,-2.025887146E0,-6.941515045E0,-9.795629883E-1,7.297149683E0
7.499168458E0,-2.061213684E0,-6.812633057E0,-7.592211914E-1,7.158001665E0
7.509107458E0,-2.013912048E0,-6.546636200E0,-5.525010681E-1,6.871647888E0
7.519046458E0,-1.850901031E0,-6.104605408E0,-3.100053406E-1,6.386559725E0
7.528985458E0,-1.760788422E0,-5.638325043E0,-1.351689148E-1,5.908413983E0
7.538924458E0,-1.505419464E0,-5.204377441E0,-1.945953369E-1,5.421226767E0
7.548862458E0,-1.046922913E0,-5.187761993E0,-5.839356995E-1,5.324462695E0
7.558801458E0,-5.734574890E-1,-5.472769318E0,-1.287622375E0,5.651374070E0
7.568740458E0,-1.076261902E-1,-5.677094421E0,-1.920805664E0,5.994203772E0
7.578679458E0,5.870791626E-1,-5.843248901E0,-2.068698120E0,6.226373871E0
7.588618458E0,1.374292145E0,-6.065836029E0,-1.703307953E0,6.448589273E0
7.598557458E0,2.447410583E0,-6.119873657E0,-1.312620392E0,6.720538999E0
7.608496458E0,3.485202484E0,-6.025569763E0,-8.572673035E-1,7.013489471E0
7.618434458E0,3.814068604E0,-5.988896027E0,-4.212240601E-1,7.112764908E0
7.628373458E0,3.986659698E0,-5.981261902E0,1.600172424E-1,7.189892559E0
7.638312458E0,4.028123474E0,-6.114185486E0,1.255888367E0,7.428748109E0
7.648251458E0,3.616180115E0,-6.470145264E0,2.808759155E0,7.926453579E0
7.658190458E0,9.395960999E-1,-6.632108459E0,4.224814453E0,7.919391429E0
7.668129458E0,-2.806214447E0,-6.777905273E0,4.858895874E0,8.799074300E0
7.678068458E0,-6.697073364E0,-7.631580048E0,6.222260742E0,1.190833046E1
7.688006458E0,-1.152363647E1,-9.269773407E0,1.042851379E1,1.809631997E1
7.697945458E0,-1.760953079E1,-1.150193161E1,1.674956909E1,2.688750770E1
7.707884458E0,-2.017998550E1,-1.345881226E1,1.693548248E1,2.958347527E1
7.717823458E0,-1.821142914E1,-1.372316254E1,9.450896759E0,2.468401894E1
7.727762458E0,-1.710253510E1,-1.231743576E1,6.187682648E0,2.196595882E1
7.737701458E0,-1.569441330E1,-9.901759186E0,5.066514130E0,1.923613811E1
7.747639458E0,-1.304941360E1,-7.023694153E0,2.220482483E0,1.498499307E1
7.757578458E0,-1.044917084E1,-4.157753906E0,6.969506836E-1,1.126755648E1
7.767517458E0,-7.555238800E0,-2.209555206E0,4.626878357E-1,7.885293119E0
7.777456458E0,-5.314997406E0,-1.910177765E0,-1.362167358E-1,5.649471791E0
7.787395458E0,-3.666176147E0,-3.492237854E0,-2.157313843E0,5.503687472E0
7.797334458E0,-2.513123932E0,-6.889722748E0,-4.681514740E0,8.700612145E0
7.807273458E0,-2.051034851E0,-1.068657715E1,-5.092410278E0,1.201425476E1
7.817211458E0,-2.049388275E0,-1.361853012E1,-2.380200348E0,1.397604052E1
7.827150458E0,-3.139870605E0,-1.602088440E1,5.933810577E0,1.737059678E1
7.837089458E0,-6.259682922E0,-1.853325989E1,1.206116867E1,2.298123456E1
7.847028458E0,-6.967560883E0,-1.917063446E1,6.993906097E0,2.156327556E1
7.856967458E0,-4.384382629E0,-1.532827469E1,-1.206341400E0,1.598856077E1
7.866906458E0,-1.511706390E0,-1.048883835E1,-5.068160706E0,1.174679697E1
7.876845458E0,3.875440979E-1,-7.866890717E0,-3.180436249E0,8.494311903E0
7.886783458E0,1.689087524E0,-6.498735809E0,-5.876779175E-1,6.740322627E0
7.896722458E0,2.232008514E0,-5.924380188E0,-4.715194702E-2,6.331063570E0
7.906661458E0,1.186881866E0,-6.159391479E0,-1.438508606E0,6.435534086E0
7.916600458E0,-1.954934692E-1,-6.852450256E0,-2.418520660E0,7.269355845E0
7.926539458E0,-7.714956665E-1,-7.675289154E0,-2.731968842E0,8.183454216E0
7.936478458E0,-1.240171051E0,-8.711584167E0,-3.197949829E0,9.362510670E0
7.946417458E0,-1.756896515E0,-9.792636108E0,-3.594175873E0,1.057830362E1
7.956355458E0,-2.086960144E0,-1.047955765E1,-3.681594086E0,1.130179924E1
7.966294458E0,-2.308798828E0,-1.062565384E1,-3.529809723E0,1.143217513E1
7.976233458E0,-2.569257202E0,-1.035172348E1,-3.322939911E0,1.117144535E1
7.986172458E0,-2.484383698E0,-9.833650818E0,-3.113824768E0,1.060984239E1
7.996111458E0,-2.324216766E0,-9.488019562E0,-3.083737335E0,1.024372660E1
8.006050458E0,-2.235151978E0,-9.371861115E0,-2.972817993E0,1.008292279E1
8.015988458E0,-2.241438904E0,-9.436376953E0,-2.740650787E0,1.007871148E1
8.025927458E0,-2.506387939E0,-9.520502014E0,-2.383493500E0,1.012931293E1
8.035866458E0,-2.808908844E0,-9.560917969E0,-1.865271149E0,1.013806479E1
8.045805458E0,-3.052751770E0,-9.539811859E0,-8.969348145E-1,1.005643057E1
8.055744458E0,-3.062331848E0,-9.215286713E0,5.486690369E0,1.115361631E1
8.065683458E0,-2.579885101E0,-8.882528687E0,5.297184448E0,1.065904715E1
8.075622458E0,-2.441273346E0,-8.762178955E0,2.044298859E0,9.322808236E0
8.085560458E0,-2.581082611E0,-8.777596893E0,5.468128967E-1,9.165544120E0
8.095499458E0,-2.455194397E0,-8.476273499E0,2.492317200E-1,8.828210940E0
8.105438458E0,-2.277513885E0,-7.955356750E0,2.148033142E-1,8.277735861E0
8.115377458E0,-2.491419067E0,-7.647596741E0,5.703140259E-2,8.043392161E0
8.125316458E0,-3.099604340E0,-7.753875732E0,-1.724414062E-1,8.352237543E0
8.135255458E0,-3.725003815E0,-8.046966248E0,-2.339634705E-1,8.870403492E0
8.145194458E0,-4.356241150E0,-8.254883881E0,-2.495310974E-1,9.337141458E0
8.155132458E0,-4.867128754E0,-8.337062988E0,-3.242257690E-1,9.659227916E0
8.165071458E0,-5.280119934E0,-8.421038361E0,-3.050656128E-1,9.944175110E0
8.175010458E0,-5.723497925E0,-8.379424896E0,2.395019531E-3,1.014757093E1
8.184949458E0,-5.908812561E0,-8.324788513E0,4.402345276E-1,1.021811999E1
8.194888458E0,-5.965993652E0,-8.395142212E0,9.467811584E-1,1.034252810E1
8.204827458E0,-5.840704193E0,-8.526269531E0,1.367256775E0,1.042499346E1
8.214766458E0,-5.475463715E0,-8.637488251E0,1.582958221E0,1.034855849E1
8.224704458E0,-5.066364441E0,-8.718170471E0,2.005080414E0,1.028080213E1
8.234643458E0,-4.809199219E0,-8.671317902E0,2.668500824E0,1.026844915E1
8.244582458E0,-4.822820892E0,-8.569529572E0,2.819237366E0,1.022959128E1
8.254521458E0,-4.953499146E0,-8.656349030E0,1.958527222E0,1.016392450E1
8.264460458E0,-5.132227478E0,-9.040599976E0,4.685256958E-1,1.040633092E1
8.274399458E0,-5.428611145E0,-9.632618866E0,-8.927435303E-1,1.109297779E1
8.284338458E0,-5.734874268E0,-9.975106659E0,-1.270557861E0,1.157608971E1
8.294276458E0,-5.831872559E0,-9.844278717E0,-5.089416504E-1,1.145336556E1
8.304215458E0,-5.763913879E0,-9.571096802E0,6.692582703E-1,1.119269868E1
8.314154458E0,-5.683081970E0,-9.447304230E0,9.907896423E-1,1.106935599E1
8.324093458E0,-5.498066711E0,-9.488019562E0,6.551875305E-1,1.098546874E1
8.334032458E0,-5.223238220E0,-9.642348633E0,4.128414917E-1,1.097394837E1
8.343971458E0,-5.141059113E0,-9.945318604E0,3.849993896E-1,1.120214602E1
8.353910458E0,-5.467380524E0,-1.035756134E1,7.333250427E-1,1.173495174E1
8.363848958E0,-6.448739777E0,-1.086440735E1,1.508712616E0,1.272390685E1
8.373787958E0,-7.732170868E0,-1.132065857E1,2.648143158E0,1.396268022E1
8.383726958E0,-8.837472382E0,-1.145732437E1,4.264631653E0,1.508503507E1
8.393665958E0,-9.496701508E0,-1.115390533E1,6.715335388E0,1.611498288E1
8.403604958E0,-9.515562286E0,-1.006222549E1,7.693551178E0,1.584250729E1
8.413543958E0,-9.147477722E0,-8.437354431E0,3.819307709E0,1.301738875E1
8.423482958E0,-8.349187775E0,-7.634873199E0,3.731739807E-1,1.131987120E1
8.433420958E0,-7.559130707E0,-7.999664612E0,9.102571106E-1,1.104371581E1
8.443359958E0,-6.449488220E0,-9.385632477E0,2.412084045E0,1.164062476E1
8.453298958E0,-5.210514679E0,-1.097008759E1,1.944007416E0,1.229924590E1
8.463237958E0,-4.527335358E0,-1.246787292E1,-6.077362061E-1,1.327832685E1
8.473176958E0,-4.362228699E0,-1.356524094E1,-3.529210968E0,1.467992272E1
8.483115958E0,-4.609963531E0,-1.399844009E1,-4.858446808E0,1.551813759E1
8.493053958E0,-4.729115753E0,-1.459375214E1,-4.086202698E0,1.587574218E1
8.502992958E0,-4.820276184E0,-1.543844559E1,-2.243235168E0,1.632828125E1
8.512931958E0,-5.135820007E0,-1.594214813E1,-4.800517273E-1,1.675587013E1
8.522870958E0,-5.113815765E0,-1.552616318E1,6.433621216E-1,1.635930223E1
8.532809958E0,-4.594844971E0,-1.426892761E1,6.709048462E-1,1.500549929E1
8.542748958E0,-4.375850372E0,-1.267698807E1,-2.326162720E-1,1.341298637E1
8.552687958E0,-4.349654846E0,-1.117052078E1,-7.399113464E-1,1.201030810E1
8.562625958E0,-4.320016479E0,-9.893675995E0,-6.319857788E-1,1.081419313E1
8.572564958E0,-3.965553589E0,-8.909772034E0,-5.001100159E-1,9.765232357E0
8.582503958E0,-3.679498444E0,-8.258027344E0,-2.311193848E-1,9.043624305E0
8.592442958E0,-3.329825592E0,-7.883356476E0,3.622467041E-2,8.557824491E0
8.602381958E0,-2.611768799E0,-7.576793976E0,-1.504371643E-1,8.015720464E0
8.612320958E0,-2.186054077E0,-7.249125366E0,-4.662803650E-1,7.585912495E0
8.622259958E0,-1.803000641E0,-6.874454498E0,-5.043013000E-1,7.124833736E0
8.632197958E0,-1.595532074E0,-6.465504913E0,-6.926097107E-1,6.695385321E0
8.642136958E0,-1.560504913E0,-6.304739227E0,-9.581575012E-1,6.565285836E0
8.652075958E0,-1.665736084E0,-6.206543427E0,-9.418414307E-1,6.494838203E0
8.662014958E0,-1.675166473E0,-5.948180695E0,-7.515870667E-1,6.225103968E0
8.671953958E0,-1.634301453E0,-5.671705627E0,-4.953199768E-1,5.923219382E0
8.681892958E0,-1.511706390E0,-5.395829315E0,-2.058219910E-1,5.607369517E0
8.691831958E0,-1.182989960E0,-5.422623596E0,-2.624043274E-1,5.556362834E0
8.701769958E0,-6.486012268E-1,-5.779481506E0,-8.948391724E-1,5.884201490E0
8.711708958E0,5.014572144E-2,-6.071524200E0,-1.668131104E0,6.296712006E0
8.721647958E0,1.015188904E0,-6.220314789E0,-1.882784729E0,6.577826611E0
8.731586958E0,2.035616913E0,-6.337670746E0,-1.524729309E0,6.828953519E0
8.741525958E0,2.883004761E0,-6.424340515E0,-1.042731628E0,7.118367562E0
8.751464958E0,3.545377350E0,-6.501879272E0,-5.150788879E-1,7.423573323E0
8.761403958E0,3.893553314E0,-6.535858612E0,1.202000427E-1,7.608656469E0
8.771341958E0,3.951931915E0,-6.636299744E0,8.779243469E-1,7.773608641E0
8.781280958E0,3.791615295E0,-6.799310760E0,1.730850677E0,7.975137455E0
8.791219958E0,3.613485718E0,-7.037914581E0,2.752326508E0,8.376444466E0
8.801158958E0,2.447560272E0,-7.383845215E0,4.020938416E0,8.756692708E0
8.811097958E0,-1.164578247E0,-7.428751831E0,5.330565033E0,9.217240359E0
8.821036958E0,-5.191504211E0,-7.855963440E0,7.024891663E0,1.174806284E1
8.830975958E0,-1.011641281E1,-8.812324677E0,9.950707397E0,1.670375563E1
8.840913958E0,-1.569591019E1,-1.029529083E1,1.446966019E1,2.370075264E1
8.850852958E0,-1.835198685E1,-1.195893127E1,1.569186859E1,2.694524445E1
8.860791958E0,-1.715702179E1,-1.239856705E1,1.124431732E1,2.396919969E1
8.870730958E0,-1.569231766E1,-1.138741974E1,6.993307343E0,2.061136845E1
8.880669958E0,-1.458806396E1,-9.905950470E0,5.154980164E0,1.837153465E1
8.890608958E0,-1.279389496E1,-8.172704773E0,2.698288879E0,1.541939086E1
8.900547958E0,-1.124207199E1,-6.164480896E0,1.224753113E0,1.287963616E1
8.910485958E0,-9.708960114E0,-3.823199615E0,1.017583923E0,1.048409456E1
8.920424958E0,-8.330027618E0,-2.877017212E0,7.661068726E-1,8.846101283E0
8.930363958E0,-8.025261383E0,-3.770359497E0,4.602928162E-1,8.878755570E0
8.940302958E0,-7.356452179E0,-6.793772278E0,-8.063731384E-1,1.004604241E1
8.950241958E0,-6.409371643E0,-1.072355026E1,-2.980302429E0,1.284355004E1
8.960180958E0,-5.504952393E0,-1.379022308E1,-4.196972351E0,1.543014357E1
8.970119958E0,-4.740941162E0,-1.507649826E1,-2.712808685E0,1.603548109E1
8.980057958E0,-4.912334747E0,-1.532333496E1,3.235970764E0,1.641362647E1
8.989996958E0,-4.683011627E0,-1.527782959E1,5.761219482E0,1.698629815E1
8.999935958E0,-2.205812988E0,-1.374531647E1,1.951192474E0,1.405725748E1
9.009874958E0,7.361691284E-1,-1.044123734E1,-2.376757507E0,1.073360882E1
9.019813958E0,2.629432068E0,-7.589068451E0,-1.805695038E0,8.232156918E0
9.029752958E0,3.927832031E0,-6.250701599E0,1.465901642E0,7.526486735E0
9.039691958E0,4.235442352E0,-5.799839172E0,2.018103333E0,7.459882533E0
9.049629958E0,2.494712219E0,-6.234086151E0,-1.483714600E0,6.876687299E0
9.059568958E0,8.384065247E-1,-7.277266846E0,-3.313808899E0,8.040078834E0
9.069507958E0,3.372486877E-1,-8.585695953E0,-3.142565002E0,9.148968602E0
9.079446958E0,-3.158432007E-2,-9.976603546E0,-3.129991150E0,1.045612072E1
9.089385958E0,-5.204676819E-1,-1.119312378E1,-3.202590179E0,1.165390451E1
9.099324958E0,-1.124910736E0,-1.194905182E1,-3.163671112E0,1.241185234E1
9.109263958E0,-1.982776794E0,-1.197869019E1,-2.910397797E0,1.248562524E1
9.119201958E0,-2.490221558E0,-1.148920807E1,-2.820135498E0,1.208951073E1
9.129140958E0,-2.319127350E0,-1.065214874E1,-2.928809509E0,1.128824830E1
9.139079958E0,-2.094594269E0,-9.757010193E0,-3.139870605E0,1.046161366E1
9.149018958E0,-2.160008240E0,-9.250463562E0,-3.607049103E0,1.016107843E1
9.158957958E0,-2.546055450E0,-9.139095154E0,-4.035607910E0,1.030978127E1
9.168896958E0,-2.834355927E0,-9.148974609E0,-3.430715790E0,1.017384493E1
9.178835958E0,-3.486549683E0,-8.987310791E0,1.103056183E0,9.702809742E0
9.188773958E0,-4.341122589E0,-7.915689240E0,1.101259918E1,1.424011314E1
9.198712958E0,-4.362977142E0,-8.443341980E0,4.167333984E0,1.037748842E1
9.208651958E0,-4.929399261E0,-9.656119995E0,3.353027344E-2,1.084162141E1
9.218590958E0,-5.566624146E0,-1.093086914E1,-5.390290833E-1,1.227850793E1
9.228529958E0,-5.790259094E0,-1.149848877E1,5.424719238E-1,1.288551979E1
9.238468958E0,-6.029311981E0,-1.050605255E1,1.312470703E0,1.218410122E1
9.248407958E0,-5.977819061E0,-9.005273438E0,2.134112091E0,1.101742732E1
9.258345958E0,-5.783373413E0,-8.257278900E0,1.050515442E0,1.013576073E1
9.268284958E0,-5.851182404E0,-7.913294220E0,-3.385958862E-1,9.847396006E0
9.278223958E0,-5.286257172E0,-7.058721313E0,-7.472460938E-1,8.850335485E0
9.288162958E0,-3.836222534E0,-5.763913879E0,-8.325686646E-1,6.973698956E0
9.298101958E0,-2.337838440E0,-4.416865082E0,-9.280700684E-1,5.082863344E0
9.308040958E0,-1.555565186E0,-3.848796387E0,-6.852749634E-1,4.207447973E0
9.317979958E0,-1.354982300E0,-3.890709229E0,-3.342549133E-1,4.133439449E0
9.327917958E0,-1.476828918E0,-4.525838470E0,-1.104702759E-1,4.761978706E0
9.337856958E0,-1.469943237E0,-5.700296173E0,-1.246907043E-1,5.888094544E0
9.347795958E0,-1.858834534E0,-7.086563416E0,-2.760260010E-1,7.331496247E0
9.357734958E0,-2.254461823E0,-8.212372284E0,-3.668870544E-1,8.524098941E0
9.367672875E0,-2.486030273E0,-9.221873016E0,-2.927911377E-1,9.555575080E0
9.377611875E0,-2.738405457E0,-1.035531601E1,2.935395813E-1,1.071529746E1
9.387550875E0,-3.195255432E0,-1.148636398E1,1.581012268E0,1.202687884E1
9.397488875E0,-3.917353821E0,-1.219858292E1,3.090024261E0,1.317950439E1
9.407427875E0,-4.723726959E0,-1.169203629E1,3.862717438E0,1.318855166E1
9.417366875E0,-5.379064178E0,-1.035606445E1,2.941982117E0,1.203485194E1
9.427305875E0,-5.851781158E0,-9.246871033E0,7.770341492E-1,1.097049446E1
9.437244875E0,-6.145021362E0,-8.858279114E0,-9.904902649E-1,1.082642450E1
9.447183875E0,-7.007677460E0,-9.180109863E0,-1.131946106E0,1.160445011E1
9.457122875E0,-8.026458893E0,-9.519304504E0,-4.790039063E-2,1.245164628E1
9.467060875E0,-8.757688293E0,-9.628726959E0,1.043629761E0,1.305751317E1
9.476999875E0,-9.045539703E0,-9.574839020E0,1.402134247E0,1.324633199E1
9.486938875E0,-8.976233826E0,-9.621990967E0,1.639989624E0,1.326065797E1
9.496877875E0,-8.554111633E0,-9.949958954E0,2.388283539E0,1.333710641E1
9.506816875E0,-7.928113403E0,-1.044168640E1,3.363355865E0,1.353499020E1
9.516755875E0,-7.651937714E0,-1.112726074E1,3.553909607E0,1.396418118E1
9.526694875E0,-7.992329865E0,-1.180879349E1,3.310066681E0,1.463835652E1
9.536632875E0,-8.494236145E0,-1.197345108E1,3.445235596E0,1.507929795E1
9.546571875E0,-8.722212067E0,-1.148845963E1,3.396586761E0,1.481885588E1
9.556510875E0,-9.051078186E0,-1.076740906E1,3.355422363E0,1.446091191E1
9.566449875E0,-9.029972076E0,-9.786947937E0,2.449805603E0,1.353980403E1
9.576388875E0,-8.568930817E0,-8.895401917E0,1.385069733E0,1.242872354E1
9.586327875E0,-7.539371796E0,-8.842561798E0,2.311942291E0,1.184812658E1
9.596266875E0,-5.679788818E0,-9.896520081E0,3.678450623E0,1.198883271E1
9.606204875E0,-4.267326050E0,-1.164084274E1,3.222199402E0,1.281022484E1
9.616143875E0,-3.154240723E0,-1.307037003E1,1.951940918E-1,1.344700368E1
9.626082875E0,-2.880310364E0,-1.293624893E1,-3.676205292E0,1.375344355E1
9.636021875E0,-3.299887848E0,-1.283251465E1,-5.106031952E0,1.419979769E1
9.645960875E0,-3.371289368E0,-1.346405136E1,-4.424349518E0,1.456781177E1
9.655899875E0,-3.111878815E0,-1.424572586E1,-3.607198792E0,1.502119763E1
9.665838875E0,-2.965782623E0,-1.502755005E1,-1.988764343E0,1.544598040E1
9.675776875E0,-3.676654358E0,-1.571462128E1,2.408790894E0,1.631776280E1
9.685715875E0,-3.799099731E0,-1.469239700E1,5.461692352E0,1.612853905E1
9.695654875E0,-3.156336365E0,-1.277862671E1,4.422403564E0,1.388572696E1
9.705593875E0,-2.665806427E0,-1.099643280E1,1.425485687E0,1.140438809E1
9.715532875E0,-1.728755035E0,-9.580527191E0,-1.619482269E0,9.869033289E0
9.725471875E0,-9.889933777E-1,-9.191935272E0,-3.104095001E0,9.752188868E0
9.735410875E0,-1.118773499E0,-8.995843048E0,-3.876339111E0,9.859150632E0
9.745349875E0,-1.395248566E0,-8.528814240E0,-3.834725647E0,9.454761323E0
9.755287875E0,-1.597328339E0,-8.043074341E0,-2.671045532E0,8.624209350E0
9.765226875E0,-1.979034576E0,-7.441325684E0,-1.279988251E0,7.805656648E0
9.775165875E0,-2.290686493E0,-6.872059479E0,-5.408253479E-1,7.263947835E0
9.785104875E0,-2.368824005E0,-6.352040863E0,-4.805007935E-1,6.796368979E0
9.795043875E0,-2.413431244E0,-5.955665131E0,-4.833448792E-1,6.444239272E0
9.804982875E0,-2.636018372E0,-5.811963959E0,-4.819976807E-1,6.399987475E0
9.814921875E0,-2.797233124E0,-5.784870300E0,-3.035687256E-1,6.432836972E0
9.824859875E0,-2.698737946E0,-5.875282288E0,-2.911445618E-1,6.472008468E0
9.834798875E0,-2.655926971E0,-6.008355560E0,-4.179309082E-1,6.582473005E0
9.844737875E0,-2.643951874E0,-6.222560120E0,-7.104226685E-1,6.798193607E0
9.854676875E0,-2.587070160E0,-6.348897400E0,-1.182391205E0,6.956973420E0
9.864615875E0,-2.149679718E0,-6.310577087E0,-1.596130829E0,6.855081304E0
9.874554875E0,-8.264314270E-1,-6.093528442E0,-1.635049896E0,6.362976186E0
9.884493875E0,6.051914978E-1,-5.871689758E0,-1.352886658E0,6.055848386E0
9.894431875E0,1.807341614E0,-5.813610535E0,-9.307644653E-1,6.158804563E0
9.904370875E0,2.704875183E0,-5.975573730E0,-3.845503235E-1,6.570518253E0
9.914309875E0,3.051404572E0,-6.206244049E0,2.760260010E-1,6.921323964E0
9.924248875E0,3.109034729E0,-6.385870514E0,9.392967224E-1,7.164336501E0
9.934187875E0,3.029699707E0,-6.585555267E0,1.629062347E0,7.429835976E0
9.944126875E0,2.440524902E0,-6.885381775E0,2.170037384E0,7.620610621E0
9.954065875E0,6.655160522E-1,-7.310198364E0,2.794239349E0,7.854278152E0
9.964003875E0,-2.195933533E0,-7.924969940E0,3.581302643E0,8.969559702E0
9.973942875E0,-5.484295349E0,-8.864715729E0,5.440286865E0,1.175829076E1
9.983881875E0,-9.935588837E0,-9.840386810E0,9.904004517E0,1.713588176E1
9.993820875E0,-1.574560684E1,-1.109971802E1,1.747915192E1,2.601247060E1
1.000375987E1,-1.859298569E1,-1.250769012E1,1.797956131E1,2.872988085E1
1.001369887E1,-1.657188858E1,-1.281889297E1,1.153576126E1,2.391705032E1
1.002363787E1,-1.505509277E1,-1.172002808E1,8.050708466E0,2.070818156E1
1.003357587E1,-1.412283142E1,-1.002959335E1,7.014263763E0,1.868815150E1
1.004351487E1,-1.259450958E1,-7.916886749E0,5.015470276E0,1.569884421E1
1.005345387E1,-1.080438217E1,-5.447022858E0,2.222278748E0,1.230216465E1
1.006339287E1,-8.850944366E0,-3.316203918E0,-8.382568359E-2,9.452166490E0
1.007333187E1,-7.242988129E0,-2.194586334E0,-8.861572266E-1,7.619866196E0
1.008327087E1,-6.334976349E0,-2.669698334E0,-8.202941895E-1,6.923301026E0
1.009320987E1,-5.853278046E0,-5.088668060E0,-1.913620605E0,7.988576239E0
1.010314787E1,-5.507497101E0,-8.494236145E0,-4.450844421E0,1.105868835E1
1.011308687E1,-5.451363831E0,-1.146241379E1,-6.474037170E0,1.424841938E1
1.012302587E1,-5.752387848E0,-1.321407120E1,-6.123166809E0,1.565869775E1
1.013296487E1,-6.709647217E0,-1.406265656E1,-1.062640228E0,1.561751835E1
1.014290387E1,-7.583679657E0,-1.528441589E1,7.516319733E0,1.864458711E1
1.015284287E1,-4.838538208E0,-1.610471008E1,8.513396301E0,1.884810482E1
1.016278187E1,-6.605763245E-1,-1.351734055E1,2.067201233E-1,1.353505041E1
1.017271987E1,1.401086426E0,-9.636211395E0,-5.083728333E0,1.098471242E1
1.018265887E1,2.496358795E0,-7.820187836E0,-2.185155945E0,8.494824985E0
1.019259787E1,4.758155365E0,-6.888525238E0,2.275717621E0,8.675869589E0
1.020253687E1,4.110452271E0,-6.555318146E0,8.261320496E-1,7.781420694E0
1.021247587E1,2.251617737E0,-7.194189606E0,-2.489772491E0,7.938835782E0
1.022241487E1,1.586700439E0,-7.953859863E0,-3.142864380E0,8.698224044E0
1.023235387E1,1.604962463E0,-8.908574524E0,-3.002156982E0,9.536852264E0
1.024229187E1,1.347048798E0,-1.016745667E1,-3.009342041E0,1.068867882E1
1.025223087E1,3.203338623E-1,-1.107322311E1,-2.932402039E0,1.145940075E1
1.026216988E1,-1.006806335E0,-1.117411331E1,-2.714604950E0,1.154311688E1
1.027210887E1,-1.767225037E0,-1.074630295E1,-2.692900085E0,1.121863727E1
1.028204787E1,-1.745969238E0,-1.020577698E1,-2.922223206E0,1.075851666E1
1.029198687E1,-8.767268372E-1,-9.439370728E0,-3.138822784E0,9.986119274E0
1.030192587E1,-2.676434326E-1,-8.794960785E0,-3.556454315E0,9.490591947E0
1.031186487E1,-4.577481079E-1,-8.782985687E0,-3.980223083E0,9.653628681E0
1.032180287E1,-1.393601990E0,-9.215436401E0,-3.779490509E0,1.005738252E1
1.033174187E1,-2.500999146E0,-9.595346375E0,-3.185375977E0,1.041500307E1
1.034168087E1,-3.383713531E0,-9.833501129E0,-2.694546661E0,1.074280426E1
1.035161988E1,-3.892355804E0,-9.940378876E0,-2.146685944E0,1.088897729E1
1.036155887E1,-5.020260315E0,-9.544751587E0,2.529889069E0,1.107725757E1
1.037149883E1,-6.215225372E0,-8.771759033E0,5.488037567E0,1.207026675E1
1.038143783E1,-6.171067200E0,-9.040749664E0,2.671494598E0,1.126739137E1
1.039137583E1,-5.794151001E0,-9.069040833E0,9.807604980E-1,1.080655258E1
1.040131483E1,-4.776417389E0,-8.696465607E0,4.323010254E-1,9.931241680E0
1.041125383E1,-3.385659485E0,-8.074359283E0,1.363963623E0,8.861058896E0
1.042119283E1,-2.244432678E0,-7.695048065E0,1.591939545E0,8.172240469E0
1.043113183E1,-2.435585175E0,-7.632328491E0,1.084345093E0,8.084572816E0
1.044107083E1,-3.404370575E0,-7.797135773E0,8.336164856E-1,8.548683040E0
1.045100983E1,-4.427492981E0,-7.973618774E0,7.496411133E-1,9.151133933E0
1.046094783E1,-5.148693237E0,-8.028554535E0,7.993377686E-1,9.571085144E0
1.047088683E1,-5.012476501E0,-8.097411346E0,5.463638306E-1,9.538946725E0
1.048082583E1,-4.348157959E0,-8.183632050E0,1.996847534E-1,9.269206285E0
1.049076483E1,-3.757785645E0,-8.386310577E0,3.936813354E-2,9.189815444E0
1.050070383E1,-3.711082764E0,-8.624914398E0,-3.502716064E-2,9.389489366E0
1.051064283E1,-3.949237518E0,-8.941955109E0,-1.077758789E-1,9.775819852E0
1.052058183E1,-3.991300049E0,-9.194330292E0,1.499880981E-1,1.002440432E1
1.053051983E1,-3.989204407E0,-9.101523285E0,8.915460205E-1,9.977290825E0
1.054045883E1,-4.078867950E0,-8.695866852E0,1.920506287E0,9.795080830E0
1.055039783E1,-4.273612976E0,-8.294701080E0,2.798580322E0,9.741554583E0
1.056033683E1,-4.405788116E0,-8.267008667E0,3.100652161E0,9.867545037E0
1.057027583E1,-4.551285553E0,-8.757388916E0,2.575993195E0,1.020008832E1
1.058021483E1,-4.790488129E0,-9.524842987E0,1.416204987E0,1.075532645E1
1.059015383E1,-5.259462891E0,-1.021445892E1,4.793032837E-1,1.149899355E1
1.060009283E1,-5.945785675E0,-1.052057236E1,3.216810608E-1,1.208876705E1
1.061003083E1,-6.721472626E0,-1.047671356E1,6.918612671E-1,1.246669135E1
1.061996983E1,-7.456144867E0,-1.028780640E1,8.011340332E-1,1.273086299E1
1.062990883E1,-8.079299011E0,-1.017164795E1,4.137396240E-1,1.299648703E1
1.063984783E1,-8.638386383E0,-1.020637573E1,2.365081787E-2,1.337132694E1
1.064978683E1,-9.182804260E0,-1.025502457E1,8.292755127E-2,1.376576550E1
1.065972583E1,-9.582173767E0,-1.030576904E1,7.107220459E-1,1.409014036E1
1.066966483E1,-9.704170074E0,-1.034408936E1,1.512604523E0,1.426390809E1
1.067960283E1,-9.447304230E0,-1.032448013E1,2.406695251E0,1.419995173E1
1.068954183E1,-8.806037750E0,-1.034304153E1,3.764371948E0,1.409593222E1
1.069948083E1,-8.129594421E0,-1.035351974E1,5.507946167E0,1.426965828E1
1.070941983E1,-7.745792542E0,-1.016057098E1,4.905898132E0,1.368584456E1
1.071935883E1,-7.360493774E0,-9.875563660E0,2.408042450E0,1.254999182E1
1.072929783E1,-6.410419464E0,-1.009246262E1,1.492097168E0,1.204896814E1
1.073923683E1,-4.858746185E0,-1.110525650E1,2.452649689E0,1.236728050E1
1.074917483E1,-2.980452118E0,-1.241772720E1,3.353027344E0,1.320325097E1
1.075911383E1,-2.225422211E0,-1.367601059E1,2.375110931E0,1.405798427E1
1.076905283E1,-2.767445068E0,-1.414378784E1,-9.759704590E-1,1.444499931E1
1.077899183E1,-3.478915558E0,-1.395413223E1,-3.608096924E0,1.482696946E1
1.078893083E1,-3.594475250E0,-1.401745056E1,-3.927981720E0,1.499460613E1
1.079886983E1,-3.113974457E0,-1.459405151E1,-2.606529694E0,1.514850400E1
1.080880883E1,-2.605332184E0,-1.560789322E1,-7.334747314E-3,1.582384720E1
1.081874783E1,-2.211800537E0,-1.611518829E1,3.078947296E0,1.655509806E1
1.082868583E1,-1.888023834E0,-1.520882309E1,4.519102478E0,1.597796048E1
1.083862483E1,-1.706900482E0,-1.359682526E1,3.399879913E0,1.411900668E1
1.084856383E1,-1.466201019E0,-1.187390808E1,8.306227112E-1,1.199288842E1
1.085850283E1,-1.512305145E0,-1.043435165E1,-9.380992126E-1,1.058502676E1
1.086844183E1,-1.689686279E0,-9.347761230E0,-2.033221893E0,9.714405335E0
1.087838083E1,-2.071242828E0,-8.674461365E0,-2.904709625E0,9.379427745E0
1.088831983E1,-2.201472015E0,-8.116870880E0,-2.880160675E0,8.889623020E0
1.089825783E1,-2.316432953E0,-7.599396973E0,-1.906585236E0,8.170175227E0
1.090819683E1,-2.568359070E0,-7.140900421E0,-8.969348145E-1,7.641558689E0
1.091813583E1,-2.664908295E0,-6.868616638E0,-3.128494263E-1,7.374110489E0
1.092807483E1,-2.469714203E0,-6.704857178E0,-1.321751404E-1,7.146472436E0
1.093801383E1,-2.375410309E0,-6.430777130E0,-1.722917175E-1,6.857634656E0
1.094795283E1,-2.415377197E0,-6.159690857E0,-1.797761536E-1,6.618773143E0
1.095789183E1,-2.581082611E0,-5.868995361E0,-1.538800049E-1,6.413327767E0
1.096782983E1,-2.628234558E0,-5.587131500E0,-3.697311401E-2,6.174546324E0
1.097776883E1,-2.508633270E0,-5.494923248E0,3.562591553E-2,6.040587024E0
1.098770783E1,-2.219734039E0,-5.597609711E0,-2.016307068E-1,6.025040134E0
1.099764683E1,-1.843117218E0,-5.714666290E0,-7.466473389E-1,6.050782936E0
1.100758583E1,-1.444047089E0,-5.725743256E0,-1.456471252E0,6.081999370E0
1.101752483E1,-8.397537231E-1,-5.544769592E0,-2.039059753E0,5.967195390E0
1.102746383E1,6.750961304E-2,-5.301824799E0,-2.241438904E0,5.756557313E0
1.103740183E1,9.624984741E-1,-5.084027710E0,-1.939067688E0,5.525732944E0
1.104734083E1,1.900298309E0,-4.860392761E0,-1.390907593E0,5.400849506E0
1.105727983E1,2.772534485E0,-4.767436066E0,-1.030756531E0,5.610512734E0
1.106721883E1,3.233725433E0,-4.883893890E0,-7.894583130E-1,5.910384432E0
1.107715783E1,3.242856445E0,-5.200635223E0,-5.718109131E-2,6.129110403E0
1.108709683E1,3.035836945E0,-5.596112823E0,1.496737518E0,6.540107636E0
1.109703583E1,1.760489044E0,-6.014193420E0,3.170257416E0,7.022846734E0
1.110697483E1,-8.330177307E-1,-6.482868805E0,4.687651978E0,8.043356734E0
1.111691283E1,-4.092639313E0,-7.464228058E0,7.359445953E0,1.125281484E1
1.112685183E1,-9.367819519E0,-9.198222198E0,1.377839767E1,1.903175180E1
1.113679083E1,-1.790606415E1,-1.199081497E1,2.290791275E1,3.145122006E1
1.114672983E1,-2.194601303E1,-1.515837799E1,1.978884888E1,3.321148071E1
1.115666883E1,-1.878458725E1,-1.595068039E1,1.060140427E1,2.682675335E1
1.116660783E1,-1.689267151E1,-1.420695648E1,8.603508911E0,2.369008925E1
1.117654683E1,-1.461860046E1,-1.152932465E1,7.982899475E0,2.025723304E1
1.118648483E1,-1.087323898E1,-8.037535858E0,4.431833954E0,1.422921153E1
1.119642383E1,-6.897356873E0,-4.390968933E0,1.509161682E0,8.314548032E0
1.120636283E1,-3.817960510E0,-2.253713379E0,1.244661713E0,4.604913596E0
1.121630183E1,-2.621498566E0,-1.349144440E0,1.298399963E0,3.221535024E0
1.122624083E1,-2.590513000E0,-2.628533936E0,-1.447489929E0,3.964237045E0
1.123617983E1,-2.532583466E0,-6.065836029E0,-3.933220825E0,7.660193979E0
1.124611883E1,-2.241438904E0,-9.971813507E0,-5.195994873E0,1.146557786E1
1.125605783E1,-2.719844055E0,-1.303279816E1,-5.372926941E0,1.435687025E1
1.126599583E1,-5.196893005E0,-1.512544647E1,2.451751556E0,1.618017038E1
1.127593483E1,-9.521998901E0,-1.805156158E1,1.083955902E1,2.310894585E1
1.128587383E1,-9.178463287E0,-1.915102524E1,5.810766449E0,2.201751491E1
1.129581283E1,-4.591701508E0,-1.566432587E1,-2.157613220E0,1.646542202E1
1.130575183E1,-1.245559845E0,-1.128937363E1,-6.678062897E0,1.317565559E1
1.131569083E1,1.193019104E-1,-8.682544556E0,-4.790039062E0,9.916919236E0
1.132562983E1,1.305585022E0,-7.263345795E0,-1.316063232E0,7.496183483E0
1.133556783E1,3.165018311E0,-6.097420349E0,1.893262939E0,7.126031180E0
1.134550683E1,2.097438354E0,-5.989045715E0,-1.704954529E-1,6.347990622E0
1.135544583E1,5.108876038E-1,-6.866670685E0,-2.768492889E0,7.421369504E0
1.136538483E1,3.486250305E-1,-7.726183319E0,-3.128793640E0,8.342948983E0
1.137532383E1,4.625381470E-2,-8.938212891E0,-3.307971039E0,9.530816412E0
1.138526283E1,-8.520281982E-1,-1.018347336E1,-3.126997375E0,1.068677661E1
1.139520183E1,-2.106269989E0,-1.066038162E1,-2.654130707E0,1.118590718E1
1.140514083E1,-2.769989777E0,-1.045545776E1,-2.477647705E0,1.109631374E1
1.141507883E1,-2.520159302E0,-9.999356232E0,-2.568808136E0,1.062718698E1
1.142501783E1,-1.912722473E0,-9.578431549E0,-2.761008453E0,1.015027221E1
1.143495683E1,-1.358425140E0,-9.257349243E0,-3.087180176E0,9.852640017E0
1.144489583E1,-1.258582764E0,-9.205706635E0,-3.235970764E0,9.838728170E0
1.145483483E1,-1.834435272E0,-9.488169250E0,-2.799179077E0,1.006110889E1
1.146477383E1,-2.606380005E0,-9.723629608E0,-2.225721588E0,1.030999641E1
1.147471283E1,-3.029999084E0,-9.749525757E0,-1.544338531E0,1.032565390E1
1.148465083E1,-3.859424286E0,-9.233249359E0,5.142406311E0,1.125132846E1
1.149458983E1,-4.310735779E0,-8.610843658E0,6.471492462E0,1.160212421E1
1.150452883E1,-4.256099396E0,-8.484506378E0,1.553619232E0,9.618469903E0
1.151446783E1,-3.878434753E0,-8.554560699E0,-1.005908203E0,9.446407582E0
1.152440683E1,-3.321892090E0,-8.393345947E0,-1.614392853E0,9.170032035E0
1.153434583E1,-2.908302155E0,-8.050858154E0,-3.553610229E-1,8.567427846E0
1.154428483E1,-2.876867523E0,-7.926466827E0,8.265811157E-1,8.472808239E0
1.155422283E1,-3.269351349E0,-8.008645935E0,7.448510742E-1,8.682273382E0
1.156416183E1,-3.953428802E0,-8.015980682E0,6.750961304E-2,8.938126378E0
1.157410083E1,-4.396208038E0,-7.968229980E0,-3.391946411E-1,9.106831894E0
1.158403983E1,-4.623285828E0,-7.969577179E0,-4.029620361E-1,9.222326749E0
1.159397883E1,-4.913532257E0,-7.909102936E0,-3.848497009E-1,9.319056700E0
1.160391783E1,-5.327122192E0,-7.776029663E0,-1.309776306E-1,9.426665546E0
1.161385683E1,-5.573210449E0,-7.785759430E0,1.992356873E-1,9.576973398E0
1.162379583E1,-5.482050018E0,-8.059839478E0,3.623963928E-1,9.754240921E0
1.163373383E1,-5.102589111E0,-8.618328094E0,4.665797424E-1,1.002644959E1
1.164367283E1,-4.649181976E0,-9.035660248E0,4.352947998E-1,1.017091592E1
1.165361183E1,-4.258195038E0,-9.197623444E0,4.831951904E-1,1.014701826E1
1.166355083E1,-4.017944641E0,-9.175319824E0,1.003812561E0,1.006667833E1
1.167348983E1,-4.042792969E0,-8.987460480E0,1.845811615E0,1.002624762E1
1.168342883E1,-4.432732086E0,-8.688981171E0,2.296075287E0,1.002095151E1
1.169336783E1,-5.121300201E0,-8.638835449E0,1.808988190E0,1.020439278E1
1.170330683E1,-6.027815094E0,-9.105864258E0,6.197113037E-1,1.093779506E1
1.171324483E1,-6.739584961E0,-9.709708557E0,-4.878355408E-1,1.182955744E1
1.172318383E1,-7.076983337E0,-9.952952728E0,-6.872209167E-1,1.223181237E1
1.173312283E1,-7.073241119E0,-9.761351166E0,3.727249146E-2,1.205471301E1
1.174306183E1,-6.877148895E0,-9.474846954E0,1.013392639E0,1.175137721E1
1.175300083E1,-6.699169006E0,-9.485624542E0,1.366059265E0,1.169282071E1
1.176293983E1,-6.694528656E0,-9.834548950E0,1.168919220E0,1.195413900E1
1.177287883E1,-6.767127686E0,-1.021415955E1,1.134341125E0,1.230486904E1
1.178281683E1,-6.829398193E0,-1.053464310E1,1.514101410E0,1.264562723E1
1.179275583E1,-6.974446564E0,-1.080123871E1,2.255509644E0,1.305361966E1
1.180269483E1,-7.276817780E0,-1.104777603E1,2.961142273E0,1.355631940E1
1.181263383E1,-7.653584290E0,-1.118144806E1,3.587888947E0,1.401695688E1
1.182257283E1,-8.014783173E0,-1.099852844E1,4.374952240E0,1.429491463E1
1.183251183E1,-8.434061279E0,-1.059556641E1,5.203030243E0,1.450761665E1
1.184245083E1,-8.896449738E0,-1.014425491E1,5.466482391E0,1.455799284E1
1.185238983E1,-9.058263245E0,-9.115893402E0,3.682492218E0,1.336833552E1
1.186232783E1,-8.820258179E0,-8.001909943E0,1.345851288E0,1.198494192E1
1.187226683E1,-7.819589081E0,-7.806266785E0,-2.032772827E-1,1.105102240E1
1.188220583E1,-6.435417480E0,-8.805888062E0,-1.248403931E-1,1.090751337E1
1.189214483E1,-5.529800720E0,-1.070618637E1,8.089178467E-1,1.207706383E1
1.190208383E1,-4.489913177E0,-1.271261398E1,5.014572144E-2,1.348229911E1
1.191202283E1,-4.179758148E0,-1.377690079E1,-2.710862732E0,1.464998806E1
1.192196183E1,-4.378844147E0,-1.395547943E1,-4.066743164E0,1.518117526E1
1.193189983E1,-4.257596283E0,-1.449211349E1,-3.075354767E0,1.541448301E1
1.194183883E1,-4.006568298E0,-1.548664536E1,-1.121018829E0,1.603575558E1
1.195177783E1,-3.993395691E0,-1.639271118E1,1.074016571E0,1.690626217E1
1.196171683E1,-3.819008331E0,-1.602058502E1,2.749033356E0,1.669733971E1
1.197165583E1,-3.732937317E0,-1.453657104E1,2.838098145E0,1.527421094E1
1.198159483E1,-3.482358398E0,-1.277757889E1,1.288969574E0,1.330619348E1
1.199153383E1,-2.948119354E0,-1.115540222E1,-1.594184875E-1,1.153948962E1
1.200147183E1,-2.669997711E0,-9.944121094E0,-7.719447327E-1,1.032522788E1
1.201141083E1,-2.394420776E0,-8.954379272E0,-1.232536926E0,9.350577858E0
1.202134983E1,-2.140548706E0,-8.213270416E0,-1.460213470E0,8.612315779E0
1.203128883E1,-2.002984772E0,-7.875123596E0,-1.319356384E0,8.232267058E0
1.204122783E1,-1.961670685E0,-7.545059967E0,-6.054908752E-1,7.819379834E0
1.205116683E1,-1.854194183E0,-7.248676300E0,-4.017645264E-1,7.492847183E0
1.206110583E1,-1.658251648E0,-7.016958160E0,-3.350033569E-1,7.218014104E0
1.207104483E1,-1.595382385E0,-6.776707764E0,-6.342311096E-1,6.990798393E0
1.208098283E1,-1.723964996E0,-6.498137054E0,-1.112336884E0,6.814332970E0
1.209092183E1,-2.069895630E0,-6.229745178E0,-1.050814819E0,6.648188076E0
1.210086083E1,-2.552342377E0,-5.974525909E0,-4.752616882E-1,6.514237110E0
1.211079983E1,-2.972668304E0,-5.730084229E0,-4.834945679E-2,6.455459688E0
1.212073883E1,-2.872676239E0,-5.607040100E0,-8.113128662E-2,6.300615029E0
1.213067783E1,-2.270179138E0,-5.660928040E0,-5.213658142E-1,6.121408490E0
1.214061683E1,-1.441502380E0,-5.818849640E0,-1.158890076E0,6.105732262E0
1.215055583E1,-6.336323547E-1,-6.001170502E0,-1.627565460E0,6.250160532E0
1.216049383E1,2.106120300E-1,-6.034551086E0,-1.765728149E0,6.291101663E0
1.217043283E1,1.153800659E0,-5.925128632E0,-1.536854095E0,6.228990751E0
1.218037183E1,2.067201233E0,-5.826783142E0,-1.199605408E0,6.297918375E0
1.219031083E1,2.920576630E0,-5.736670532E0,-5.769003296E-1,6.463123907E0
1.220024983E1,3.452121277E0,-5.776038666E0,3.817062378E-2,6.729132260E0
1.221018883E1,3.477119293E0,-5.894442444E0,5.442681885E-1,6.865204889E0
1.222012783E1,3.390599213E0,-6.079607391E0,1.156195679E0,7.056527298E0
1.223006683E1,3.359463959E0,-6.454877014E0,2.365979919E0,7.651751194E0
1.224000483E1,2.078876953E0,-6.994654541E0,4.356091461E0,8.498379513E0
1.224994383E1,-1.155746613E0,-7.310198364E0,6.261628876E0,9.694469894E0
1.225988283E1,-4.902754669E0,-8.052355042E0,8.722361755E0,1.284355946E1
1.226982183E1,-9.874665527E0,-9.527836761E0,1.339594299E1,1.917654769E1
1.227976083E1,-1.585562805E1,-1.146016846E1,1.746702713E1,2.622657886E1
1.228969983E1,-1.882694916E1,-1.344534027E1,1.631741776E1,2.831058657E1
1.229963883E1,-1.714025665E1,-1.364188156E1,1.167152893E1,2.482164213E1
1.230957683E1,-1.544742691E1,-1.200204163E1,7.982151031E0,2.112786635E1
1.231951583E1,-1.355446335E1,-9.852810974E0,6.905140686E0,1.812408146E1
1.232945483E1,-1.105915237E1,-7.521409149E0,4.394561462E0,1.407794791E1
1.233939383E1,-8.879534912E0,-4.953349457E0,2.230361938E0,1.040943445E1
1.234933283E1,-7.257208557E0,-3.019820251E0,2.529140625E0,8.257296331E0
1.235927183E1,-7.171287231E0,-3.036585388E0,3.422782288E0,8.506682665E0
1.236921087E1,-8.103099518E0,-5.340743866E0,2.039808197E0,9.916883801E0
1.237914987E1,-8.675808563E0,-8.796607361E0,-2.340233459E0,1.257484187E1
1.238908787E1,-6.740034027E0,-1.193513077E1,-7.737859039E0,1.574007203E1
1.239902687E1,-4.073778534E0,-1.326885727E1,-7.633675690E0,1.584080962E1
1.240896587E1,-2.462229767E0,-1.356179810E1,3.598965912E0,1.424561331E1
1.241890487E1,-2.881507874E0,-1.330568069E1,8.975934448E0,1.630679691E1
1.242884387E1,-3.042722626E0,-1.295376251E1,-8.318202209E-1,1.333229347E1
1.243878287E1,-1.322948914E0,-1.188034470E1,-3.392245789E0,1.242578430E1
1.244872188E1,-2.198927307E-1,-9.900411987E0,-3.693269806E0,1.056914151E1
1.245866087E1,2.683918762E-1,-8.642577667E0,-3.049907684E0,9.168866877E0
1.246859887E1,1.125509491E0,-8.291407928E0,-1.534758453E0,8.507038295E0
1.247853787E1,1.154998169E0,-8.513096924E0,-1.704804840E0,8.758607169E0
1.248847687E1,8.443940735E-1,-9.138047333E0,-1.874701538E0,9.366505019E0
1.249841587E1,7.689509583E-1,-9.703122253E0,-2.017654266E0,9.940462554E0
1.250835487E1,9.773176575E-1,-1.016955231E1,-2.329755249E0,1.047867852E1
1.251829387E1,1.003962250E0,-1.070603668E1,-2.421514435E0,1.102229077E1
1.252823287E1,1.520837402E-1,-1.113848740E1,-2.426903229E0,1.140082849E1
1.253817087E1,-1.422940979E0,-1.093895233E1,-2.273472290E0,1.126295323E1
1.254810987E1,-1.930535431E0,-1.017269577E1,-2.168390808E0,1.057887636E1
1.255804887E1,-1.851649475E0,-9.241182861E0,-2.008822632E0,9.636567585E0
1.256798787E1,-1.578916626E0,-8.569978638E0,-1.859133911E0,8.910324936E0
1.257792687E1,-1.156045990E0,-8.186027069E0,-1.950893097E0,8.494319595E0
1.258786587E1,-9.214837646E-1,-8.105344849E0,-2.297721863E0,8.474979245E0
1.259780487E1,-1.282832336E0,-8.490344238E0,-2.360740814E0,8.905318707E0
1.260774387E1,-2.106569366E0,-9.090146942E0,-1.720372467E0,9.488313198E0
1.261768187E1,-2.883753204E0,-9.536219330E0,-1.065484314E0,1.001951937E1
1.262762087E1,-4.910538483E0,-9.662406921E0,6.514752502E0,1.264584896E1
1.263755987E1,-6.366560669E0,-9.343120880E0,9.115594025E0,1.452312146E1
1.264749887E1,-5.400918732E0,-9.068142700E0,2.655477905E-1,1.055801358E1
1.265743787E1,-4.290827179E0,-9.093739471E0,-2.665357361E0,1.040247208E1
1.266737687E1,-3.800297241E0,-8.958570557E0,-2.872077484E0,1.014628378E1
1.267731587E1,-3.785328369E0,-8.546178131E0,-1.906734924E0,9.539471137E0
1.268725487E1,-3.990850983E0,-7.908204803E0,-3.685336304E-1,8.865800123E0
1.269719287E1,-4.341122589E0,-7.405550079E0,8.108638000E-1,8.622355677E0
1.270713187E1,-4.639152832E0,-7.299271088E0,9.633966064E-1,8.702254330E0
1.271707087E1,-4.737498322E0,-7.526797943E0,2.219883728E-1,8.896395701E0
1.272700987E1,-4.859644318E0,-7.787256317E0,-4.026626587E-1,9.188016166E0
1.273694887E1,-5.092410278E0,-7.831264801E0,-6.503974915E-1,9.363993151E0
1.274688787E1,-5.468128967E0,-7.798033905E0,-2.183958435E-1,9.526671188E0
1.275682687E1,-5.861810303E0,-7.752528534E0,4.450245667E-1,9.729366144E0
1.276676587E1,-5.843248901E0,-7.876321106E0,5.047503662E-1,9.820120408E0
1.277670387E1,-5.436544647E0,-8.319399719E0,4.231700134E-1,9.947235910E0
1.278664287E1,-4.813689880E0,-8.773106232E0,3.737727356E-1,1.001392577E1
1.279658187E1,-4.124073944E0,-8.926836548E0,5.349874878E-1,9.847974830E0
1.280652087E1,-3.462150421E0,-8.791517944E0,9.538165283E-1,9.496685699E0
1.281645988E1,-3.063828735E0,-8.522976379E0,1.585353241E0,9.194646148E0
1.282639887E1,-3.228486328E0,-8.430319061E0,1.970053253E0,9.239832967E0
1.283633787E1,-3.822151794E0,-8.570876770E0,1.839524689E0,9.563086532E0
1.284627587E1,-4.753515015E0,-8.899742889E0,1.058898010E0,1.014507730E1
1.285621487E1,-5.866600342E0,-9.297615509E0,-3.254232788E-1,1.099857055E1
1.286615387E1,-6.990762634E0,-9.752220154E0,-1.425934753E0,1.208345357E1
1.287609287E1,-7.773634644E0,-1.009889923E1,-1.532363434E0,1.283609360E1
1.288603187E1,-8.146958313E0,-9.962383118E0,-5.267546082E-1,1.288019711E1
1.289597087E1,-8.198002167E0,-9.436676331E0,7.068301392E-1,1.252029187E1
1.290590988E1,-7.817044373E0,-9.106463013E0,1.307830353E0,1.207245922E1
1.291584887E1,-7.396718445E0,-9.204209747E0,1.470841370E0,1.189925608E1
1.292578687E1,-6.992558899E0,-9.574090576E0,1.723665619E0,1.198040540E1
1.293572587E1,-6.659800873E0,-9.984237671E0,2.169438629E0,1.219608189E1
1.294566487E1,-6.682403870E0,-1.045560745E1,2.786305847E0,1.271761569E1
1.295560387E1,-7.106921082E0,-1.090721832E1,3.044219513E0,1.336948059E1
1.296554287E1,-7.612270203E0,-1.117306549E1,3.099155273E0,1.387042946E1
1.297548187E1,-7.911947021E0,-1.101125198E1,3.531007233E0,1.401123078E1
1.298542087E1,-8.212821350E0,-1.058254349E1,3.857178955E0,1.393981674E1
1.299535987E1,-8.829239502E0,-1.019649628E1,4.043092346E0,1.408085943E1
1.300529787E1,-9.302255859E0,-9.480984192E0,3.051554260E0,1.362838981E1
1.301523687E1,-9.344318390E0,-8.597371674E0,7.099736023E-1,1.271751345E1
1.302517587E1,-8.440797272E0,-8.178991699E0,1.068777466E-1,1.175390942E1
1.303511487E1,-6.831194458E0,-8.840615845E0,1.238823853E0,1.124083586E1
1.304505387E1,-5.296286316E0,-1.056009018E1,1.611399078E0,1.192320260E1
1.305499287E1,-4.655917969E0,-1.230561035E1,-1.701960754E-1,1.315806160E1
1.306493187E1,-4.898413696E0,-1.321317307E1,-2.872077484E0,1.438162815E1
1.307487087E1,-4.616250458E0,-1.341944412E1,-3.869453430E0,1.470931401E1
1.308480887E1,-4.070036316E0,-1.392015289E1,-3.150648193E0,1.484124106E1
1.309474787E1,-3.501967621E0,-1.494327530E1,-1.647474060E0,1.543630217E1
1.310468687E1,-2.935395813E0,-1.587942856E1,1.523831177E-1,1.614918018E1
1.311462587E1,-2.524500275E0,-1.623793304E1,1.581461334E0,1.650892459E1
1.312456487E1,-2.606230316E0,-1.553604263E1,2.334994354E0,1.592523958E1
1.313450387E1,-2.981200562E0,-1.397703461E1,1.964514771E0,1.442582308E1
1.314444287E1,-2.932851105E0,-1.231788483E1,7.560777283E-1,1.268477653E1
1.315438187E1,-2.843486938E0,-1.075229050E1,-3.948788452E-1,1.112893069E1
1.316431987E1,-2.847229156E0,-9.441765747E0,-1.126557312E0,9.925864480E0
1.317425887E1,-2.596051483E0,-8.351133728E0,-1.482217712E0,8.870055648E0
1.318419787E1,-2.352208557E0,-7.791447601E0,-1.748064880E0,8.324378154E0
1.319413687E1,-2.093247070E0,-7.555837555E0,-1.354982300E0,7.956653913E0
1.320407587E1,-2.117346954E0,-7.259304199E0,-7.391629028E-1,7.597829781E0
1.321401487E1,-2.170785828E0,-6.975644073E0,-5.191204834E-1,7.324029453E0
1.322395387E1,-2.134561157E0,-6.892566833E0,-4.236190796E-1,7.227951440E0
1.323389287E1,-2.104773102E0,-6.770869904E0,-5.520520020E-1,7.111927339E0
1.324383087E1,-2.197430420E0,-6.528972931E0,-7.343728638E-1,6.927877849E0
1.325376987E1,-2.515069885E0,-6.258934479E0,-6.047424316E-1,6.772410999E0
1.326370887E1,-2.911744995E0,-6.099066925E0,-3.540138245E-1,6.767732416E0
1.327364787E1,-3.085383911E0,-6.095025330E0,-4.079017639E-1,6.843632917E0
1.328358687E1,-2.769840088E0,-6.213728485E0,-7.909552002E-1,6.848944877E0
1.329352587E1,-1.992506561E0,-6.398743744E0,-1.127904510E0,6.796040942E0
1.330346487E1,-8.568182373E-1,-6.519243164E0,-1.301393738E0,6.702857196E0
1.331340387E1,3.290158081E-1,-6.580615540E0,-1.356179810E0,6.726958894E0
1.332334187E1,1.153501282E0,-6.675667877E0,-1.284628601E0,6.895315617E0
1.333328087E1,1.933828583E0,-6.741830292E0,-1.232237549E0,7.121121965E0
1.334321987E1,2.604883118E0,-6.645131378E0,-1.059646454E0,7.215679989E0
1.335315887E1,3.040327606E0,-6.364015961E0,-7.146139526E-1,7.089073579E0
1.336309788E1,3.094065857E0,-6.057752838E0,-2.371069336E-1,6.806308300E0
1.337303646E1,3.074157257E0,-5.786516876E0,2.727328491E-1,6.558094510E0
1.338297546E1,3.192261658E0,-5.714666290E0,1.256187744E0,6.665279660E0
1.339291446E1,2.627935181E0,-5.884862366E0,2.892584839E0,7.064325547E0
1.340285246E1,-2.483335876E-1,-6.031557312E0,5.044509888E0,7.866920184E0
1.341279146E1,-4.145329742E0,-6.530020752E0,7.241940308E0,1.059578355E1
1.342273046E1,-8.855135651E0,-7.502997437E0,1.072908875E1,1.580575032E1
1.343266946E1,-1.548245407E1,-9.249266052E0,1.657533142E1,2.449483452E1
1.344260846E1,-2.109578110E1,-1.181088913E1,1.921075104E1,3.088012367E1
1.345254746E1,-1.964365082E1,-1.314850754E1,1.191896439E1,2.647296697E1
1.346248646E1,-1.728276031E1,-1.225381805E1,6.511459351E0,2.216413689E1
1.347242546E1,-1.534414169E1,-1.050171158E1,5.786217499E0,1.947328794E1
1.348236346E1,-1.170446045E1,-8.152646484E0,3.030298462E0,1.458227513E1
1.349230246E1,-7.922874298E0,-5.682333527E0,9.243278503E-1,9.793632290E0
1.350224146E1,-4.939877472E0,-3.802392883E0,1.525627441E0,6.417797143E0
1.351218046E1,-3.972439270E0,-3.145858154E0,3.166365509E0,5.975162577E0
1.352211946E1,-3.809128876E0,-4.401596832E0,3.189716949E0,6.637605870E0
1.353205846E1,-3.980971527E0,-7.977810059E0,1.254391479E0,9.003726207E0
1.354199746E1,-4.044439545E0,-1.197539703E1,-7.738906860E-2,1.264015880E1
1.355193646E1,-3.804787903E0,-1.478580276E1,-1.472338257E0,1.533832306E1
1.356187446E1,-4.321213989E0,-1.567076248E1,3.300636292E-1,1.625898610E1
1.357181346E1,-5.856870575E0,-1.567001404E1,4.552932129E0,1.733728537E1
1.358175246E1,-6.337670746E0,-1.510209503E1,3.134930878E0,1.667534517E1
1.359169146E1,-4.622238007E0,-1.283356247E1,-1.391506348E0,1.371137118E1
1.360163046E1,-1.916764069E0,-9.950108643E0,-4.073778534E0,1.092127822E1
1.361156946E1,2.404000854E-1,-7.465575256E0,-3.895199890E0,8.424083825E0
1.362150846E1,1.209784241E0,-6.125112762E0,-2.116448822E0,6.592415330E0
1.363144746E1,1.750010834E0,-5.858517151E0,-7.921527100E-1,6.165408911E0
1.364138546E1,1.093625793E0,-6.195616150E0,-1.105151825E0,6.387725527E0
1.365132446E1,7.694000244E-2,-6.988367615E0,-1.956730957E0,7.257547638E0
1.366126346E1,-4.358935547E-1,-8.019722900E0,-2.282752991E0,8.349665850E0
1.367120246E1,-8.747808838E-1,-9.217382355E0,-2.745291138E0,9.657225404E0
1.368114146E1,-1.378034363E0,-1.046069687E1,-2.972668304E0,1.096183901E1
1.369108046E1,-2.051184540E0,-1.128428421E1,-2.786156158E0,1.180275791E1
1.370101946E1,-3.106190643E0,-1.144519958E1,-2.632874908E0,1.214796461E1
1.371095846E1,-3.351380768E0,-1.090826614E1,-2.442770233E0,1.167001070E1
1.372089646E1,-2.940185852E0,-9.944270782E0,-2.202519836E0,1.060114654E1
1.373083546E1,-2.496658173E0,-9.260941772E0,-2.058219910E0,9.809924247E0
1.374077446E1,-1.969005432E0,-8.899742889E0,-2.137405243E0,9.362206314E0
1.375071346E1,-1.742825775E0,-8.745264130E0,-2.227368164E0,9.191205325E0
1.376065246E1,-2.117945709E0,-8.890462189E0,-1.979633331E0,9.351200997E0
1.377059146E1,-2.716850281E0,-9.114995270E0,-1.522184601E0,9.632313335E0
1.378053046E1,-3.304528198E0,-9.386829987E0,2.446961517E0,1.024793172E1
1.379046946E1,-3.779939575E0,-9.520651703E0,8.414901123E0,1.325674594E1
1.380040746E1,-3.847000122E0,-9.316176910E0,3.107388153E0,1.054734200E1
1.381034646E1,-3.642375641E0,-9.021888885E0,-4.797523499E-1,9.741228962E0
1.382028546E1,-3.280428314E0,-8.752598877E0,-1.731150055E0,9.506107381E0
1.383022446E1,-3.179987183E0,-8.403225403E0,-2.114951935E0,9.230359545E0
1.384016346E1,-3.148103485E0,-7.940986633E0,-1.465751953E0,8.667078692E0
1.385010246E1,-3.416495361E0,-7.642207947E0,-1.914518738E-1,8.373316946E0
1.386004146E1,-3.875890045E0,-7.733967133E0,1.933978271E-1,8.652986419E0
1.386998046E1,-4.310586090E0,-8.011789398E0,1.481918335E-2,9.097809704E0
1.387991846E1,-4.688550110E0,-8.211025085E0,-4.058061218E-1,9.464043200E0
1.388985746E1,-4.976102142E0,-8.310867462E0,-6.623725891E-1,9.709317584E0
1.389979646E1,-5.430856476E0,-8.351283417E0,-3.427871704E-1,9.967729923E0
1.390973546E1,-5.834117889E0,-8.201744385E0,3.088078308E-1,1.006980163E1
1.391967446E1,-6.013295288E0,-8.033494263E0,8.457412720E-1,1.007035395E1
1.392961346E1,-5.859864349E0,-7.961793365E0,8.933422852E-1,9.926037690E0
1.393955246E1,-5.445675659E0,-7.987240448E0,6.262976074E-1,9.687292813E0
1.394949146E1,-4.923262024E0,-8.152496796E0,4.555027771E-1,9.534631390E0
1.395942946E1,-4.328698425E0,-8.362360382E0,7.354206848E-1,9.444974579E0
1.396936846E1,-3.897894287E0,-8.452472992E0,1.287921753E0,9.396628225E0
1.397930746E1,-3.848047943E0,-8.546178131E0,1.860181732E0,9.555360260E0
1.398924646E1,-4.018244019E0,-8.369246063E0,2.132615204E0,9.525681722E0
1.399918546E1,-4.518803101E0,-8.179740143E0,1.740879822E0,9.505703173E0
1.400912446E1,-5.434449005E0,-8.463699646E0,6.310876465E-1,1.007798191E1
1.401906346E1,-6.425837402E0,-9.105714569E0,-8.629554749E-1,1.117810880E1
1.402900246E1,-6.959926758E0,-9.444909210E0,-1.575922852E0,1.183766967E1
1.403894046E1,-7.193590851E0,-9.391470337E0,-9.410929871E-1,1.186731311E1
1.404887946E1,-7.222331085E0,-9.090895386E0,3.432362366E-1,1.161569009E1
1.405881846E1,-7.134912872E0,-9.161997528E0,8.949888611E-1,1.164689596E1
1.406875746E1,-6.954987030E0,-9.585466919E0,6.906637573E-1,1.186296915E1
1.407869646E1,-6.657405853E0,-1.002839584E1,7.708969116E-1,1.206167724E1
1.408863546E1,-6.444099426E0,-1.048479675E1,1.268312531E0,1.237198436E1
1.409857446E1,-6.649023285E0,-1.105136856E1,1.800755310E0,1.302247969E1
1.410851346E1,-6.903643799E0,-1.153171967E1,2.399659882E0,1.365281010E1
1.411845146E1,-7.094496918E0,-1.168739594E1,3.341501312E0,1.407454231E1
1.412839046E1,-7.070397034E0,-1.133712433E1,4.388424225E0,1.406339822E1
1.413832946E1,-7.305108948E0,-1.076621155E1,4.528233490E0,1.377609619E1
1.414826846E1,-8.177644501E0,-1.038270905E1,3.902235260E0,1.378049189E1
1.415820746E1,-8.939111023E0,-9.967622223E0,2.955454102E0,1.371115997E1
1.416814646E1,-9.268426208E0,-9.231602783E0,1.429826660E0,1.315943079E1
1.417808546E1,-8.896599426E0,-8.625812531E0,7.515870667E-1,1.241446762E1
1.418802446E1,-7.536827087E0,-9.078321533E0,1.050814819E0,1.184583877E1
1.419796346E1,-6.035299530E0,-1.076276871E1,1.988315277E0,1.249861706E1
1.420790146E1,-4.994962921E0,-1.299687286E1,2.180964661E0,1.409343697E1
1.421784046E1,-4.170327759E0,-1.460168564E1,-7.322772217E-1,1.520319332E1
1.422777946E1,-4.002975769E0,-1.492471390E1,-3.519780579E0,1.584802055E1
1.423771846E1,-3.639082489E0,-1.521226593E1,-3.573069763E0,1.604440038E1
1.424765746E1,-3.428320770E0,-1.579724945E1,-2.054328003E0,1.629499116E1
1.425759646E1,-3.241958313E0,-1.627775024E1,6.366261292E-1,1.660965802E1
1.426753546E1,-2.911295929E0,-1.611159576E1,3.128194885E0,1.666867617E1
1.427747446E1,-2.753074951E0,-1.468625977E1,3.545077972E0,1.535686249E1
1.428741246E1,-2.950065308E0,-1.288864792E1,1.878593445E0,1.335474612E1
1.429735146E1,-3.328927460E0,-1.124746078E1,1.960922241E-2,1.172977053E1
1.430729046E1,-3.412154388E0,-9.839488678E0,-1.859433289E0,1.057902770E1
1.431722946E1,-3.322790222E0,-8.655450897E0,-2.879112854E0,9.708092290E0
1.432716846E1,-3.124752045E0,-8.007747803E0,-2.831212463E0,9.050075371E0
1.433710746E1,-2.974165192E0,-7.649393005E0,-1.916315002E0,8.427997101E0
1.434704646E1,-2.822680206E0,-7.104675751E0,-9.398954773E-1,7.702424591E0
1.435698546E1,-2.779869232E0,-6.608906708E0,-8.382568359E-1,7.218586797E0
1.436692346E1,-2.971770172E0,-6.218219147E0,-1.064735870E0,6.973616693E0
1.437686296E1,-3.052153015E0,-6.052064667E0,-1.325044556E0,6.906436696E0
1.438680196E1,-3.084186401E0,-5.908662872E0,-1.293310547E0,6.789488557E0
1.439674096E1,-3.198548584E0,-5.792803802E0,-1.081650696E0,6.705017313E0
1.440667996E1,-3.280278625E0,-5.712121582E0,-8.262817383E-1,6.638622021E0
1.441661896E1,-3.288960571E0,-5.701793060E0,-6.962022400E-1,6.619093843E0
1.442655796E1,-3.071462860E0,-5.911506958E0,-7.985893250E-1,6.709511422E0
1.443649696E1,-2.394121399E0,-6.159391479E0,-1.205592957E0,6.717393471E0
1.444643496E1,-1.652563477E0,-6.369105377E0,-1.548230438E0,6.759695765E0
1.445637396E1,-9.358538818E-1,-6.413413239E0,-1.881736908E0,6.748972192E0
1.446631296E1,-7.050338745E-2,-6.239924011E0,-2.180365906E0,6.610266097E0
1.447625196E1,1.091230774E0,-6.092779999E0,-2.190095673E0,6.565765132E0
1.448619096E1,2.385439453E0,-5.929170227E0,-1.815724182E0,6.643962317E0
1.449612996E1,3.462449799E0,-5.688470764E0,-1.198856964E0,6.766425664E0
1.450606896E1,3.722309418E0,-5.443879395E0,-7.053332520E-1,6.632413230E0
1.451600796E1,3.523971863E0,-5.266198883E0,-1.562750244E-1,6.338426481E0
1.452594696E1,3.378175049E0,-5.214256897E0,5.466632080E-1,6.236936933E0
1.453588496E1,3.527564392E0,-5.346282349E0,1.849853210E0,6.666963506E0
1.454582396E1,3.606150970E0,-6.035748596E0,4.045187988E0,8.111604761E0
1.455576296E1,9.430389404E-1,-6.960226135E0,6.480773163E0,9.556908030E0
1.456570196E1,-3.382516022E0,-8.261021118E0,9.353898468E0,1.292986083E1
1.457564096E1,-9.005123749E0,-1.029843430E1,1.673669586E1,2.161635934E1
1.458557996E1,-1.717139191E1,-1.272893005E1,2.221200989E1,3.082621844E1
1.459551896E1,-2.060659836E1,-1.491902573E1,1.608135864E1,3.009683240E1
1.460545796E1,-1.835872284E1,-1.512080612E1,1.017479141E1,2.586905221E1
1.461539596E1,-1.653371796E1,-1.305974213E1,8.366701355E0,2.266985632E1
1.462533496E1,-1.372705444E1,-1.018347336E1,7.533084869E0,1.867839717E1
1.463527396E1,-9.579030304E0,-7.254663849E0,3.714974670E0,1.257732109E1
1.464521296E1,-5.998625793E0,-4.489613800E0,5.864804077E-1,7.515590646E0
1.465515196E1,-3.414399719E0,-2.477947083E0,1.009051666E0,4.337802722E0
1.466509096E1,-2.216291199E0,-1.426383820E0,2.908302155E0,3.924887119E0
1.467502996E1,-2.886896667E0,-2.492017822E0,3.670367432E0,5.293006922E0
1.468496896E1,-5.230572968E0,-6.109395447E0,6.270460510E-1,8.067018845E0
1.469490796E1,-7.214996338E0,-1.010473709E1,-3.989503784E0,1.304139656E1
1.470484596E1,-8.524922333E0,-1.344743591E1,-5.773943024E0,1.693653599E1
1.471478496E1,-1.120719452E1,-1.563034653E1,1.616189117E0,1.930080332E1
1.472472396E1,-1.273461823E1,-1.696182770E1,5.962550812E0,2.203238780E1
1.473466296E1,-8.339308319E0,-1.586700439E1,-5.948629761E-1,1.793487535E1
1.474460196E1,-3.366199951E0,-1.199590439E1,-4.803061981E0,1.335299325E1
1.475454096E1,-2.664459229E-2,-8.783135376E0,-3.132236481E0,9.324970903E0
1.476447996E1,2.646047516E0,-6.381679230E0,-4.252656555E-1,6.921578442E0
1.477441896E1,2.610571289E0,-5.213508453E0,-3.662882996E-1,5.842081818E0
1.478435696E1,1.225202179E0,-5.406457214E0,-2.173779602E0,5.954512385E0
1.479429596E1,1.237925720E-1,-6.294410706E0,-2.852168884E0,6.911569871E0
1.480423496E1,-7.155120850E-2,-7.577692108E0,-2.463876343E0,7.968514535E0
1.481417396E1,-2.782713318E-1,-9.202712860E0,-2.708018646E0,9.596912207E0
1.482411296E1,-2.850073242E-1,-1.087653214E1,-3.213517456E0,1.134490524E1
1.483405196E1,-4.393363953E-1,-1.222837097E1,-3.380270691E0,1.269457770E1
1.484399096E1,-1.245260468E0,-1.275332932E1,-3.162024536E0,1.319835147E1
1.485392996E1,-2.069895630E0,-1.233809280E1,-2.934946747E0,1.285017176E1
1.486386796E1,-2.033521271E0,-1.136766083E1,-2.605182495E0,1.183832325E1
1.487380696E1,-1.606609039E0,-1.023047562E1,-2.270029449E0,1.060173843E1
1.488374596E1,-9.562115479E-1,-9.419312439E0,-2.045795746E0,9.686230824E0
1.489368496E1,-1.469943237E-1,-8.936865692E0,-2.146985321E0,9.192318625E0
1.490362396E1,3.284170532E-1,-8.752299500E0,-2.460583191E0,9.097531200E0
1.491356296E1,-2.233355713E-1,-8.955876160E0,-2.287543030E0,9.246104568E0
1.492350196E1,-1.124311981E0,-9.265282745E0,-1.893113251E0,9.523309276E0
1.493344096E1,-1.938468933E0,-9.485474854E0,-7.683522034E-1,9.711964791E0
1.494337996E1,-3.437900848E0,-9.312285004E0,7.354655914E0,1.235430200E1
1.495331796E1,-3.948638763E0,-8.875343628E0,6.774013367E0,1.184275009E1
1.496325696E1,-3.851939850E0,-8.482560425E0,3.038681030E-2,9.316232893E0
1.497319596E1,-3.506907349E0,-8.605754242E0,-2.113904114E0,9.530267353E0
1.498313496E1,-3.072660370E0,-8.696914673E0,-2.048639832E0,9.448517965E0
1.499307396E1,-3.022814026E0,-8.580606537E0,-1.571282501E0,9.232179692E0
1.500301296E1,-3.173400879E0,-8.322094116E0,-7.394622803E-1,8.937255064E0
1.501295196E1,-3.229534149E0,-7.952662354E0,1.215472412E-1,8.584259028E0
1.502289096E1,-3.329077148E0,-7.608827362E0,5.598358154E-1,8.324087015E0
1.503282896E1,-3.551215210E0,-7.314539337E0,7.702981567E-1,8.167433773E0
1.504276796E1,-3.974983978E0,-7.149282990E0,9.412426758E-1,8.233995547E0
1.505270696E1,-4.696633301E0,-7.291936340E0,8.753796387E-1,8.717625219E0
1.506264596E1,-5.263953552E0,-7.589367828E0,5.818400574E-1,9.254525860E0
1.507258496E1,-5.627098389E0,-8.096363525E0,2.466870117E-1,9.862869415E0
1.508252396E1,-5.881569214E0,-8.614286499E0,1.766326904E-2,1.043068072E1
1.509246296E1,-6.000122681E0,-9.064250793E0,-1.392105103E-2,1.087024877E1
1.510240196E1,-5.863307190E0,-9.316476288E0,6.855743408E-2,1.100816977E1
1.511234096E1,-5.746549988E0,-9.491163025E0,3.329077148E-1,1.110026305E1
1.512227896E1,-5.921985168E0,-9.638606415E0,7.378157043E-1,1.133653448E1
1.513221796E1,-6.253246307E0,-9.451645203E0,1.125509491E0,1.138874260E1
1.514215696E1,-6.451583862E0,-8.852141876E0,1.234632568E0,1.102305165E1
1.515209596E1,-6.485263824E0,-8.353528748E0,8.533753967E-1,1.060982276E1
1.516203496E1,-6.616690521E0,-8.265661469E0,2.145039368E-1,1.058998418E1
1.517197396E1,-7.000791779E0,-8.539142761E0,-1.312770081E-1,1.104288360E1
1.518191296E1,-7.403005371E0,-8.884774017E0,3.715274048E-1,1.157072731E1
1.519185196E1,-7.558232574E0,-9.402547302E0,1.290466461E0,1.213260397E1
1.520179096E1,-7.290140076E0,-1.016072067E1,1.616039429E0,1.260943973E1
1.521172896E1,-6.875801697E0,-1.071217392E1,1.448088684E0,1.281109987E1
1.522166796E1,-6.451134796E0,-1.099478622E1,1.606758728E0,1.284850722E1
1.523160696E1,-6.165079651E0,-1.113294891E1,2.192790070E0,1.291352341E1
1.524154596E1,-6.557114410E0,-1.134894974E1,2.952909393E0,1.343555296E1
1.525148496E1,-7.624544678E0,-1.164473465E1,3.460054779E0,1.434243723E1
1.526142396E1,-8.922794952E0,-1.180130905E1,4.042194214E0,1.533709553E1
1.527136296E1,-1.000130219E1,-1.142005188E1,5.440286865E0,1.612576670E1
1.528130196E1,-1.078237793E1,-1.039423508E1,6.974446564E0,1.652097762E1
1.529123996E1,-1.113220047E1,-9.135951691E0,3.793710938E0,1.489240556E1
1.530117896E1,-1.021700363E1,-8.122858429E0,-1.526824951E0,1.314150626E1
1.531111796E1,-9.503886566E0,-7.640261993E0,-8.869056702E-1,1.222636761E1
1.532105696E1,-8.752149811E0,-8.137378235E0,2.199226685E0,1.215128178E1
1.533099596E1,-7.299720154E0,-1.038390656E1,2.475552063E0,1.293212232E1
1.534093496E1,-5.946683807E0,-1.218960159E1,-1.261726227E0,1.362135780E1
1.535087396E1,-5.015919342E0,-1.302022430E1,-4.604874115E0,1.469321454E1
1.536081296E1,-4.876409454E0,-1.330642914E1,-4.934788055E0,1.500641725E1
1.537075196E1,-4.527035980E0,-1.391296783E1,-3.695664825E0,1.509048267E1
1.538068996E1,-4.052522736E0,-1.489941650E1,-2.025138702E0,1.557294896E1
1.539062896E1,-3.651806030E0,-1.586535782E1,-3.472778320E-1,1.628391439E1
1.540056796E1,-3.091521149E0,-1.604962463E1,4.034111023E-1,1.634963897E1
1.541050696E1,-2.911744995E0,-1.546329391E1,2.195933533E-1,1.573657964E1
1.542044596E1,-2.968327332E0,-1.445588882E1,-4.252656555E-1,1.476362218E1
1.543038496E1,-2.898123322E0,-1.333501968E1,-9.116043091E-1,1.367672809E1
1.544032396E1,-2.839145966E0,-1.201102295E1,-1.053060150E0,1.238686231E1
1.545026296E1,-3.011138306E0,-1.061936691E1,-1.247805176E0,1.110832684E1
1.546020096E1,-2.708168335E0,-9.339827728E0,-1.210083618E0,9.799533667E0
1.547013996E1,-2.198178864E0,-8.657845917E0,-1.158590698E0,9.007364689E0
1.548007896E1,-1.618135071E0,-8.209378510E0,-1.674567719E0,8.533254576E0
1.549001796E1,-1.357377319E0,-7.760611725E0,-1.878593445E0,8.099301258E0
1.549995696E1,-1.431173859E0,-7.447911987E0,-1.723815308E0,7.777608296E0
1.550989596E1,-1.466500397E0,-7.206164703E0,-1.082698517E0,7.433146657E0
1.551983496E1,-1.525627441E0,-6.967860260E0,-6.613247681E-1,7.163516325E0
1.552977396E1,-1.878892822E0,-6.662345581E0,-6.294410706E-1,6.950775708E0
1.553971296E1,-2.147883453E0,-6.345454559E0,-2.345622253E-1,6.703224324E0
1.554965096E1,-2.336491241E0,-6.065237274E0,1.640588379E-1,6.501785125E0
1.555958996E1,-2.610720978E0,-6.004613342E0,8.936416626E-2,6.548223528E0
1.556952896E1,-2.433489532E0,-6.130501556E0,-2.793191528E-1,6.601737637E0
1.557946796E1,-1.779798889E0,-6.193670197E0,-9.568103027E-1,6.514961285E0
1.558940696E1,-7.217990112E-1,-6.177503815E0,-1.439706116E0,6.383987852E0
1.559934596E1,6.180647278E-1,-6.112688599E0,-1.492396545E0,6.322516379E0
1.560928496E1,1.754351807E0,-5.992189178E0,-1.286424866E0,6.374870222E0
1.561922396E1,2.730621643E0,-5.858367462E0,-9.954299927E-1,6.539697604E0
1.562916296E1,3.620820465E0,-5.677992554E0,-7.586224365E-1,6.776831729E0
1.563910096E1,4.073329468E0,-5.447471924E0,-3.981719971E-1,6.813626366E0
1.564903996E1,4.124523010E0,-5.212161255E0,3.128494263E-1,6.654035600E0
1.565897896E1,4.247118073E0,-5.027595062E0,1.386117554E0,6.725774744E0
1.566891796E1,4.293820953E0,-4.995262299E0,2.617606659E0,7.088117411E0
1.567885696E1,2.763104095E0,-5.315296783E0,4.030518494E0,7.220263393E0
1.568879596E1,-1.151705017E0,-5.918991394E0,5.792654114E0,8.361562369E0
1.569873496E1,-5.007237396E0,-7.012018433E0,8.230933685E0,1.191591785E1
1.570867396E1,-9.091045074E0,-8.426576843E0,1.181328415E1,1.712331686E1
1.571861196E1,-1.386192398E1,-9.979747009E0,1.458986023E1,2.246357737E1
1.572855096E1,-1.713262253E1,-1.211999634E1,1.462129486E1,2.557739880E1
1.573848996E1,-1.643537247E1,-1.387689285E1,1.295106812E1,2.510816179E1
1.574842896E1,-1.559681625E1,-1.368035156E1,1.134805161E1,2.364721910E1
1.575836796E1,-1.461425949E1,-1.223361008E1,9.518256683E0,2.130340363E1
1.576830696E1,-1.242760666E1,-9.844428406E0,5.114115143E0,1.665870198E1
1.577824596E1,-1.040097107E1,-6.889123993E0,1.320404205E0,1.254526587E1
1.578818496E1,-8.569080505E0,-3.818110199E0,4.998106384E-1,9.394515255E0
1.579812396E1,-6.747069397E0,-1.254840546E0,1.444196777E0,7.013078823E0
1.580806196E1,-5.632337494E0,4.017645264E-1,2.415227509E0,6.141495282E0
1.581800096E1,-5.846991119E0,1.398092651E-1,1.042282562E0,5.940808423E0
1.582793996E1,-6.555018768E0,-2.972518616E0,-4.765340424E0,8.632068543E0
1.583787896E1,-5.983357544E0,-7.353009338E0,-1.008198441E1,1.383884834E1
1.584781796E1,-5.715115356E0,-1.160087585E1,-1.055739578E1,1.669435443E1
1.585775696E1,-7.978857880E0,-1.510957947E1,-4.511468353E0,1.767243366E1
1.586769596E1,-1.422581726E1,-1.952839050E1,1.562061676E1,2.877039416E1
1.587763496E1,-1.179741714E1,-2.340652588E1,1.849254456E1,3.207832148E1
1.588757396E1,-2.910996552E0,-2.022040146E1,1.829645233E0,2.051063475E1
1.589751196E1,2.026635590E0,-1.318203781E1,-8.256829834E0,1.568593675E1
1.590745096E1,4.286785583E0,-8.946894836E0,-3.963907013E0,1.068344592E1
1.591738996E1,6.484066315E0,-6.458469543E0,2.115401001E0,9.393075439E0
1.592732896E1,5.911057892E0,-5.153483276E0,7.957452393E-1,7.882398478E0
1.593726796E1,3.376827850E0,-5.618266754E0,-3.321443024E0,7.348460479E0
1.594720696E1,2.065404968E0,-6.445746002E0,-4.124073944E0,7.926003098E0
1.595714596E1,1.867366791E0,-7.263196106E0,-3.961362305E0,8.481360016E0
1.596708496E1,1.594035187E0,-8.333021393E0,-4.053420868E0,9.402681237E0
1.597702396E1,7.911048889E-1,-9.562265167E0,-3.850442963E0,1.033869784E1
1.598696196E1,-8.246351624E-1,-1.045455963E1,-3.225642242E0,1.097190084E1
1.599690096E1,-1.515598297E0,-1.087219116E1,-2.716251526E0,1.130838632E1
1.600683996E1,-1.178648987E0,-1.087892715E1,-2.545756073E0,1.123481835E1
1.601677896E1,-5.260061646E-1,-1.050829788E1,-2.631527710E0,1.084554955E1
1.602671796E1,1.823208618E-1,-9.936337280E0,-3.107537842E0,1.041253240E1
1.603665696E1,5.363346863E-1,-9.583371277E0,-3.977378998E0,1.038981249E1
1.604659596E1,-9.759704590E-2,-9.758507080E0,-4.140090637E0,1.060086488E1
1.605653496E1,-1.168320465E0,-1.005099884E1,-3.718417511E0,1.078026805E1
1.606647396E1,-1.952240295E0,-1.020368134E1,-3.152893524E0,1.085666121E1
1.607641196E1,-2.492915955E0,-1.019005966E1,-2.499202881E0,1.078415323E1
1.608635096E1,-3.040327606E0,-1.011491592E1,-1.789678345E0,1.071251906E1
1.609628996E1,-3.831731873E0,-9.828262024E0,3.502716064E-1,1.055460060E1
1.610622896E1,-5.825286255E0,-8.339757385E0,7.242389374E0,1.248750243E1
1.611616796E1,-6.236481171E0,-8.493487701E0,3.578009491E0,1.112812575E1
1.612610696E1,-5.885012054E0,-9.207652588E0,-4.761598206E-1,1.093805107E1
1.613604596E1,-5.440885620E0,-9.089248810E0,-1.649120636E0,1.072088052E1
1.614598496E1,-4.930147705E0,-8.476123810E0,-8.416996765E-1,9.841721881E0
1.615592396E1,-4.448000336E0,-7.605085144E0,1.097667389E0,8.878451483E0
1.616586196E1,-3.822301483E0,-6.992708588E0,2.589165802E0,8.379244690E0
1.617580096E1,-3.684737549E0,-7.033274231E0,2.360441437E0,8.283472761E0
1.618573996E1,-4.256099396E0,-7.267986145E0,1.603016510E0,8.573661213E0
1.619567896E1,-5.112468567E0,-7.311395874E0,1.468596039E0,9.041604880E0
1.620561796E1,-5.393284607E0,-7.501650238E0,1.328936462E0,9.334256653E0
1.621555696E1,-5.184618530E0,-7.967631226E0,5.927673340E-1,9.524431204E0
1.622549596E1,-4.774770813E0,-8.525820465E0,1.329235840E-1,9.772702779E0
1.623543496E1,-4.498445435E0,-9.096882935E0,-1.911524963E-1,1.015016402E1
1.624537296E1,-4.455335083E0,-9.463620300E0,-4.870870972E-1,1.047126419E1
1.625531196E1,-4.462969208E0,-9.479636993E0,-3.878434753E-1,1.048484784E1
1.626525096E1,-4.428690491E0,-8.993148651E0,3.802093506E-1,1.003167889E1
1.627518996E1,-4.516707458E0,-8.229287109E0,1.414408722E0,9.493279972E0
1.628512896E1,-4.912334747E0,-7.973918152E0,1.529818726E0,9.489718051E0
1.629506796E1,-5.357658691E0,-8.432414703E0,7.610174561E-1,1.001944469E1
1.630500696E1,-5.599405975E0,-9.131910095E0,5.328918457E-2,1.071204784E1
1.631494596E1,-5.672304382E0,-9.712402954E0,5.927673340E-2,1.124763628E1
1.632488496E1,-5.889652405E0,-1.001372635E1,5.767506409E-1,1.163165346E1
1.633482396E1,-6.250252533E0,-9.967472534E0,9.928852844E-1,1.180686185E1
