"Time (s)","Acceleration x (m/s^2)","Acceleration y (m/s^2)","Acceleration z (m/s^2)","Absolute acceleration (m/s^2)"
2.396458352E-3,1.493010269E1,-4.114344177E0,-1.654659119E0,1.557477740E1
1.233545833E-2,1.548335220E1,-4.133354645E0,-1.468895416E0,1.609274588E1
2.227545835E-2,1.573288330E1,-3.782633972E0,-1.509011993E0,1.625143237E1
3.221445833E-2,1.522888138E1,-3.159779205E0,-1.989512787E0,1.567996154E1
4.215445835E-2,1.409199554E1,-2.564916229E0,-2.991828461E0,1.463264061E1
5.209345833E-2,1.296648605E1,-2.158062286E0,-4.090244293E0,1.376652069E1
6.203345835E-2,1.187765030E1,-1.861828308E0,-5.045108643E0,1.303833204E1
7.197345834E-2,1.101708984E1,-1.554667053E0,-5.999823303E0,1.264085195E1
8.191245835E-2,1.060514648E1,-1.333127747E0,-6.784341888E0,1.265992324E1
9.185245834E-2,1.057341248E1,-1.604513397E0,-6.919061737E0,1.273754018E1
1.017914583E-1,1.063388672E1,-2.291434937E0,-6.666686554E0,1.275832789E1
1.117314583E-1,1.051653076E1,-3.011437683E0,-6.016139374E0,1.248439462E1
1.216704583E-1,1.017329453E1,-3.647015991E0,-5.186115417E0,1.198717816E1
1.316104583E-1,9.678722992E0,-4.825664978E0,-3.899840240E0,1.149667235E1
1.415494583E-1,9.966873779E0,-5.244793396E0,-3.120560760E0,1.168692989E1
1.514894583E-1,9.869127045E0,-5.153932343E0,-2.514321442E0,1.141422356E1
1.614284583E-1,9.903854828E0,-5.707032166E0,-2.041155396E0,1.161132516E1
1.713684583E-1,1.017539017E1,-5.973627777E0,-1.402733002E0,1.188235893E1
1.813084584E-1,1.053314621E1,-5.796546021E0,-1.478325806E0,1.211332168E1
1.912474583E-1,1.052745804E1,-6.050268402E0,-1.448837128E0,1.222833797E1
2.011874584E-1,1.039947418E1,-6.192921753E0,-1.015188904E0,1.214627316E1
2.111264583E-1,1.011162277E1,-6.064189453E0,-8.765771484E-1,1.182318469E1
2.210664584E-1,9.757309570E0,-5.845643921E0,-6.959028625E-1,1.139565372E1
2.310054583E-1,9.517059174E0,-5.531746674E0,-6.135740662E-1,1.102502198E1
2.409454584E-1,9.358089752E0,-5.226381683E0,-6.017486572E-1,1.073550235E1
2.508844583E-1,9.251810760E0,-4.963228912E0,-7.164102173E-1,1.052344464E1
2.608244584E-1,9.102571106E0,-4.808301086E0,-9.828561401E-1,1.034130390E1
2.707634583E-1,8.867110748E0,-4.723128204E0,-1.334025879E0,1.013475299E1
2.807034584E-1,8.546926575E0,-4.758604431E0,-1.709594879E0,9.930608474E0
2.906434583E-1,8.281827850E0,-4.894222412E0,-2.004930725E0,9.826588054E0
3.005824584E-1,8.053702240E0,-5.028792572E0,-2.206711121E0,9.747843273E0
3.105224583E-1,7.853418732E0,-5.147196350E0,-2.401905212E0,9.692211548E0
3.204614584E-1,7.683821411E0,-5.280569000E0,-2.559228058E0,9.668255722E0
3.304014583E-1,7.499853973E0,-5.402116241E0,-2.632874908E0,9.610551482E0
3.403404584E-1,7.282356262E0,-5.492677917E0,-2.634072418E0,9.494238302E0
3.502804583E-1,6.997199249E0,-5.582341461E0,-2.558180237E0,9.309544546E0
3.602194584E-1,6.657405853E0,-5.625900879E0,-2.408790894E0,9.042902574E0
3.701595833E-1,6.465953979E0,-5.524711304E0,-2.181862793E0,8.780177737E0
3.800995833E-1,6.410419464E0,-5.413941650E0,-1.927691345E0,8.609310996E0
3.900385833E-1,6.425088959E0,-5.318290558E0,-1.684297485E0,8.508985874E0
3.999785833E-1,6.349945221E0,-5.173391876E0,-1.522334290E0,8.330863671E0
4.099175833E-1,6.282435608E0,-5.069358215E0,-1.419348450E0,8.196458986E0
4.198575833E-1,6.246510315E0,-5.070406036E0,-1.392554169E0,8.164993301E0
4.297965833E-1,6.220464478E0,-5.166955261E0,-1.451232147E0,8.215697154E0
4.397365833E-1,6.238726501E0,-5.301076355E0,-1.556463318E0,8.333408483E0
4.496755833E-1,6.284680939E0,-5.499563599E0,-1.693428497E0,8.521156867E0
4.596155833E-1,6.365363159E0,-5.788013763E0,-1.889969788E0,8.808571807E0
4.695545833E-1,6.469696198E0,-6.113586731E0,-2.025887146E0,9.128917260E0
4.794945833E-1,6.588249664E0,-6.406527557E0,-2.061962128E0,9.418084561E0
4.894345833E-1,6.720574493E0,-6.635251923E0,-2.007325745E0,9.655156459E0
4.993735833E-1,6.794820099E0,-6.766079865E0,-1.853445740E0,9.766507975E0
5.093135833E-1,6.849905548E0,-6.775659943E0,-1.707050171E0,9.784926876E0
5.192525834E-1,6.968309326E0,-6.798861694E0,-1.626667328E0,9.870557320E0
5.291925833E-1,7.163503418E0,-6.994205475E0,-1.742227020E0,1.016218709E1
5.391315834E-1,7.351961517E0,-7.354057159E0,-1.971550140E0,1.058397396E1
5.490715833E-1,7.386838989E0,-7.695796509E0,-2.130519562E0,1.087794961E1
5.590105834E-1,7.210655365E0,-7.798033905E0,-2.064806213E0,1.081971849E1
5.689505833E-1,6.911876678E0,-7.557633820E0,-1.752405853E0,1.039051464E1
5.788895834E-1,6.630012817E0,-7.051835632E0,-1.342109070E0,9.771730272E0
5.888295833E-1,6.503825226E0,-6.391109619E0,-9.289682007E-1,9.165642730E0
5.987695833E-1,6.594686279E0,-5.574407959E0,-5.822891235E-1,8.654650301E0
6.087085833E-1,6.723867645E0,-4.772675171E0,-4.249662781E-1,8.256477502E0
6.186485833E-1,7.031777344E0,-4.204606476E0,-4.706213379E-1,8.206466516E0
6.285875833E-1,7.589068451E0,-3.934568024E0,-6.887178040E-1,8.576078224E0
6.385275833E-1,8.118068390E0,-3.939507751E0,-1.069376221E0,9.086601191E0
6.484665833E-1,8.422535248E0,-4.154460754E0,-1.561103668E0,9.520277770E0
6.584065833E-1,8.491841125E0,-4.505780182E0,-2.138902130E0,9.848264978E0
6.683455833E-1,8.471782837E0,-4.939578094E0,-2.670895844E0,1.016386840E1
6.782855833E-1,8.475525055E0,-5.378166046E0,-3.079546051E0,1.049965708E1
6.882245833E-1,8.408015442E0,-5.741610260E0,-3.318598938E0,1.070859052E1
6.981645833E-1,8.270301819E0,-5.913452911E0,-3.429518280E0,1.072979092E1
7.081045833E-1,8.172405396E0,-5.862558746E0,-3.359463959E0,1.060395224E1
7.180435833E-1,8.213869171E0,-5.630241852E0,-3.077899475E0,1.042308665E1
7.279835833E-1,8.487200775E0,-5.322781219E0,-2.675087128E0,1.036921733E1
7.379225833E-1,8.759484558E0,-5.008584595E0,-2.214944000E0,1.033055982E1
7.478625833E-1,8.812773743E0,-4.682263184E0,-1.816921692E0,1.014345967E1
7.578015833E-1,8.725056152E0,-4.329147491E0,-1.535057831E0,9.860249764E0
7.677415833E-1,8.633446655E0,-4.026476898E0,-1.326840820E0,9.618181945E0
7.776805833E-1,8.566086731E0,-3.779041443E0,-1.239721985E0,9.444358459E0
7.876205833E-1,8.478818207E0,-3.564088440E0,-1.235530701E0,9.280065770E0
7.975605833E-1,8.374485168E0,-3.414100342E0,-1.303788757E0,9.137173967E0
8.074995833E-1,8.309520264E0,-3.319646759E0,-1.428778839E0,9.061434246E0
8.174395833E-1,8.333769836E0,-3.230282593E0,-1.588347015E0,9.077956354E0
8.273785833E-1,8.368647308E0,-3.188220062E0,-1.720522156E0,9.119166707E0
8.373185833E-1,8.427175598E0,-3.214265900E0,-1.872156830E0,9.211610339E0
8.472575833E-1,8.469387817E0,-3.257675629E0,-2.039359131E0,9.300643320E0
8.571975833E-1,8.505013733E0,-3.284469910E0,-2.245031433E0,9.389524339E0
8.671365833E-1,8.547974396E0,-3.317102051E0,-2.449955292E0,9.490696140E0
8.770765833E-1,8.567433929E0,-3.390299835E0,-2.685116272E0,9.597130118E0
8.870155833E-1,8.608748016E0,-3.415746918E0,-2.906954956E0,9.707124009E0
8.969555833E-1,8.680299225E0,-3.348836060E0,-3.049159241E0,9.790795150E0
9.068955833E-1,8.852590942E0,-3.269201660E0,-3.138224030E0,9.945073954E0
9.168345833E-1,9.086404724E0,-3.158731384E0,-3.182232513E0,1.013246952E1
9.267745833E-1,9.298363953E0,-3.024310913E0,-3.186573486E0,1.028398168E1
9.367135833E-1,9.448052673E0,-2.891986084E0,-3.165018311E0,1.037528909E1
9.466535833E-1,9.642348633E0,-2.747985535E0,-3.122806091E0,1.050134418E1
9.565925833E-1,9.904752960E0,-2.671045532E0,-3.150199127E0,1.073137316E1
9.665325833E-1,1.022508682E1,-2.708467712E0,-3.244652710E0,1.106417503E1
9.764715833E-1,1.054033127E1,-2.875520325E0,-3.328777771E0,1.142138178E1
9.864115833E-1,1.087338867E1,-3.188669128E0,-3.449875946E0,1.184482318E1
9.963515833E-1,1.126677063E1,-3.569327545E0,-3.576063538E0,1.234781155E1
1.006290583E0,1.173155411E1,-3.945644989E0,-3.679049377E0,1.291250868E1
1.016230583E0,1.214095276E1,-4.158053284E0,-3.742816772E0,1.336790254E1
1.026169583E0,1.243359421E1,-4.142785034E0,-3.780688019E0,1.364003426E1
1.036109583E0,1.276290939E1,-3.991449738E0,-3.955075378E0,1.394511199E1
1.046048583E0,1.311228287E1,-3.740721130E0,-3.981719971E0,1.420489530E1
1.055988583E0,1.357796448E1,-3.417992249E0,-3.881877594E0,1.452972003E1
1.065927583E0,1.414977539E1,-3.369044037E0,-3.881578217E0,1.505434325E1
1.075867583E0,1.472353226E1,-3.758683777E0,-4.232448578E0,1.577414742E1
1.085806583E0,1.499252289E1,-4.347259827E0,-4.545148315E0,1.625831430E1
1.095746583E0,1.488489670E1,-4.765190735E0,-4.638105011E0,1.630273629E1
1.105686583E0,1.452803879E1,-4.852608948E0,-4.469256134E0,1.595575053E1
1.115625583E0,1.384171600E1,-4.602030029E0,-4.075724487E0,1.514540565E1
1.125565583E0,1.305555084E1,-4.036056976E0,-3.485801239E0,1.410276476E1
1.135504583E0,1.234722382E1,-3.342399445E0,-2.928061066E0,1.312246591E1
1.145444583E0,1.171972870E1,-2.659968567E0,-2.503992920E0,1.227588914E1
1.155383583E0,1.119566849E1,-2.144590302E0,-2.293680267E0,1.162769236E1
1.165323583E0,1.084360062E1,-2.056723022E0,-2.310445404E0,1.127616699E1
1.175262583E0,1.070214478E1,-2.333048401E0,-2.511177979E0,1.123766134E1
1.185202583E0,1.063822769E1,-2.837050323E0,-2.786754913E0,1.135723320E1
1.195142583E0,1.056188644E1,-3.478316803E0,-3.001258850E0,1.151779874E1
1.205081583E0,1.047656387E1,-4.150269470E0,-3.141217804E0,1.169830657E1
1.215021583E0,1.032313293E1,-4.753814392E0,-3.247496796E0,1.181998563E1
1.224960583E0,1.000010468E1,-5.369933167E0,-3.464096375E0,1.186752878E1
1.234900583E0,9.646839294E0,-5.637726288E0,-3.013982391E0,1.157279378E1
1.244839583E0,9.647138672E0,-5.539081421E0,-2.942730560E0,1.150688362E1
1.254779583E0,9.774523773E0,-5.538931732E0,-2.783012695E0,1.157437857E1
1.264718583E0,9.970166931E0,-5.330115967E0,-2.469714203E0,1.157211533E1
1.274658583E0,1.016057098E1,-4.991071014E0,-2.140848083E0,1.152090375E1
1.284597583E0,1.020502853E1,-4.681215363E0,-1.858684845E0,1.138029411E1
1.294537583E0,1.016266663E1,-4.443809052E0,-1.652862854E0,1.121424039E1
1.304477583E0,1.004156845E1,-4.260140991E0,-1.440454559E0,1.100258186E1
1.314416583E0,9.920470276E0,-4.151167603E0,-1.282083893E0,1.083012752E1
1.324356583E0,9.770033112E0,-4.133055267E0,-1.187929688E0,1.067458991E1
1.334295583E0,9.601782990E0,-4.146527252E0,-1.155447235E0,1.052249890E1
1.344235583E0,9.420509949E0,-4.204307098E0,-1.189875641E0,1.038450817E1
1.354174583E0,9.204209747E0,-4.340823212E0,-1.249302063E0,1.025285223E1
1.364114583E0,8.991053009E0,-4.480333099E0,-1.376387787E0,1.013937189E1
1.374053333E0,8.828940125E0,-4.637805634E0,-1.512754211E0,1.008701393E1
1.383993333E0,8.704548798E0,-4.817432098E0,-1.678160248E0,1.008925387E1
1.393933333E0,8.530610504E0,-5.040617981E0,-1.808988190E0,1.007231768E1
1.403872333E0,8.368647308E0,-5.280868378E0,-1.907483368E0,1.007771410E1
1.413812333E0,8.242459717E0,-5.457351379E0,-1.944456482E0,1.007480706E1
1.423751333E0,8.046816559E0,-5.593418427E0,-1.912572784E0,9.984764448E0
1.433691333E0,7.777676239E0,-5.718258820E0,-1.852996674E0,9.829767458E0
1.443630333E0,7.499255219E0,-5.788762207E0,-1.829345856E0,9.648580361E0
1.453570333E0,7.222780151E0,-5.783972168E0,-1.780098267E0,9.422931444E0
1.463509333E0,6.969207458E0,-5.762416992E0,-1.684297485E0,9.198486844E0
1.473449333E0,6.696175232E0,-5.704936523E0,-1.586700439E0,8.938829999E0
1.483388333E0,6.427184601E0,-5.613626404E0,-1.495989075E0,8.663687818E0
1.493328333E0,6.197412415E0,-5.625002747E0,-1.452429657E0,8.494594072E0
1.503268333E0,6.009104004E0,-5.742209015E0,-1.419647827E0,8.431944927E0
1.513207333E0,5.849835205E0,-5.913901978E0,-1.427731018E0,8.439977748E0
1.523147333E0,5.713319092E0,-6.103108521E0,-1.461860046E0,8.486871241E0
1.533086333E0,5.610033875E0,-6.367309113E0,-1.535207520E0,8.623918340E0
1.543026333E0,5.556145935E0,-6.754104767E0,-1.637744293E0,8.897802831E0
1.552965333E0,5.457351379E0,-7.133116608E0,-1.706601105E0,9.142019686E0
1.562905333E0,5.350174255E0,-7.340136108E0,-1.692230988E0,9.239351079E0
1.572844333E0,5.285209351E0,-7.355554047E0,-1.594933319E0,9.196816053E0
1.582784333E0,5.248236237E0,-7.237749023E0,-1.442550201E0,9.055934276E0
1.592724333E0,5.315296783E0,-6.994654541E0,-1.304237823E0,8.881362978E0
1.602663333E0,5.631888428E0,-6.727759552E0,-1.274599457E0,8.865975391E0
1.612603333E0,6.182593231E0,-6.612798615E0,-1.507664795E0,9.177506073E0
1.622542333E0,6.673123169E0,-6.699917450E0,-1.973795471E0,9.659986295E0
1.632482333E0,6.976841583E0,-6.860982513E0,-2.433040466E0,1.008310892E1
1.642421333E0,7.188501434E0,-6.974147186E0,-2.753673706E0,1.038729997E1
1.652361333E0,7.352560272E0,-6.960974579E0,-2.862198029E0,1.052176255E1
1.662300333E0,7.446115723E0,-6.745273132E0,-2.798730011E0,1.042958478E1
1.672240333E0,7.373067627E0,-6.303541718E0,-2.551893311E0,1.003039999E1
1.682179333E0,7.316934357E0,-5.613626404E0,-2.153421936E0,9.470351409E0
1.692119333E0,7.497908020E0,-4.898264008E0,-1.752106476E0,9.125869387E0
1.702059333E0,7.875872040E0,-4.380490723E0,-1.425186310E0,9.124100798E0
1.711998333E0,8.303532715E0,-4.105213165E0,-1.314117279E0,9.355657909E0
1.721938333E0,8.750503235E0,-3.993844757E0,-1.360520782E0,9.714582832E0
1.731877333E0,9.142837372E0,-4.087400208E0,-1.517693939E0,1.012925025E1
1.741817333E0,9.397906952E0,-4.434827728E0,-1.768123169E0,1.054109158E1
1.751756333E0,9.530531158E0,-4.931794281E0,-2.117346954E0,1.093785981E1
1.761696333E0,9.405541077E0,-5.468877411E0,-2.434387665E0,1.114894912E1
1.771635333E0,9.256301422E0,-5.929918671E0,-2.727029114E0,1.132606460E1
1.781575333E0,9.218729553E0,-6.191724243E0,-2.925815735E0,1.148402462E1
1.791515333E0,9.082213440E0,-6.268813934E0,-3.013533325E0,1.143966836E1
1.801454333E0,8.908424835E0,-6.119125214E0,-3.057392120E0,1.123171283E1
1.811394333E0,8.906628571E0,-5.697751465E0,-3.016078033E0,1.099495934E1
1.821333333E0,8.992100830E0,-5.106780396E0,-2.818638611E0,1.071829310E1
1.831273333E0,8.981921997E0,-4.530029755E0,-2.458188171E0,1.035561594E1
1.841212333E0,8.985963593E0,-3.947890320E0,-2.074535980E0,1.003180339E1
1.851152333E0,8.904233551E0,-3.396886139E0,-1.744771729E0,9.688572596E0
1.861091333E0,8.780890045E0,-2.990032196E0,-1.489103394E0,9.394772559E0
1.871031333E0,8.694519653E0,-2.754122772E0,-1.359622650E0,9.221086595E0
1.880970333E0,8.652307434E0,-2.670895844E0,-1.316661987E0,9.150393835E0
1.890910333E0,8.586893463E0,-2.657423859E0,-1.342408447E0,9.088382769E0
1.900850333E0,8.493038635E0,-2.680775299E0,-1.435664520E0,9.021052825E0
1.910789333E0,8.424481201E0,-2.809058533E0,-1.603615265E0,9.024094152E0
1.920729333E0,8.375083923E0,-2.961591339E0,-1.798959045E0,9.063625523E0
1.930668333E0,8.371042328E0,-3.093018036E0,-1.984722748E0,9.142222630E0
1.940608333E0,8.423433380E0,-3.207679596E0,-2.191592560E0,9.276126144E0
1.950547333E0,8.466843109E0,-3.290158081E0,-2.437231750E0,9.404928019E0
1.960487333E0,8.456364899E0,-3.370241547E0,-2.635269928E0,9.476987020E0
1.970426333E0,8.530161438E0,-3.361559601E0,-2.806064758E0,9.588416790E0
1.980366333E0,8.656947784E0,-3.291954346E0,-2.861000519E0,9.693556227E0
1.990305333E0,8.773106232E0,-3.242856445E0,-2.882256317E0,9.787283196E0
2.000245333E0,8.910520477E0,-3.204236755E0,-2.837798767E0,9.885221809E0
2.010185333E0,9.025631104E0,-3.133284302E0,-2.774031372E0,9.948604796E0
2.020124333E0,9.191935272E0,-3.029999084E0,-2.699187012E0,1.004779473E1
2.030064333E0,9.423204346E0,-2.997366943E0,-2.676134949E0,1.024415380E1
2.040003333E0,9.714049530E0,-3.054697723E0,-2.709964600E0,1.053744962E1
2.049943333E0,1.007345215E1,-3.191064148E0,-2.780617676E0,1.092653482E1
2.059882333E0,1.046309189E1,-3.444038086E0,-2.891537018E0,1.138853268E1
2.069822333E0,1.084883972E1,-3.759881287E0,-3.021616516E0,1.187283441E1
2.079761333E0,1.127814697E1,-4.051624603E0,-3.156635742E0,1.239260305E1
2.089701333E0,1.170505920E1,-4.303999786E0,-3.284769287E0,1.289660941E1
2.099641333E0,1.212508575E1,-4.402944031E0,-3.356619873E0,1.332931047E1
2.109580333E0,1.259735367E1,-4.304149475E0,-3.410208435E0,1.374221757E1
2.119520333E0,1.298220337E1,-3.999532928E0,-3.430117035E0,1.401069487E1
2.129459333E0,1.335537735E1,-3.616928558E0,-3.426973572E0,1.425455802E1
2.139399333E0,1.389904678E1,-3.339106293E0,-3.524869995E0,1.472269815E1
2.149338333E0,1.462309113E1,-3.324586487E0,-3.743714905E0,1.545648960E1
2.159278333E0,1.533052002E1,-3.516637115E0,-3.922293549E0,1.621036605E1
2.169217333E0,1.581251770E1,-3.663631439E0,-3.983216858E0,1.671298680E1
2.179157333E0,1.580323700E1,-3.636837158E0,-3.886817322E0,1.667561792E1
2.189096333E0,1.536884033E1,-3.509901123E0,-3.714974670E0,1.619634823E1
2.199036333E0,1.463566498E1,-3.399730225E0,-3.510200500E0,1.542991777E1
2.208976333E0,1.371238495E1,-3.319347382E0,-3.160527649E0,1.445809472E1
2.218915333E0,1.283984940E1,-3.082988892E0,-2.733316040E0,1.348471615E1
2.228855333E0,1.208437042E1,-2.758014679E0,-2.468965759E0,1.263860931E1
2.238794333E0,1.145073807E1,-2.574346619E0,-2.350861359E0,1.196967886E1
2.248734333E0,1.113040421E1,-2.649340668E0,-2.348017273E0,1.167981545E1
2.258673333E0,1.100047440E1,-3.014132080E0,-2.414479065E0,1.165869368E1
2.268613333E0,1.089509354E1,-3.563639374E0,-2.560874634E0,1.174566591E1
2.278552333E0,1.072834030E1,-4.180356903E0,-2.722688141E0,1.183155527E1
2.288492333E0,1.052880524E1,-4.775219879E0,-2.825524292E0,1.190134665E1
2.298432333E0,1.027867538E1,-5.307063904E0,-2.909649353E0,1.192820834E1
2.308371333E0,9.663903809E0,-5.995781708E0,-3.023562469E0,1.176785304E1
2.318311333E0,9.322463837E0,-6.569688263E0,-2.614163818E0,1.170055504E1
2.328250333E0,8.829239502E0,-5.858816528E0,-2.567610626E0,1.090292739E1
2.338190333E0,8.989256744E0,-5.769302673E0,-2.695295105E0,1.101617928E1
2.348129333E0,9.391620026E0,-5.761369171E0,-2.519261169E0,1.130232623E1
2.358069333E0,9.578730927E0,-5.088218994E0,-2.146236877E0,1.105659945E1
2.368008333E0,9.572593689E0,-4.453389130E0,-1.973196716E0,1.074061125E1
2.377948708E0,9.644893341E0,-4.163891144E0,-1.629511414E0,1.063095783E1
2.387888708E0,9.578132172E0,-4.044289856E0,-1.384620667E0,1.048875926E1
2.397827708E0,9.326804810E0,-3.826642456E0,-1.073268127E0,1.013826341E1
2.407767708E0,9.099277954E0,-3.606600037E0,-8.107141113E-1,9.821490746E0
2.417706708E0,8.947792969E0,-3.617227936E0,-6.713539124E-1,9.674608676E0
2.427646708E0,8.856183472E0,-3.827540588E0,-6.459068298E-1,9.669500932E0
2.437585708E0,8.729995880E0,-4.101021881E0,-7.448510742E-1,9.673986338E0
2.447525708E0,8.506360931E0,-4.314328308E0,-9.608518982E-1,9.586179709E0
2.457464708E0,8.299341431E0,-4.514162750E0,-1.270108795E0,9.532571000E0
2.467404708E0,8.198750610E0,-4.758754120E0,-1.597028961E0,9.613311284E0
2.477343708E0,8.158035278E0,-4.988825684E0,-1.867067413E0,9.743093042E0
2.487283708E0,8.077652435E0,-5.135969696E0,-1.946701813E0,9.768126818E0
2.497223708E0,7.992778931E0,-5.263654175E0,-1.966460724E0,9.770237361E0
2.507162708E0,7.912994843E0,-5.405110016E0,-1.983525238E0,9.785963112E0
2.517102708E0,7.785909119E0,-5.559888153E0,-1.986818390E0,9.771396236E0
2.527041708E0,7.631729736E0,-5.691015472E0,-1.923799438E0,9.712464165E0
2.536981708E0,7.536228333E0,-5.790857849E0,-1.834135895E0,9.679505493E0
2.546920708E0,7.453749847E0,-5.910459137E0,-1.733395386E0,9.669362624E0
2.556860708E0,7.341932373E0,-6.020779724E0,-1.595831451E0,9.628106640E0
2.566799708E0,7.211703186E0,-6.061345367E0,-1.414408722E0,9.526233387E0
2.576739708E0,7.106472015E0,-6.064638519E0,-1.290316772E0,9.431155934E0
2.586679708E0,7.038962402E0,-6.127507782E0,-1.271156616E0,9.418555222E0
2.596618708E0,7.030879211E0,-6.284082184E0,-1.333576813E0,9.523727133E0
2.606558708E0,7.025789795E0,-6.500083008E0,-1.429527283E0,9.677621071E0
2.616497708E0,6.911577301E0,-6.719077606E0,-1.534309387E0,9.760635736E0
2.626437708E0,6.747967529E0,-6.926396484E0,-1.656455383E0,9.810906098E0
2.636376708E0,6.567742310E0,-7.135212250E0,-1.732197876E0,9.851243697E0
2.646316708E0,6.373895416E0,-7.242539063E0,-1.717229004E0,9.799479083E0
2.656255708E0,6.111341400E0,-7.188651123E0,-1.681154022E0,9.583917650E0
2.666195708E0,5.904172211E0,-7.047344971E0,-1.636696472E0,9.338259794E0
2.676134708E0,5.887706451E0,-6.931186523E0,-1.691931610E0,9.250354937E0
2.686074708E0,6.150110779E0,-6.986421661E0,-1.935475159E0,9.506840396E0
2.696014708E0,6.544690247E0,-7.292086029E0,-2.284100189E0,1.006104382E1
2.705953708E0,6.712042236E0,-7.598798218E0,-2.546205139E0,1.045353557E1
2.715893708E0,6.726112976E0,-7.691605225E0,-2.581381989E0,1.053873425E1
2.725832708E0,6.726112976E0,-7.605983276E0,-2.433639221E0,1.044098545E1
2.735772708E0,6.715185699E0,-7.303162994E0,-2.125430145E0,1.014629795E1
2.745711708E0,6.689738617E0,-6.668183441E0,-1.716330872E0,9.600159625E0
2.755651708E0,6.730903015E0,-5.743855591E0,-1.258882141E0,8.937657226E0
2.765590708E0,6.857839050E0,-4.827910309E0,-9.208850098E-1,8.437221319E0
2.775530708E0,7.247927856E0,-4.175267487E0,-8.081694031E-1,8.403478719E0
2.785470708E0,7.774383087E0,-3.811374207E0,-9.059161377E-1,8.705647005E0
2.795409708E0,8.340206451E0,-3.632945251E0,-1.156644745E0,9.170341429E0
2.805349708E0,8.953032074E0,-3.665727081E0,-1.545536041E0,9.797092426E0
2.815288708E0,9.419611816E0,-3.971092072E0,-2.051483917E0,1.042627667E1
2.825228708E0,9.636660461E0,-4.465813293E0,-2.532433777E0,1.091887971E1
2.835167708E0,9.657766571E0,-5.158572693E0,-3.092868347E0,1.137757276E1
2.845107708E0,9.360634460E0,-5.781427460E0,-3.413651276E0,1.151952239E1
2.855046708E0,9.024732971E0,-6.076613617E0,-3.485651550E0,1.142457023E1
2.864986708E0,8.592581635E0,-6.154601440E0,-3.490142212E0,1.113070845E1
2.874925708E0,8.139473877E0,-5.986051941E0,-3.329077148E0,1.063797948E1
2.884865708E0,7.898924103E0,-5.539530487E0,-3.018772430E0,1.010902503E1
2.894805708E0,8.006999359E0,-4.978197784E0,-2.609523468E0,9.782847471E0
2.904744708E0,8.284372559E0,-4.381239166E0,-2.079475708E0,9.599495015E0
2.914684708E0,8.316106567E0,-3.829037476E0,-1.584455109E0,9.291375271E0
2.924623708E0,8.238268433E0,-3.353027344E0,-1.167422333E0,8.970771095E0
2.934563708E0,8.148455200E0,-3.029550018E0,-9.258247375E-1,8.742576674E0
2.944502708E0,8.007598114E0,-2.805166626E0,-7.479945374E-1,8.517633661E0
2.954442708E0,7.907156982E0,-2.680326233E0,-6.248007202E-1,8.372434305E0
2.964381708E0,7.775580597E0,-2.658471680E0,-6.234535217E-1,8.241105483E0
2.974321708E0,7.639214172E0,-2.711162109E0,-7.265890503E-1,8.138545620E0
2.984261708E0,7.564070435E0,-2.847229156E0,-9.148974609E-1,8.133812930E0
2.994200708E0,7.567962341E0,-3.016676788E0,-1.138083344E0,8.226155028E0
3.004140708E0,7.638166351E0,-3.160677338E0,-1.376687164E0,8.380139258E0
3.014079708E0,7.824977875E0,-3.267854462E0,-1.619931335E0,8.633268735E0
3.024019708E0,8.014034729E0,-3.298840027E0,-1.915416870E0,8.875579978E0
3.033958708E0,8.190368042E0,-3.305875397E0,-2.252066803E0,9.114973707E0
3.043898708E0,8.382418671E0,-3.327879639E0,-2.559976501E0,9.375137618E0
3.053837708E0,8.620423737E0,-3.330574036E0,-2.805316315E0,9.657858377E0
3.063777708E0,8.918304291E0,-3.269201660E0,-2.990780640E0,9.958343223E0
3.073716708E0,9.230854340E0,-3.177442474E0,-3.113076324E0,1.024675835E1
3.083656708E0,9.540111237E0,-3.074905701E0,-3.203338623E0,1.052283925E1
3.093596708E0,9.877509613E0,-2.960094452E0,-3.255879364E0,1.081333000E1
3.103535708E0,1.020383102E1,-2.890489197E0,-3.269201660E0,1.109778243E1
3.113475708E0,1.052685928E1,-2.933749237E0,-3.261567535E0,1.140436205E1
3.123414708E0,1.093251572E1,-3.108735352E0,-3.230432281E0,1.181608345E1
3.133354708E0,1.141032211E1,-3.329825592E0,-3.182831268E0,1.230502353E1
3.143293708E0,1.192914322E1,-3.552412720E0,-3.153342590E0,1.284008036E1
3.153233708E0,1.247026794E1,-3.728895721E0,-3.173101501E0,1.339704516E1
3.163172708E0,1.297816177E1,-3.853436737E0,-3.236719208E0,1.391969859E1
3.173112708E0,1.340597214E1,-3.879482574E0,-3.310515747E0,1.434329071E1
3.183052708E0,1.372211472E1,-3.707190857E0,-3.396736450E0,1.461429146E1
3.192991708E0,1.393661865E1,-3.423381042E0,-3.483855286E0,1.476773933E1
3.202931708E0,1.416519333E1,-3.151696014E0,-3.617377625E0,1.495564478E1
3.212870708E0,1.448702408E1,-3.030448151E0,-3.886368256E0,1.530233122E1
3.222810708E0,1.496872238E1,-3.178041229E0,-4.227808228E0,1.587567190E1
3.232749708E0,1.549667450E1,-3.562591553E0,-4.451892242E0,1.651236881E1
3.242689708E0,1.571881256E1,-3.968547363E0,-4.494403839E0,1.682349852E1
3.252628708E0,1.539877808E1,-4.165388031E0,-4.352498932E0,1.653532796E1
3.262568708E0,1.459060867E1,-4.167184296E0,-4.053720245E0,1.570617504E1
3.272507708E0,1.366388580E1,-4.010310516E0,-3.688779144E0,1.471025007E1
3.282447708E0,1.285421951E1,-3.684737549E0,-3.240311737E0,1.375891966E1
3.292387708E0,1.212852859E1,-3.229983215E0,-2.857707367E0,1.287247019E1
3.302326708E0,1.149250122E1,-2.774630127E0,-2.572999420E0,1.209944142E1
3.312266708E0,1.107247467E1,-2.449206848E0,-2.451452179E0,1.160206565E1
3.322205708E0,1.094209579E1,-2.477348328E0,-2.543660431E0,1.150377866E1
3.332145708E0,1.092727661E1,-2.853366394E0,-2.759810944E0,1.162598944E1
3.342084708E0,1.087743027E1,-3.400179291E0,-2.991379395E0,1.178253195E1
3.352024708E0,1.076516373E1,-4.040547638E0,-3.142714691E0,1.192021103E1
3.361963708E0,1.062385757E1,-4.719385986E0,-3.174897766E0,1.205068171E1
3.371903250E0,1.042477158E1,-5.403313751E0,-3.278931427E0,1.219110550E1
3.381843250E0,9.946216736E0,-6.187383270E0,-3.173101501E0,1.213587707E1
3.391782250E0,9.670340424E0,-6.156697083E0,-2.489173737E0,1.173100118E1
3.401722250E0,9.667196960E0,-6.019731903E0,-2.743195496E0,1.171396563E1
3.411661250E0,9.790540466E0,-5.983806610E0,-2.426005096E0,1.172800601E1
3.421601250E0,9.897717590E0,-5.581293640E0,-2.052681427E0,1.154682438E1
3.431540250E0,9.944270782E0,-5.147046661E0,-1.829645233E0,1.134584560E1
3.441480250E0,9.848619690E0,-4.749772797E0,-1.491797791E0,1.103544798E1
3.451419250E0,9.712702332E0,-4.294120331E0,-1.171014862E0,1.068397547E1
3.461359250E0,9.554780731E0,-3.939358063E0,-9.672885132E-1,1.038017456E1
3.471299250E0,9.433383179E0,-3.715274048E0,-8.587641907E-1,1.017494252E1
3.481238250E0,9.355245667E0,-3.598217468E0,-8.596623230E-1,1.006015953E1
3.491178250E0,9.224866791E0,-3.613336029E0,-9.174421692E-1,9.949676613E0
3.501117250E0,9.036259003E0,-3.766467590E0,-1.029409332E0,9.843776635E0
3.511057250E0,8.812474365E0,-4.042792969E0,-1.190324707E0,9.768354638E0
3.520996250E0,8.630901947E0,-4.298610992E0,-1.366658020E0,9.738494700E0
3.530936250E0,8.433312836E0,-4.525389404E0,-1.528770905E0,9.692113037E0
3.540875250E0,8.223449249E0,-4.789589996E0,-1.651515656E0,9.658819485E0
3.550815250E0,8.043074341E0,-5.046306152E0,-1.698068848E0,9.645708292E0
3.560754250E0,7.841443634E0,-5.201233978E0,-1.727856903E0,9.566951586E0
3.570694250E0,7.635771332E0,-5.265151062E0,-1.709894257E0,9.431360342E0
3.580634250E0,7.454498291E0,-5.306914215E0,-1.694626007E0,9.306161430E0
3.590573250E0,7.288343811E0,-5.336702271E0,-1.700763245E0,9.192004256E0
3.600513250E0,7.122788086E0,-5.326972504E0,-1.704056396E0,9.056188733E0
3.610452250E0,6.943460999E0,-5.299280090E0,-1.682800598E0,8.895270539E0
3.620392250E0,6.755002899E0,-5.248236237E0,-1.621727600E0,8.706552025E0
3.630331250E0,6.586902466E0,-5.194647675E0,-1.563648376E0,8.533266948E0
3.640271250E0,6.419550476E0,-5.195396118E0,-1.536554718E0,8.400224374E0
3.650210250E0,6.299649811E0,-5.290897522E0,-1.522334290E0,8.366402215E0
3.660150250E0,6.284231873E0,-5.518723755E0,-1.575174408E0,8.510526219E0
3.670090250E0,6.272256775E0,-5.833369446E0,-1.614243164E0,8.716374541E0
3.680029250E0,6.278543701E0,-6.225553894E0,-1.664987640E0,8.997211576E0
3.689969250E0,6.274801483E0,-6.668632507E0,-1.682351532E0,9.309892580E0
3.699908250E0,6.218069458E0,-7.033573608E0,-1.659299469E0,9.533562829E0
3.709848250E0,6.105802917E0,-7.275021515E0,-1.560055847E0,9.624995665E0
3.719787250E0,5.958958282E0,-7.351213074E0,-1.377585297E0,9.562806006E0
3.729727250E0,5.809119873E0,-7.251221008E0,-1.185085602E0,9.366456518E0
3.739666250E0,5.705834656E0,-7.007527771E0,-9.930349731E-1,9.091100761E0
3.749606250E0,5.829926605E0,-6.807244263E0,-8.966354370E-1,9.007251178E0
3.759545250E0,6.328839111E0,-6.870562592E0,-1.025367737E0,9.397351426E0
3.769485250E0,6.890620880E0,-7.232809296E0,-1.365909576E0,1.008265319E1
3.779425250E0,7.120842133E0,-7.580536194E0,-1.672621765E0,1.053416277E1
3.789364250E0,7.052883453E0,-7.652237091E0,-1.852547607E0,1.057032782E1
3.799304250E0,6.978488159E0,-7.508685608E0,-1.911225586E0,1.042748483E1
3.809243250E0,7.024891663E0,-7.172784119E0,-1.855391693E0,1.020981945E1
3.819183250E0,7.145391083E0,-6.621779938E0,-1.680255890E0,9.885739382E0
3.829122250E0,7.255561981E0,-5.937403107E0,-1.429227905E0,9.483597826E0
3.839062250E0,7.493267670E0,-5.312303009E0,-1.239272919E0,9.268517735E0
3.849001250E0,7.880063324E0,-4.871320038E0,-1.180744629E0,9.339128160E0
3.858941250E0,8.318651276E0,-4.613855438E0,-1.212179260E0,9.589421234E0
3.868881250E0,8.758436737E0,-4.515809326E0,-1.298998718E0,9.939323197E0
3.878820250E0,9.178463287E0,-4.582869873E0,-1.403631134E0,1.035456735E1
3.888760250E0,9.502539368E0,-4.822371826E0,-1.528172150E0,1.076516765E1
3.898699250E0,9.722432098E0,-5.177732849E0,-1.751058655E0,1.115351110E1
3.908639250E0,9.751471710E0,-5.600753174E0,-2.038161621E0,1.142863681E1
3.918578250E0,9.635612640E0,-6.021677856E0,-2.401605835E0,1.161349843E1
3.928518250E0,9.464069366E0,-6.244414673E0,-2.711760864E0,1.165825761E1
3.938457250E0,9.267079010E0,-6.200555878E0,-2.892584839E0,1.151923147E1
3.948397250E0,9.107361145E0,-5.932762756E0,-3.053200836E0,1.128998389E1
3.958336250E0,8.950337677E0,-5.429209900E0,-3.160228271E0,1.093489403E1
3.968276250E0,8.810229034E0,-4.776118011E0,-3.205284576E0,1.052165805E1
3.978216250E0,8.798104248E0,-4.104764099E0,-3.164718933E0,1.021132570E1
3.988155250E0,8.900491333E0,-3.459755402E0,-3.100352783E0,1.003996219E1
3.998095250E0,8.975485382E0,-2.903811493E0,-3.049159241E0,9.914072377E0
4.008034250E0,9.028026123E0,-2.448308716E0,-2.991080017E0,9.820694014E0
4.017974250E0,9.052275696E0,-2.127076721E0,-2.996917877E0,9.769834564E0
4.027913250E0,9.020242310E0,-1.996997223E0,-3.082240448E0,9.739249222E0
4.037853250E0,8.924142151E0,-1.958078156E0,-3.207080841E0,9.682961877E0
4.047792250E0,8.769364014E0,-1.957180023E0,-3.372935944E0,9.597343160E0
4.057732250E0,8.600814514E0,-2.026336212E0,-3.588188324E0,9.537040642E0
4.067672250E0,8.454568634E0,-2.104623413E0,-3.817062378E0,9.512052129E0
4.077611250E0,8.307873688E0,-2.141446838E0,-4.005969543E0,9.468598194E0
4.087551250E0,8.270601196E0,-2.146835632E0,-4.152963867E0,9.500466108E0
4.097490250E0,8.349038086E0,-2.129322052E0,-4.188889160E0,9.580565837E0
4.107430250E0,8.415200500E0,-2.071392517E0,-4.146078186E0,9.607092731E0
4.117369250E0,8.516240387E0,-1.991458740E0,-4.021237793E0,9.626142095E0
4.127309250E0,8.670868835E0,-1.980232086E0,-3.854783936E0,9.693536231E0
4.137248250E0,8.854836273E0,-2.013313293E0,-3.687431946E0,9.800954555E0
4.147188250E0,8.978179779E0,-2.085912323E0,-3.533252563E0,9.871302652E0
4.157127250E0,9.066496124E0,-2.204166412E0,-3.406466217E0,9.932960970E0
4.167067250E0,9.177714844E0,-2.416275330E0,-3.366499329E0,1.006986365E1
4.177007250E0,9.346563721E0,-2.733465729E0,-3.346890106E0,1.029717251E1
4.186946250E0,9.643695831E0,-3.129691772E0,-3.333418121E0,1.067274642E1
4.196886250E0,1.008707382E1,-3.628604279E0,-3.326233063E0,1.122406583E1
4.206825250E0,1.061532532E1,-4.162843323E0,-3.269351349E0,1.186183183E1
4.216765250E0,1.116752701E1,-4.653073883E0,-3.194956055E0,1.251289336E1
4.226704250E0,1.169383255E1,-5.038672028E0,-3.075504456E0,1.309933827E1
4.236644250E0,1.220022949E1,-5.180726624E0,-2.947370911E0,1.357838441E1
4.246583250E0,1.263507523E1,-5.043312378E0,-2.846031647E0,1.389892161E1
4.256523250E0,1.298609528E1,-4.723876648E0,-2.749183044E0,1.408941761E1
4.266463250E0,1.328996338E1,-4.411775665E0,-2.699935455E0,1.426101478E1
4.276402250E0,1.375774063E1,-4.166435852E0,-2.811303864E0,1.464711727E1
4.286342250E0,1.438179291E1,-4.071682892E0,-3.080144806E0,1.526112253E1
4.296281250E0,1.498039810E1,-4.122726746E0,-3.260968781E0,1.587586598E1
4.306221250E0,1.527214142E1,-4.050726471E0,-3.294798431E0,1.614008628E1
4.316160250E0,1.511152542E1,-3.757486267E0,-3.261118469E0,1.590948765E1
4.326100250E0,1.452309906E1,-3.415597229E0,-3.179238739E0,1.525431971E1
4.336039250E0,1.362511642E1,-3.156635742E0,-3.127596130E0,1.433143413E1
4.345979250E0,1.258552826E1,-3.016976166E0,-2.985990601E0,1.328208593E1
4.355918250E0,1.171898026E1,-2.886447601E0,-2.785108337E0,1.238640006E1
4.365858250E0,1.104508163E1,-2.740351410E0,-2.700534210E0,1.169599244E1
4.375798750E0,1.056937088E1,-2.729274445E0,-2.683020630E0,1.124095812E1
4.385737750E0,1.034199371E1,-2.950514374E0,-2.673440552E0,1.108195170E1
4.395677750E0,1.018362305E1,-3.342100067E0,-2.654729462E0,1.104189294E1
4.405616750E0,9.979896698E0,-3.797902222E0,-2.654430084E0,1.100310858E1
4.415556750E0,9.739646301E0,-4.295467529E0,-2.683170319E0,1.097775725E1
4.425495750E0,9.468410339E0,-4.897365875E0,-2.857857056E0,1.103640946E1
4.435435750E0,9.165739746E0,-5.366490326E0,-2.500250702E0,1.091151947E1
4.445374750E0,9.010512543E0,-5.539979553E0,-2.422412567E0,1.085121156E1
4.455314750E0,8.966504059E0,-5.762566681E0,-2.449506226E0,1.093642769E1
4.465254750E0,8.846453705E0,-5.910908203E0,-2.259102173E0,1.087667787E1
4.475193750E0,8.785680084E0,-5.790558472E0,-1.939965820E0,1.069963594E1
4.485133750E0,8.769813080E0,-5.553900604E0,-1.620380402E0,1.050623939E1
4.495072750E0,8.835825806E0,-5.239404602E0,-1.297801208E0,1.035410384E1
4.505012750E0,8.903335419E0,-4.807253265E0,-1.001118164E0,1.016765967E1
4.514951750E0,8.954229584E0,-4.329895935E0,-7.671546936E-1,9.975708124E0
4.524891750E0,8.968150635E0,-3.943399658E0,-6.631210327E-1,9.819259452E0
4.534830750E0,9.045839081E0,-3.669469299E0,-6.867718506E-1,9.785901348E0
4.544770750E0,9.170829163E0,-3.487298126E0,-8.381071472E-1,9.847221910E0
4.554709750E0,9.265133057E0,-3.429518280E0,-1.076261902E0,9.937938713E0
4.564649750E0,9.315727844E0,-3.483256531E0,-1.373543701E0,1.004004401E1
4.574589750E0,9.329050140E0,-3.653003540E0,-1.678609314E0,1.015841231E1
4.584528750E0,9.300908661E0,-3.938759308E0,-1.961371307E0,1.028920328E1
4.594468750E0,9.248367920E0,-4.298311615E0,-2.208058319E0,1.043471674E1
4.604407750E0,9.157506866E0,-4.621938629E0,-2.369871826E0,1.052798847E1
4.614347750E0,9.020092621E0,-4.841981049E0,-2.444865875E0,1.052540833E1
4.624286750E0,8.789272614E0,-4.990771637E0,-2.373763733E0,1.038238262E1
4.634226750E0,8.546028442E0,-5.070705414E0,-2.145937500E0,1.016620398E1
4.644165750E0,8.360414429E0,-5.159470825E0,-1.881736908E0,1.000287971E1
4.654105750E0,8.149353333E0,-5.200335846E0,-1.624272308E0,9.802740085E0
4.664044750E0,7.901468811E0,-5.218897247E0,-1.402733002E0,9.572761238E0
4.673984750E0,7.655829620E0,-5.273383942E0,-1.237925720E0,9.378313572E0
4.683924750E0,7.358248444E0,-5.353766785E0,-1.219064941E0,9.181108771E0
4.693863750E0,6.958429871E0,-5.443580017E0,-1.195713501E0,8.915270071E0
4.703803750E0,6.577023010E0,-5.551206207E0,-1.160836029E0,8.684507028E0
4.713742750E0,6.260281677E0,-5.732030182E0,-1.217568054E0,8.574950067E0
4.723682750E0,6.013894043E0,-5.934708710E0,-1.284029846E0,8.546134897E0
4.733621750E0,5.803880768E0,-6.125412140E0,-1.408421173E0,8.555077793E0
4.743561750E0,5.644911346E0,-6.334078217E0,-1.598376160E0,8.633676929E0
4.753500750E0,5.506898346E0,-6.547085266E0,-1.831291809E0,8.748936196E0
4.763440750E0,5.481600952E0,-6.690037994E0,-2.027384033E0,8.883402692E0
4.773380750E0,5.537135468E0,-6.729555817E0,-2.098037109E0,8.963735292E0
4.783319750E0,5.543871460E0,-6.644981689E0,-2.071242828E0,8.898333511E0
4.793259750E0,5.576503601E0,-6.522686005E0,-2.011067963E0,8.814035369E0
4.803198750E0,5.760471039E0,-6.512357483E0,-1.988165588E0,8.918891690E0
4.813138750E0,6.105653229E0,-6.696923676E0,-2.116897888E0,9.306398054E0
4.823077750E0,6.504124603E0,-7.120393066E0,-2.419718170E0,9.942769750E0
4.833017750E0,6.784491577E0,-7.633376312E0,-2.737956390E0,1.057327599E1
4.842956750E0,6.985673218E0,-8.071365509E0,-2.872227173E0,1.105424174E1
4.852896750E0,7.097341003E0,-8.329877930E0,-2.758463745E0,1.128575376E1
4.862835750E0,7.104226685E0,-8.206235046E0,-2.366428986E0,1.110910962E1
4.872775750E0,7.194189606E0,-7.556735687E0,-1.696871338E0,1.057071382E1
4.882715750E0,7.394173737E0,-6.463708649E0,-9.210346985E-1,9.864159349E0
4.892654750E0,7.570207672E0,-5.300477600E0,-3.625460815E-1,9.248488885E0
4.902594750E0,8.028704224E0,-4.405488739E0,-1.529818726E-1,9.159248113E0
4.912533750E0,8.669671326E0,-3.842808838E0,-2.145039368E-1,9.485588680E0
4.922473750E0,9.398356018E0,-3.603456573E0,-5.710624695E-1,1.008167186E1
4.932412750E0,1.011072464E1,-3.645369415E0,-1.207389221E0,1.081541768E1
4.942352750E0,1.049422714E1,-3.932472382E0,-2.014810181E0,1.138650967E1
4.952291750E0,1.053284683E1,-4.426894226E0,-2.714754639E0,1.174342998E1
4.962231750E0,1.035681290E1,-5.178930359E0,-3.504512329E0,1.209820233E1
4.972171750E0,9.814041595E0,-5.764063568E0,-3.917952576E0,1.203703425E1
4.982110750E0,9.080117798E0,-6.003565521E0,-4.082161102E0,1.162563450E1
4.992050750E0,8.183482361E0,-6.027665405E0,-4.151017914E0,1.097875601E1
5.001989750E0,7.455246735E0,-5.816005554E0,-4.089645538E0,1.030203015E1
5.011929750E0,7.218439178E0,-5.347330170E0,-3.901337128E0,9.793887660E0
5.021868750E0,7.455546112E0,-4.722679138E0,-3.561843109E0,9.517121015E0
5.031808750E0,7.890691223E0,-4.082310791E0,-3.084036713E0,9.404230528E0
5.041747750E0,8.093968506E0,-3.548221436E0,-2.547103271E0,9.197278761E0
5.051687750E0,8.153394928E0,-3.170556793E0,-2.093396759E0,8.995142535E0
5.061626750E0,8.071814575E0,-2.966980133E0,-1.766775970E0,8.779445254E0
5.071566750E0,7.917485504E0,-2.892435150E0,-1.514400787E0,8.564237710E0
5.081506750E0,7.740553436E0,-2.883154449E0,-1.331930237E0,8.366766713E0
5.091445750E0,7.519762573E0,-2.967728577E0,-1.318009186E0,8.190933419E0
5.101385750E0,7.333998871E0,-3.093167725E0,-1.415905609E0,8.084554082E0
5.111324750E0,7.257657623E0,-3.195105743E0,-1.531315613E0,8.076337189E0
5.121264750E0,7.243137817E0,-3.263663177E0,-1.645827484E0,8.113155421E0
5.131203750E0,7.313042450E0,-3.257376251E0,-1.797013092E0,8.204897682E0
5.141143750E0,7.479645996E0,-3.173999634E0,-2.129022675E0,8.399530668E0
5.151082750E0,7.729925537E0,-3.133284302E0,-2.102378082E0,8.601698258E0
5.161022750E0,7.882308655E0,-3.355572052E0,-2.018253021E0,8.801363462E0
5.170961750E0,8.152047729E0,-3.301384735E0,-2.293680267E0,9.089333998E0
5.180901750E0,8.368198242E0,-3.155438232E0,-2.273322601E0,9.227758553E0
5.190841750E0,8.554411011E0,-3.117267609E0,-2.424807587E0,9.422048446E0
5.200780750E0,8.787775726E0,-3.034789124E0,-2.580334167E0,9.648475095E0
5.210720750E0,9.006171570E0,-2.901117096E0,-2.688559113E0,9.836460586E0
5.220659750E0,9.193881226E0,-2.798730011E0,-2.802621918E0,1.001074579E1
5.230599750E0,9.459578705E0,-2.749931488E0,-2.887495422E0,1.026564086E1
5.240538750E0,9.857002258E0,-2.812501373E0,-2.989134064E0,1.067733955E1
5.250478750E0,1.037013519E1,-2.994672546E0,-3.127745819E0,1.123790734E1
5.260417750E0,1.092563004E1,-3.276835785E0,-3.245700531E0,1.185924181E1
5.270357750E0,1.151570297E1,-3.611240387E0,-3.297043762E0,1.251091402E1
5.280296750E0,1.211311066E1,-3.901486816E0,-3.315605164E0,1.315075233E1
5.290236750E0,1.266665955E1,-4.090843048E0,-3.323538666E0,1.371951785E1
5.300176750E0,1.306034088E1,-4.097279663E0,-3.244802399E0,1.406730064E1
5.310115750E0,1.330178879E1,-3.848796387E0,-3.169958038E0,1.420561342E1
5.320055750E0,1.357571915E1,-3.514391785E0,-3.153492279E0,1.437343430E1
5.329994750E0,1.403271881E1,-3.298390961E0,-3.265609131E0,1.478041891E1
5.339934750E0,1.471544907E1,-3.356170807E0,-3.475173340E0,1.548822628E1
5.349873750E0,1.546613800E1,-3.679648132E0,-3.688330078E0,1.632008008E1
5.359813750E0,1.602043533E1,-4.099974060E0,-3.735182648E0,1.695333964E1
5.369752750E0,1.623044861E1,-4.376898193E0,-3.572770386E0,1.718573211E1
5.379692208E0,1.588122482E1,-4.446952515E0,-3.301085358E0,1.681921083E1
5.389632208E0,1.502710098E1,-4.241130524E0,-2.914439392E0,1.588379391E1
5.399571208E0,1.397763336E1,-3.776945801E0,-2.499202881E0,1.469304492E1
5.409511208E0,1.296738419E1,-3.139421539E0,-2.143392792E0,1.351307341E1
5.419450208E0,1.216849548E1,-2.558030548E0,-1.974244537E0,1.259021223E1
5.429390208E0,1.153636002E1,-2.193987579E0,-1.943558350E0,1.190288213E1
5.439329208E0,1.124356888E1,-2.146536255E0,-2.129621429E0,1.164305572E1
5.449269208E0,1.109702362E1,-2.505639496E0,-2.334245911E0,1.161339169E1
5.459208208E0,1.099538498E1,-3.118315430E0,-2.585573273E0,1.171783133E1
5.469148208E0,1.095736404E1,-3.899989929E0,-2.797083435E0,1.196233355E1
5.479087208E0,1.083866089E1,-4.758604431E0,-2.966381378E0,1.220329072E1
5.489027208E0,1.056547897E1,-5.591173096E0,-3.141966248E0,1.235971336E1
5.498967208E0,1.014754807E1,-6.260281677E0,-3.252586212E0,1.235893100E1
5.508906208E0,9.538165283E0,-6.750212860E0,-3.313359833E0,1.214579450E1
5.518846208E0,8.977730713E0,-6.867419128E0,-3.012485504E0,1.169769905E1
5.528785208E0,8.652307434E0,-6.678661652E0,-2.976410522E0,1.132810509E1
5.538725208E0,8.568481750E0,-6.363566895E0,-2.780018921E0,1.102915991E1
5.548664208E0,8.741671600E0,-5.745502167E0,-2.279759216E0,1.070630280E1
5.558604208E0,9.138047333E0,-5.026547241E0,-1.794468384E0,1.058254237E1
5.568543208E0,9.184001770E0,-4.470453644E0,-1.428329773E0,1.031363031E1
5.578483208E0,9.273815002E0,-4.016597443E0,-1.138532410E0,1.017019940E1
5.588423208E0,9.380543060E0,-3.631897430E0,-8.891510010E-1,1.009830959E1
5.598362208E0,9.430389404E0,-3.381019135E0,-6.798861694E-1,1.004120411E1
5.608302208E0,9.414672089E0,-3.277883606E0,-5.972579956E-1,9.986855791E0
5.618241208E0,9.394164734E0,-3.322490845E0,-6.532415771E-1,9.985789955E0
5.628181208E0,9.316925354E0,-3.558849335E0,-8.153544617E-1,1.000676319E1
5.638120208E0,9.058862000E0,-3.900438995E0,-1.004860382E0,9.913937133E0
5.648060208E0,8.766519928E0,-4.219275970E0,-1.304836578E0,9.816147913E0
5.657999208E0,8.533604279E0,-4.521647186E0,-1.594484253E0,9.788262118E0
5.667939208E0,8.282875671E0,-4.799768829E0,-1.760339355E0,9.733581296E0
5.677878208E0,8.029752045E0,-4.997956696E0,-1.862576752E0,9.639796740E0
5.687818208E0,7.798932037E0,-5.152435455E0,-1.981878662E0,9.555039250E0
5.697758208E0,7.622449036E0,-5.277275848E0,-2.065255280E0,9.498244525E0
5.707697208E0,7.467521210E0,-5.342989197E0,-2.057172089E0,9.409748327E0
5.717637208E0,7.323520660E0,-5.365292816E0,-1.973645782E0,9.290618900E0
5.727576208E0,7.184459839E0,-5.336702271E0,-1.855092316E0,9.139924606E0
5.737516208E0,7.047045593E0,-5.266049194E0,-1.720821533E0,8.964003149E0
5.747455208E0,6.927593994E0,-5.212161255E0,-1.629212036E0,8.821140252E0
5.757395208E0,6.910529480E0,-5.282365265E0,-1.586850128E0,8.841769835E0
5.767334208E0,6.884483643E0,-5.480104065E0,-1.594334564E0,8.942570005E0
5.777274208E0,6.876400452E0,-5.738167419E0,-1.684297485E0,9.113084358E0
5.787213208E0,6.872957611E0,-6.106551361E0,-1.840572510E0,9.376311802E0
5.797153208E0,6.780599670E0,-6.514153748E0,-2.002685394E0,9.613609089E0
5.807093208E0,6.591542816E0,-6.904541931E0,-2.127525787E0,9.779954087E0
5.817032208E0,6.299350433E0,-7.204218750E0,-2.175426178E0,9.814023779E0
5.826972208E0,6.010750580E0,-7.311695251E0,-2.116448822E0,9.698936313E0
5.836911208E0,5.748046875E0,-7.255711670E0,-1.969454498E0,9.463833564E0
5.846851208E0,5.632038116E0,-7.114106140E0,-1.801354065E0,9.250688406E0
5.856790208E0,5.749244385E0,-7.087162170E0,-1.683998108E0,9.279953031E0
5.866730208E0,6.122418365E0,-7.255861359E0,-1.662742310E0,9.638269694E0
5.876669208E0,6.506220245E0,-7.517816620E0,-1.689835968E0,1.008484081E1
5.886609208E0,6.677464142E0,-7.606282654E0,-1.678160248E0,1.025964351E1
5.896548208E0,6.664740601E0,-7.425308990E0,-1.604363708E0,1.010583810E1
5.906488208E0,6.685846710E0,-7.116800537E0,-1.498084717E0,9.878950042E0
5.916428208E0,6.764433289E0,-6.729855194E0,-1.390907593E0,9.642776186E0
5.926367208E0,6.941365356E0,-6.169869690E0,-1.321002960E0,9.380559356E0
5.936307208E0,7.203919373E0,-5.608087921E0,-1.282532959E0,9.219110328E0
5.946246208E0,7.681426392E0,-5.260361023E0,-1.302740936E0,9.400683137E0
5.956186208E0,8.299191742E0,-5.078189850E0,-1.413510590E0,9.831714393E0
5.966125208E0,8.891210632E0,-4.985532532E0,-1.610051880E0,1.031995292E1
5.976065208E0,9.346114655E0,-4.957690430E0,-1.856738892E0,1.074132361E1
5.986004208E0,9.655371552E0,-4.991669769E0,-2.138153687E0,1.107766528E1
5.995944208E0,9.820627899E0,-5.099595337E0,-2.466720428E0,1.133734160E1
6.005883208E0,9.705367584E0,-5.284161530E0,-2.857857056E0,1.141419598E1
6.015823208E0,9.410480804E0,-5.383704529E0,-3.156336365E0,1.129176172E1
6.025763208E0,9.064400482E0,-5.360802155E0,-3.338657227E0,1.104754217E1
6.035702208E0,8.674611053E0,-5.155578918E0,-3.428470459E0,1.065754571E1
6.045642208E0,8.243058472E0,-4.757406921E0,-3.387605438E0,1.010231677E1
6.055581208E0,7.949818268E0,-4.240831146E0,-3.226390686E0,9.570467918E0
6.065521208E0,7.740104370E0,-3.706741791E0,-2.967129822E0,9.080363965E0
6.075460208E0,7.635322266E0,-3.201242981E0,-2.677033081E0,8.701299262E0
6.085400208E0,7.626939697E0,-2.725532227E0,-2.379451904E0,8.441595017E0
6.095339208E0,7.626191254E0,-2.323917389E0,-2.073188782E0,8.237566194E0
6.105279208E0,7.622299347E0,-2.068548431E0,-1.849404144E0,8.111635818E0
6.115218208E0,7.590565338E0,-1.986668701E0,-1.715133362E0,8.031514000E0
6.125158208E0,7.514673157E0,-2.014660492E0,-1.648222504E0,7.952723243E0
6.135098208E0,7.384443970E0,-2.160008240E0,-1.638642426E0,7.866434856E0
6.145037208E0,7.228318634E0,-2.407144318E0,-1.702110443E0,7.806414926E0
6.154977208E0,7.094796295E0,-2.689157867E0,-1.844614105E0,7.808348462E0
6.164916208E0,7.015610962E0,-2.913541260E0,-2.065105591E0,7.872241164E0
6.174856208E0,7.070846100E0,-3.140918427E0,-2.288890228E0,8.068534663E0
6.184795208E0,7.281757507E0,-3.377276917E0,-2.433339844E0,8.387558319E0
6.194735208E0,7.523953857E0,-3.563639374E0,-2.582429810E0,8.716556141E0
6.204674208E0,7.822133789E0,-3.679348755E0,-2.725382538E0,9.063724083E0
6.214614208E0,8.190517731E0,-3.710184631E0,-2.816542969E0,9.422471278E0
6.224553208E0,8.539591827E0,-3.709286499E0,-2.855162659E0,9.738346303E0
6.234493208E0,8.874744873E0,-3.695365448E0,-2.835852814E0,1.002291792E1
6.244433208E0,9.231902161E0,-3.608845367E0,-2.765499115E0,1.029076128E1
6.254372208E0,9.616901550E0,-3.429967346E0,-2.694396973E0,1.055979386E1
6.264312208E0,1.008318192E1,-3.213068390E0,-2.662513275E0,1.091253146E1
6.274251208E0,1.063598236E1,-3.063828735E0,-2.656825104E0,1.138287692E1
6.284191208E0,1.127979355E1,-3.037932587E0,-2.713706818E0,1.199278873E1
6.294130208E0,1.202030365E1,-3.109184418E0,-2.840493164E0,1.273668438E1
6.304070208E0,1.279404465E1,-3.210224304E0,-2.950214996E0,1.351654124E1
6.314009208E0,1.351225113E1,-3.292253723E0,-3.020419006E0,1.423175309E1
6.323949208E0,1.421429123E1,-3.292104034E0,-3.123853912E0,1.492120931E1
6.333888208E0,1.486528748E1,-3.159779205E0,-3.357817383E0,1.556392990E1
6.343828208E0,1.534938080E1,-2.887794800E0,-3.625610504E0,1.603396087E1
6.353768208E0,1.550625458E1,-2.496957550E0,-3.866908722E0,1.617503357E1
6.363707208E0,1.561477890E1,-2.147883453E0,-4.163741455E0,1.630249878E1
6.373647958E0,1.589439743E1,-2.107018433E0,-4.580774231E0,1.667497793E1
6.383586958E0,1.627086456E1,-2.514770508E0,-4.944068756E0,1.719037289E1
6.393526958E0,1.644465317E1,-3.275039520E0,-5.124892731E0,1.753331193E1
6.403465958E0,1.621173752E1,-4.008065186E0,-5.052443390E0,1.744741253E1
6.413405958E0,1.544742691E1,-4.398603058E0,-4.628824310E0,1.671516442E1
6.423344958E0,1.425126434E1,-4.416565704E0,-4.012256470E0,1.545000938E1
6.433284958E0,1.298010773E1,-4.135899353E0,-3.316802673E0,1.402105702E1
6.443223958E0,1.191761719E1,-3.745361481E0,-2.730322266E0,1.278718076E1
6.453163958E0,1.100616257E1,-3.256478119E0,-2.308649139E0,1.170769512E1
6.463103958E0,1.037297928E1,-2.752027130E0,-2.125130768E0,1.094022546E1
6.473042958E0,1.017763550E1,-2.532733154E0,-2.223476257E0,1.072114025E1
6.482982958E0,1.023391846E1,-2.679877167E0,-2.474504242E0,1.086452944E1
6.492921958E0,1.033435959E1,-3.065325623E0,-2.806513824E0,1.113874899E1
6.502861958E0,1.038046371E1,-3.592229919E0,-3.132984924E0,1.142251011E1
6.512800958E0,1.034094589E1,-4.143234100E0,-3.391347656E0,1.164486108E1
6.522740958E0,1.028765671E1,-4.672533417E0,-3.561244354E0,1.184697896E1
6.532679958E0,1.026655060E1,-5.129682770E0,-3.675007782E0,1.205078374E1
6.542619958E0,1.024065445E1,-5.464237061E0,-3.798950043E0,1.221314503E1
6.552558958E0,1.016865417E1,-5.627996521E0,-3.855682068E0,1.224508705E1
6.562498958E0,1.016311569E1,-5.564528503E0,-3.617527313E0,1.213834428E1
6.572438958E0,1.026684998E1,-5.299729156E0,-3.279380493E0,1.201039858E1
6.582377958E0,1.042342438E1,-4.961282959E0,-2.836750946E0,1.188735716E1
6.592317958E0,1.051458481E1,-4.589306488E0,-2.398911438E0,1.172062301E1
6.602256958E0,1.046114594E1,-4.257446594E0,-1.906884613E0,1.145415360E1
6.612196958E0,1.046488815E1,-3.979774017E0,-1.524579620E0,1.129941717E1
6.622135958E0,1.048359924E1,-3.793411560E0,-1.222058716E0,1.121558076E1
6.632075958E0,1.029783554E1,-3.729793854E0,-9.548643494E-1,1.099402315E1
6.642014958E0,1.000983444E1,-3.727698212E0,-7.937992859E-1,1.071086536E1
6.651954958E0,9.702523499E0,-3.813170471E0,-7.756869507E-1,1.045375155E1
6.661893958E0,9.316625977E0,-4.018842773E0,-8.698411560E-1,1.018367519E1
6.671833958E0,8.938212891E0,-4.317920837E0,-1.197809143E0,9.998541733E0
6.681773958E0,8.588240662E0,-4.663701782E0,-1.590891724E0,9.901460925E0
6.691712958E0,8.220455475E0,-4.969815216E0,-1.775457916E0,9.768684779E0
6.701652958E0,7.843838654E0,-5.258265381E0,-1.890119476E0,9.630561317E0
6.711591958E0,7.314389648E0,-5.562283173E0,-1.969454498E0,9.397767876E0
6.721531958E0,6.672225037E0,-5.764063568E0,-2.027234344E0,9.047247915E0
6.731470958E0,6.075266418E0,-5.878874817E0,-2.063159637E0,8.702106576E0
6.741410958E0,5.587281189E0,-5.941444702E0,-2.068099365E0,8.414006847E0
6.751349958E0,5.175337830E0,-5.983956299E0,-2.061063995E0,8.175563554E0
6.761289958E0,4.878205719E0,-5.991889801E0,-2.013313293E0,7.984551637E0
6.771228958E0,4.697232056E0,-5.948929138E0,-1.908381500E0,7.816371718E0
6.781168958E0,4.583618317E0,-5.856421509E0,-1.787582703E0,7.648704575E0
6.791108958E0,4.514611816E0,-5.803731079E0,-1.728755035E0,7.553383895E0
6.801047958E0,4.556075592E0,-5.849535828E0,-1.697619781E0,7.606366223E0
6.810987958E0,4.698878632E0,-5.994135132E0,-1.663041687E0,7.795820933E0
6.820926958E0,4.864584045E0,-6.259682922E0,-1.631157990E0,8.093731192E0
6.830866958E0,5.046455841E0,-6.661297760E0,-1.657952271E0,8.519883223E0
6.840805958E0,5.195994873E0,-7.124883728E0,-1.642234955E0,8.969908946E0
6.850745958E0,5.288801880E0,-7.567363586E0,-1.527274017E0,9.357830031E0
6.860684958E0,5.413043518E0,-7.885901184E0,-1.333876190E0,9.657520557E0
6.870624958E0,5.619164886E0,-7.964787140E0,-1.111738129E0,9.810647780E0
6.880563958E0,5.891298981E0,-7.789651337E0,-8.714877319E-1,9.805384362E0
6.890503958E0,6.186335449E0,-7.421417084E0,-6.920109558E-1,9.686436754E0
6.900443958E0,6.430627441E0,-7.038513336E0,-6.752458191E-1,9.557698268E0
6.910382958E0,6.825655975E0,-6.846911774E0,-9.608518982E-1,9.715606862E0
6.920322958E0,7.406597900E0,-7.013814697E0,-1.532662811E0,1.031505426E1
6.930261958E0,8.039631500E0,-7.482190704E0,-2.242486725E0,1.120926399E1
6.940201958E0,8.482261047E0,-8.096363525E0,-2.885998535E0,1.207596134E1
6.950140958E0,8.645571442E0,-8.483608246E0,-3.159330139E0,1.251794238E1
6.960080958E0,8.765172729E0,-8.541388092E0,-3.251987457E0,1.266329286E1
6.970019958E0,8.683592377E0,-8.150401154E0,-2.989732819E0,1.227893798E1
6.979959958E0,8.464597778E0,-7.275470581E0,-2.441273346E0,1.142548482E1
6.989898958E0,8.436905365E0,-6.199508057E0,-1.815125427E0,1.062590950E1
6.999838958E0,8.665180664E0,-5.263055420E0,-1.272503815E0,1.021784587E1
7.009777958E0,9.006021881E0,-4.506528625E0,-1.050814819E0,1.012528726E1
7.019717958E0,9.647138672E0,-3.902684326E0,-1.067430267E0,1.046124452E1
7.029657958E0,1.053943314E1,-3.642525330E0,-1.315015411E0,1.122839735E1
7.039596958E0,1.124521545E1,-3.667074280E0,-1.782044220E0,1.196152106E1
7.049536958E0,1.157692566E1,-3.886667633E0,-2.329156494E0,1.243206994E1
7.059475958E0,1.181448166E1,-4.383634186E0,-3.010838928E0,1.295620996E1
7.069415958E0,1.149399811E1,-5.013075256E0,-3.556154938E0,1.303415337E1
7.079354958E0,1.089853638E1,-5.465135193E0,-3.873944092E0,1.279270263E1
7.089294958E0,1.034244278E1,-5.715863800E0,-3.998036041E0,1.247483522E1
7.099233958E0,9.665251007E0,-5.818849640E0,-4.014801178E0,1.197475330E1
7.109173958E0,8.992699585E0,-5.555397491E0,-3.880231018E0,1.125998578E1
7.119112958E0,8.620423737E0,-4.928351440E0,-3.692221985E0,1.059400097E1
7.129052958E0,8.611592102E0,-4.156556396E0,-3.299289093E0,1.011542328E1
7.138992958E0,8.717122650E0,-3.410807190E0,-2.678080902E0,9.736218481E0
7.148931958E0,8.675209808E0,-2.841391296E0,-2.177372131E0,9.384759939E0
7.158871958E0,8.511450348E0,-2.406096497E0,-1.897154846E0,9.046175097E0
7.168810958E0,8.256380768E0,-2.116299133E0,-1.688638458E0,8.688961114E0
7.178750958E0,7.995922394E0,-1.962269440E0,-1.643432465E0,8.395602810E0
7.188689958E0,7.768844604E0,-1.927691345E0,-1.806443481E0,8.205740580E0
7.198629958E0,7.567962341E0,-1.971400452E0,-2.202968903E0,8.124872044E0
7.208568958E0,7.428452454E0,-1.988165588E0,-2.708168335E0,8.152845147E0
7.218508958E0,7.358098755E0,-1.993853760E0,-2.859353943E0,8.142049808E0
7.228447958E0,7.177274780E0,-2.421963501E0,-2.601140900E0,8.009064518E0
7.238387958E0,7.285050659E0,-2.596799927E0,-2.991080017E0,8.292279098E0
7.248326958E0,7.468119965E0,-2.523452454E0,-3.086731110E0,8.465727201E0
7.258266958E0,7.663763123E0,-2.555785217E0,-3.135829010E0,8.665952161E0
7.268206958E0,7.947273560E0,-2.604434052E0,-3.316203918E0,8.996635048E0
7.278145958E0,8.248297577E0,-2.659220123E0,-3.480711823E0,9.339230127E0
7.288085958E0,8.506809998E0,-2.684218140E0,-3.564088440E0,9.605913271E0
7.298024958E0,8.683442688E0,-2.647993469E0,-3.576662292E0,9.757384869E0
7.307964958E0,8.801247711E0,-2.572550354E0,-3.450923767E0,9.797390032E0
7.317903958E0,8.924441528E0,-2.503693542E0,-3.277434540E0,9.831363848E0
7.327843958E0,9.138795776E0,-2.437531128E0,-3.136727142E0,9.964848389E0
7.337782958E0,9.476493530E0,-2.494263153E0,-3.056344299E0,1.026481947E1
7.347722958E0,9.958640900E0,-2.702031097E0,-3.066223755E0,1.076462859E1
7.357661958E0,1.049362839E1,-3.011587372E0,-3.181184692E0,1.137127219E1
7.367601958E0,1.100915634E1,-3.372786255E0,-3.304827576E0,1.197911081E1
7.377541333E0,1.154100037E1,-3.769161987E0,-3.426524506E0,1.261516317E1
7.387480333E0,1.205143890E1,-4.172573090E0,-3.542533264E0,1.323620368E1
7.397420333E0,1.243299545E1,-4.362977142E0,-3.550017700E0,1.364615591E1
7.407359333E0,1.280108002E1,-4.342020721E0,-3.728296967E0,1.402216074E1
7.417299333E0,1.304447388E1,-4.089495850E0,-3.764521637E0,1.417934759E1
7.427238333E0,1.333367249E1,-3.705394592E0,-3.747606812E0,1.433741008E1
7.437178333E0,1.374756180E1,-3.442241821E0,-3.809577942E0,1.467505939E1
7.447117333E0,1.440948532E1,-3.428470459E0,-4.049828339E0,1.535541554E1
7.457057333E0,1.512604523E1,-3.644321594E0,-4.313130798E0,1.614563165E1
7.466996333E0,1.557690765E1,-3.858675842E0,-4.405488739E0,1.664144712E1
7.476936333E0,1.545506104E1,-3.860172729E0,-4.277654572E0,1.649418606E1
7.486876333E0,1.479613129E1,-3.625161438E0,-4.034560089E0,1.575896480E1
7.496815333E0,1.377944550E1,-3.266956329E0,-3.741918640E0,1.464745974E1
7.506755333E0,1.277877640E1,-2.858755188E0,-3.398083649E0,1.352836206E1
7.516694333E0,1.208137665E1,-2.502945099E0,-3.011886749E0,1.270023061E1
7.526634333E0,1.155956177E1,-2.285896454E0,-2.765199738E0,1.210351686E1
7.536573333E0,1.119971008E1,-2.239343262E0,-2.616558838E0,1.171727547E1
7.546513333E0,1.111633347E1,-2.557731171E0,-2.640958099E0,1.170852331E1
7.556452333E0,1.111618378E1,-3.163671112E0,-2.786156158E0,1.188869307E1
7.566392333E0,1.100286942E1,-3.875890045E0,-2.958298187E0,1.203483225E1
7.576331333E0,1.076740906E1,-4.577481079E0,-3.122207336E0,1.210944299E1
7.586271333E0,1.059601547E1,-5.228177948E0,-3.226989441E0,1.224838150E1
7.596210333E0,1.046623535E1,-5.786816254E0,-3.247496796E0,1.239256068E1
7.606150333E0,1.030846344E1,-6.174210663E0,-3.180885315E0,1.242993673E1
7.616090333E0,1.015353561E1,-6.356980591E0,-3.067720642E0,1.236593699E1
7.626029333E0,1.002884491E1,-6.340664520E0,-2.800376587E0,1.219113882E1
7.635969333E0,1.004022125E1,-6.159092102E0,-2.505938873E0,1.204243281E1
7.645908333E0,1.007270370E1,-5.818849640E0,-2.109712830E0,1.182240497E1
7.655848333E0,9.972412262E0,-5.345982971E0,-1.676064606E0,1.143843227E1
7.665787333E0,9.879006500E0,-4.845573578E0,-1.309476929E0,1.108102353E1
7.675727333E0,9.742041321E0,-4.444258118E0,-1.026565247E0,1.075698078E1
7.685666333E0,9.599687347E0,-4.143982544E0,-8.764274597E-1,1.049260280E1
7.695606333E0,9.461075592E0,-3.958218842E0,-8.030799866E-1,1.028709800E1
7.705545333E0,9.266779633E0,-3.878883820E0,-8.189469910E-1,1.007916756E1
7.715485333E0,9.061406708E0,-3.891307983E0,-8.922944641E-1,9.901896725E0
7.725425333E0,8.910670166E0,-4.008813629E0,-9.996212769E-1,9.821907769E0
7.735364333E0,8.768765259E0,-4.223018188E0,-1.180894318E0,9.804062330E0
7.745304333E0,8.627309418E0,-4.481680298E0,-1.426084442E0,9.825967785E0
7.755243333E0,8.513995056E0,-4.780309296E0,-1.683998108E0,9.908345897E0
7.765183333E0,8.409961395E0,-5.128634949E0,-1.909728699E0,1.003381337E1
7.775122333E0,8.262667694E0,-5.442382507E0,-2.112556915E0,1.011702039E1
7.785062333E0,8.049510956E0,-5.638774109E0,-2.288590851E0,1.009098846E1
7.795001333E0,7.754923553E0,-5.729485474E0,-2.393672333E0,9.934561407E0
7.804941333E0,7.399861908E0,-5.735473022E0,-2.415077820E0,9.668826605E0
7.814880333E0,6.991810455E0,-5.742508392E0,-2.412832489E0,9.363950913E0
7.824820333E0,6.612798615E0,-5.758225708E0,-2.383044434E0,9.086537822E0
7.834759333E0,6.142776031E0,-5.728437653E0,-2.293530579E0,8.706835121E0
7.844699333E0,5.676046600E0,-5.661227417E0,-2.115251312E0,8.291036666E0
7.854639333E0,5.251828766E0,-5.689368896E0,-2.044747925E0,8.008221894E0
7.864578333E0,4.724924469E0,-5.800587616E0,-1.976190491E0,7.738026672E0
7.874518333E0,4.340374146E0,-5.957760773E0,-1.997745667E0,7.637064154E0
7.884457333E0,4.068240051E0,-6.203549652E0,-1.986968079E0,7.680016116E0
7.894397333E0,4.044888611E0,-6.574478302E0,-2.008972321E0,7.976268464E0
7.904336333E0,4.109105072E0,-7.069648590E0,-1.994602203E0,8.416835131E0
7.914276333E0,4.068988495E0,-7.568261719E0,-1.867965546E0,8.793437786E0
7.924215333E0,3.896098022E0,-7.949967957E0,-1.686692505E0,9.012574655E0
7.934155333E0,3.767515411E0,-8.131540375E0,-1.452878723E0,9.078930434E0
7.944094333E0,3.901786194E0,-8.069718933E0,-1.133742371E0,9.034913997E0
7.954034333E0,4.305646362E0,-7.747888184E0,-8.098159790E-1,8.900795685E0
7.963973333E0,5.039270782E0,-7.298522644E0,-7.297325134E-1,8.899168070E0
7.973913333E0,6.005212097E0,-7.185507660E0,-1.130748596E0,9.432533332E0
7.983853333E0,6.827901306E0,-7.522606659E0,-1.773511963E0,1.031286536E1
7.993792333E0,7.322173462E0,-7.896229706E0,-2.380948792E0,1.102876171E1
8.003732333E0,7.446564789E0,-8.009693756E0,-2.700534210E0,1.126496366E1
8.013671333E0,7.594906311E0,-7.821385345E0,-2.757415924E0,1.124544411E1
8.023611333E0,7.974367218E0,-7.403304749E0,-2.699486389E0,1.121100711E1
8.033550333E0,8.473429413E0,-6.863826599E0,-2.562072144E0,1.120157736E1
8.043490333E0,8.879385223E0,-6.244863739E0,-2.373763733E0,1.111200069E1
8.053429333E0,9.280101929E0,-5.631738739E0,-2.180515594E0,1.107210103E1
8.063369333E0,9.813592529E0,-5.195096741E0,-2.107916565E0,1.130216531E1
8.073308333E0,1.035007690E1,-5.014721832E0,-2.146386566E0,1.169950863E1
8.083248333E0,1.082563797E1,-4.970264282E0,-2.186503143E0,1.211110071E1
8.093188333E0,1.119985977E1,-5.080584869E0,-2.307900696E0,1.251301751E1
8.103127333E0,1.127200974E1,-5.339396667E0,-2.533032532E0,1.272727834E1
8.113067333E0,1.106484055E1,-5.626499634E0,-2.875670013E0,1.274196502E1
8.123006333E0,1.072010742E1,-5.864205322E0,-3.287014618E0,1.265361894E1
8.132946333E0,1.040201889E1,-5.993237000E0,-3.625460815E0,1.254052841E1
8.142885333E0,1.012763947E1,-5.898484039E0,-3.808829498E0,1.232348884E1
8.152825333E0,9.833800507E0,-5.495372314E0,-3.886967010E0,1.191684781E1
8.162764333E0,9.480684814E0,-4.802912292E0,-3.808979187E0,1.128980396E1
8.172704333E0,9.223968658E0,-4.042792969E0,-3.621568909E0,1.070240787E1
8.182643333E0,9.183253326E0,-3.387006683E0,-3.366798706E0,1.035081105E1
8.192583333E0,9.178463287E0,-2.795586548E0,-3.046764221E0,1.006688952E1
8.202522333E0,9.037905579E0,-2.261197815E0,-2.706671448E0,9.701691767E0
8.212462333E0,8.894952850E0,-1.908381500E0,-2.423310699E0,9.414591914E0
8.222402333E0,8.725654907E0,-1.780397644E0,-2.286944275E0,9.194399570E0
8.232341333E0,8.542286224E0,-1.810036011E0,-2.226619720E0,9.011366138E0
8.242281333E0,8.339158630E0,-2.023791504E0,-2.279459839E0,8.878808246E0
8.252220333E0,8.083340607E0,-2.349963226E0,-2.372416534E0,8.745918062E0
8.262160333E0,7.890391846E0,-2.629132690E0,-2.474953308E0,8.677327703E0
8.272099333E0,7.878716125E0,-2.820434875E0,-2.613265686E0,8.766879617E0
8.282039333E0,7.884703674E0,-2.945724335E0,-2.790497131E0,8.867509128E0
8.291978333E0,7.924221497E0,-3.026855621E0,-2.968477020E0,8.987046072E0
8.301918333E0,8.032446442E0,-3.019221497E0,-3.156336365E0,9.143213523E0
8.311857333E0,8.132288818E0,-2.943179626E0,-3.294349365E0,9.254683435E0
8.321797333E0,8.253686371E0,-2.815046082E0,-3.354374542E0,9.343428264E0
8.331736333E0,8.409212952E0,-2.661615143E0,-3.377127228E0,9.444789354E0
8.341676333E0,8.604407043E0,-2.494861908E0,-3.355871429E0,9.566714669E0
8.351616333E0,8.729546814E0,-2.306703186E0,-3.233276367E0,9.590617458E0
8.361555333E0,8.879684601E0,-2.068249054E0,-3.039130096E0,9.610554849E0
8.371495333E0,9.072184296E0,-1.857637024E0,-2.927162933E0,9.712035113E0
8.381434958E0,9.319470062E0,-1.736838226E0,-2.936593323E0,9.924349329E0
8.391374958E0,9.666298828E0,-1.744472351E0,-3.022963715E0,1.027710204E1
8.401313958E0,1.010503647E1,-1.976938934E0,-3.191064148E0,1.077974675E1
8.411253958E0,1.057296341E1,-2.397115173E0,-3.382665710E0,1.135676643E1
8.421192958E0,1.100227066E1,-2.966381378E0,-3.524570618E0,1.192778170E1
8.431132958E0,1.146585663E1,-3.577111359E0,-3.677402802E0,1.256124537E1
8.441071958E0,1.193273575E1,-4.104913788E0,-3.748205566E0,1.316394867E1
8.451011958E0,1.246457977E1,-4.390070801E0,-3.788621521E0,1.374744062E1
8.460951958E0,1.294508057E1,-4.395160217E0,-3.748804321E0,1.417554507E1
8.470890958E0,1.326047470E1,-4.154610443E0,-3.594026184E0,1.435332719E1
8.480830958E0,1.355880432E1,-3.729644165E0,-3.443139954E0,1.447779793E1
8.490769958E0,1.400158356E1,-3.427722015E0,-3.535647583E0,1.484231869E1
8.500709958E0,1.466814743E1,-3.458108826E0,-3.793860626E0,1.554047760E1
8.510648958E0,1.540641220E1,-3.720962219E0,-4.000580750E0,1.634649024E1
8.520588958E0,1.574455902E1,-3.959266663E0,-3.981270905E0,1.671578444E1
8.530527958E0,1.543470337E1,-3.934568024E0,-3.729644165E0,1.635913015E1
8.540467958E0,1.448343155E1,-3.611539764E0,-3.367098083E0,1.530197237E1
8.550406958E0,1.325807968E1,-3.269650726E0,-3.082390137E0,1.399887216E1
8.560346958E0,1.230546066E1,-3.069516907E0,-2.759661255E0,1.297929222E1
8.570285958E0,1.158351196E1,-2.868335266E0,-2.443518677E0,1.218096384E1
8.580225958E0,1.089419540E1,-2.519560547E0,-2.220781860E0,1.140015574E1
8.590164958E0,1.043629761E1,-2.325563965E0,-2.170187073E0,1.091028265E1
8.600104958E0,1.031564850E1,-2.585423584E0,-2.335742798E0,1.088819147E1
8.610044958E0,1.035621414E1,-3.211870880E0,-2.638862457E0,1.115934053E1
8.619983958E0,1.033316208E1,-3.971840515E0,-2.921624451E0,1.144926395E1
8.629923958E0,1.016910324E1,-4.727469177E0,-3.121608582E0,1.164062136E1
8.639862958E0,1.003692810E1,-5.429958344E0,-3.309916992E0,1.188191583E1
8.649802958E0,9.945617981E0,-6.094127197E0,-3.486250305E0,1.217405621E1
8.659741958E0,9.885742493E0,-6.585405579E0,-3.594624939E0,1.241035051E1
8.669681958E0,9.892328796E0,-6.846013641E0,-3.624113617E0,1.256424575E1
8.679620958E0,1.000459534E1,-6.926396484E0,-3.571273499E0,1.268151767E1
8.689560958E0,1.018601807E1,-6.765181732E0,-3.339255981E0,1.267569637E1
8.699499958E0,1.042387344E1,-6.330934753E0,-2.904709625E0,1.253695379E1
8.709439958E0,1.059900925E1,-5.735473022E0,-2.373015289E0,1.228274600E1
8.719378958E0,1.061487625E1,-5.203030243E0,-1.991458740E0,1.198803693E1
8.729318958E0,1.052446426E1,-4.693340149E0,-1.603615265E0,1.163457656E1
8.739258958E0,1.043689636E1,-4.301155701E0,-1.419348450E0,1.137731498E1
8.749197958E0,1.017868332E1,-3.971391449E0,-1.200204163E0,1.099172571E1
8.759137958E0,1.000579285E1,-3.798051910E0,-1.060694275E0,1.075482037E1
8.769076958E0,9.769733734E0,-3.827091522E0,-9.852511597E-1,1.053874028E1
8.779016958E0,9.462273102E0,-3.948938141E0,-9.885443115E-1,1.030077398E1
8.788955958E0,9.110055542E0,-4.177812195E0,-1.051263885E0,1.007732020E1
8.798895958E0,8.761580200E0,-4.426145782E0,-1.202449493E0,9.889486280E0
8.808834958E0,8.426277466E0,-4.673730927E0,-1.402733002E0,9.737226123E0
8.818774958E0,8.076903992E0,-4.940027161E0,-1.575473785E0,9.598039596E0
8.828713958E0,7.726333008E0,-5.154082031E0,-1.709445190E0,9.443674401E0
8.838653958E0,7.400011597E0,-5.283862152E0,-1.810036011E0,9.271224365E0
8.848592958E0,7.110962677E0,-5.375920715E0,-1.914967804E0,9.117752762E0
8.858532958E0,6.815926208E0,-5.421575775E0,-1.989812164E0,8.933626722E0
8.868472958E0,6.460265808E0,-5.382956085E0,-2.051483917E0,8.655624575E0
8.878411958E0,6.052813110E0,-5.301226044E0,-2.100731506E0,8.315805251E0
8.888351958E0,5.662724304E0,-5.212310944E0,-2.135908356E0,7.987285923E0
8.898290958E0,5.330265656E0,-5.155728607E0,-2.131268005E0,7.715929804E0
8.908230958E0,5.052593079E0,-5.138813782E0,-2.084864502E0,7.502183942E0
8.918169958E0,4.823719025E0,-5.245691528E0,-2.055974579E0,7.417046333E0
8.928109958E0,4.674479370E0,-5.490731964E0,-2.086810455E0,7.506908336E0
8.938048958E0,4.530179443E0,-5.844745789E0,-2.093696136E0,7.685515118E0
8.947988958E0,4.488266602E0,-6.321354675E0,-2.146087189E0,8.044237207E0
8.957927958E0,4.488565979E0,-6.916067963E0,-2.191293182E0,8.531177318E0
8.967867958E0,4.498595123E0,-7.420069885E0,-2.096390533E0,8.926905872E0
8.977806958E0,4.542753296E0,-7.777077484E0,-1.909279633E0,9.206785021E0
8.987746958E0,4.613705750E0,-7.999963989E0,-1.620230713E0,9.376078718E0
8.997685958E0,4.773722992E0,-7.985144806E0,-1.278790741E0,9.390754737E0
9.007625958E0,5.051844635E0,-7.639513550E0,-9.114546204E-1,9.204023632E0
9.017565958E0,5.587879944E0,-7.105124817E0,-6.893165588E-1,9.065448596E0
9.027504958E0,6.305487671E0,-6.727011108E0,-8.017327881E-1,9.254978589E0
9.037444958E0,7.098688202E0,-6.775510254E0,-1.262774048E0,9.894115003E0
9.047383958E0,7.726033630E0,-7.123087463E0,-1.877695312E0,1.067500400E1
9.057323958E0,7.934999084E0,-7.486232300E0,-2.382146301E0,1.116613208E1
9.067262958E0,7.837102661E0,-7.701484680E0,-2.643951874E0,1.130148335E1
9.077202958E0,7.769892426E0,-7.636370087E0,-2.712359619E0,1.122685491E1
9.087141958E0,7.796087952E0,-7.273674316E0,-2.568209381E0,1.096727062E1
9.097081958E0,7.827821960E0,-6.641838226E0,-2.229014740E0,1.050510916E1
9.107020958E0,7.969277802E0,-5.873486023E0,-1.884431305E0,1.007761421E1
9.116960958E0,8.311615906E0,-5.134472809E0,-1.657652893E0,9.909267536E0
9.126900958E0,8.798703003E0,-4.686005402E0,-1.592538300E0,1.009514732E1
9.136839958E0,9.392368469E0,-4.497996368E0,-1.714085541E0,1.055398721E1
9.146779958E0,9.973609772E0,-4.445455627E0,-1.930984497E0,1.108889845E1
9.156718958E0,1.037507492E1,-4.520749054E0,-2.133064270E0,1.151648014E1
9.166658958E0,1.059302170E1,-4.858895874E0,-2.412982178E0,1.190140583E1
9.176597958E0,1.050186127E1,-5.363646240E0,-2.791994019E0,1.211829285E1
9.186537958E0,1.030172745E1,-5.893095245E0,-3.285218353E0,1.231449632E1
9.196476958E0,1.015084122E1,-6.297703857E0,-3.622317352E0,1.248286162E1
9.206416958E0,9.921967163E0,-6.468798065E0,-3.816763000E0,1.244421394E1
9.216355958E0,9.646390228E0,-6.240672455E0,-3.966601410E0,1.215453676E1
9.226295958E0,9.449998627E0,-5.528603210E0,-3.939657440E0,1.163567051E1
9.236234958E0,9.338630219E0,-4.548591156E0,-3.722159729E0,1.103422716E1
9.246174958E0,9.386979675E0,-3.644770660E0,-3.494333496E0,1.065880421E1
9.256113958E0,9.497899017E0,-2.901117096E0,-3.277733917E0,1.045801634E1
9.266053958E0,9.441466370E0,-2.248174896E0,-2.990181885E0,1.015562727E1
9.275993958E0,9.365723877E0,-1.844763794E0,-2.757864990E0,9.936083559E0
9.285932958E0,9.219627686E0,-1.694176941E0,-2.555336151E0,9.716044103E0
9.295872958E0,8.999734955E0,-1.706601105E0,-2.456990662E0,9.483908461E0
9.305811958E0,8.679401093E0,-1.898502045E0,-2.418370972E0,9.207867913E0
9.315751958E0,8.324638824E0,-2.237996063E0,-2.429747314E0,8.956110202E0
9.325690958E0,8.050109711E0,-2.562970276E0,-2.498604126E0,8.810000316E0
9.335630958E0,7.838599548E0,-2.761008453E0,-2.585573273E0,8.703562472E0
9.345569958E0,7.747888184E0,-2.891237640E0,-2.668500824E0,8.689644587E0
9.355509958E0,7.735464020E0,-3.007545776E0,-2.844684448E0,8.773537759E0
9.365448958E0,7.823480988E0,-3.077001343E0,-3.034938812E0,8.937877020E0
9.375388958E0,8.017627258E0,-3.088377686E0,-3.142415314E0,9.148507943E0
9.385327958E0,8.282576294E0,-3.029999084E0,-3.118914185E0,9.354656071E0
9.395267958E0,8.521778870E0,-2.942431183E0,-3.007695465E0,9.503938572E0
9.405207958E0,8.736582184E0,-2.873424683E0,-2.875520325E0,9.636028995E0
9.415146958E0,8.943901062E0,-2.775677948E0,-2.754122772E0,9.761298404E0
9.425086958E0,9.104067993E0,-2.575993195E0,-2.637814636E0,9.822314443E0
9.435025958E0,9.232650604E0,-2.325563965E0,-2.588716736E0,9.866688364E0
9.444965958E0,9.457632751E0,-2.152074738E0,-2.585423584E0,1.003806047E1
9.454904958E0,9.831704865E0,-2.126178589E0,-2.635120239E0,1.039840923E1
9.464844958E0,1.032837204E1,-2.316882019E0,-2.743943939E0,1.093491836E1
9.474783958E0,1.093431198E1,-2.684966583E0,-2.875220947E0,1.162046125E1
9.484723958E0,1.151989426E1,-3.171005859E0,-3.033142548E0,1.232733530E1
9.494662958E0,1.217702774E1,-3.721261597E0,-3.249442749E0,1.314103004E1
9.504602958E0,1.275392807E1,-4.173770599E0,-3.385509796E0,1.383996817E1
9.514541958E0,1.325254120E1,-4.355642395E0,-3.504811707E0,1.438350354E1
9.524481958E0,1.370250549E1,-4.314627686E0,-3.663032684E0,1.482539973E1
9.534420958E0,1.408855270E1,-4.088448029E0,-3.733386383E0,1.513740065E1
9.544360958E0,1.446696579E1,-3.746109924E0,-3.785178680E0,1.541603115E1
9.554300958E0,1.502455627E1,-3.582051086E0,-3.993994446E0,1.595369465E1
9.564239958E0,1.578647186E1,-3.739972687E0,-4.292922821E0,1.678181384E1
9.574179958E0,1.633732635E1,-3.994144135E0,-4.481081543E0,1.740521507E1
9.584118958E0,1.615485580E1,-3.977528687E0,-4.382436676E0,1.720482060E1
9.594058958E0,1.519056107E1,-3.615281982E0,-4.105961609E0,1.614565979E1
9.603997958E0,1.382614838E1,-3.138373718E0,-4.000431061E0,1.473143636E1
9.613937958E0,1.266171982E1,-2.805166626E0,-3.951931915E0,1.355750251E1
9.623876958E0,1.195099777E1,-2.663561096E0,-3.804937592E0,1.282179611E1
9.633816958E0,1.147438889E1,-2.630180511E0,-3.657643890E0,1.232711680E1
9.643755958E0,1.111708191E1,-2.759960632E0,-3.604504395E0,1.200830316E1
9.653695958E0,1.097338074E1,-3.155737610E0,-3.649111633E0,1.198706721E1
9.663634958E0,1.090242828E1,-3.798800354E0,-3.716172180E0,1.212863398E1
9.673574958E0,1.072759186E1,-4.540507965E0,-3.785178680E0,1.224847000E1
9.683513958E0,1.047581543E1,-5.203628998E0,-3.887416077E0,1.232608889E1
9.693453958E0,1.020697449E1,-5.773194580E0,-3.998485107E0,1.238951117E1
9.703393958E0,1.004396347E1,-6.170767822E0,-4.061803436E0,1.246827273E1
9.713332958E0,9.962532806E0,-6.370901642E0,-4.115841064E0,1.252120583E1
9.723272958E0,9.994416504E0,-6.283782806E0,-3.852388916E0,1.241834079E1
9.733211958E0,1.031774414E1,-5.957461395E0,-3.600911865E0,1.244643550E1
9.743151958E0,1.074031540E1,-5.722450104E0,-3.298989716E0,1.260889143E1
9.753090958E0,1.103325623E1,-5.434898071E0,-2.864293671E0,1.262834266E1
9.763030958E0,1.104133942E1,-5.072052612E0,-2.477348328E0,1.240057049E1
9.772969958E0,1.096814163E1,-4.732558594E0,-2.057621155E0,1.212151173E1
9.782909958E0,1.075333832E1,-4.501139832E0,-1.751807098E0,1.178827268E1
9.792848958E0,1.052626053E1,-4.300856323E0,-1.427880707E0,1.146029533E1
9.802788958E0,1.027882507E1,-4.234244843E0,-1.197809143E0,1.118113684E1
9.812727958E0,9.909393311E0,-4.264631653E0,-1.056952057E0,1.083975584E1
9.822667958E0,9.529333649E0,-4.295617218E0,-9.463320923E-1,1.049552626E1
9.832607958E0,9.173523560E0,-4.357887726E0,-9.372010803E-1,1.019916986E1
9.842546958E0,8.830437012E0,-4.541406097E0,-1.068927155E0,9.987171392E0
9.852486958E0,8.526568909E0,-4.828958130E0,-1.264270935E0,9.880262900E0
9.862425958E0,8.285270691E0,-5.125641174E0,-1.426234131E0,9.846423293E0
9.872365958E0,8.022417297E0,-5.417085114E0,-1.588945770E0,9.809624819E0
9.882304958E0,7.671846313E0,-5.675747223E0,-1.718276825E0,9.696587423E0
9.892244958E0,7.276069336E0,-5.890251160E0,-1.834584961E0,9.539493995E0
9.902183958E0,6.925498352E0,-6.088439026E0,-1.921254730E0,9.419280065E0
9.912123958E0,6.653214569E0,-6.256389771E0,-1.982028351E0,9.345379256E0
9.922062958E0,6.379882965E0,-6.327791290E0,-1.942809906E0,9.193386731E0
9.932002958E0,6.046675873E0,-6.307433624E0,-1.798509979E0,8.920798517E0
9.941941958E0,5.665119324E0,-6.187982025E0,-1.601070557E0,8.540967476E0
9.951881958E0,5.322332153E0,-6.006110229E0,-1.403481445E0,8.146799360E0
9.961820958E0,5.024750977E0,-5.800288239E0,-1.201850739E0,7.767619405E0
9.971760958E0,4.830155640E0,-5.638624420E0,-1.075363770E0,7.502059457E0
9.981700958E0,4.586312714E0,-5.497917023E0,-9.014254761E-1,7.216226423E0
9.991639958E0,4.432732086E0,-5.446124725E0,-8.620573425E-1,7.074781349E0
1.000157996E1,4.349505157E0,-5.547613678E0,-9.580078125E-1,7.114210540E0
1.001151896E1,4.328997803E0,-5.788762207E0,-1.117276611E0,7.314252996E0
1.002145896E1,4.281546478E0,-6.147566071E0,-1.317560120E0,7.606587507E0
1.003139796E1,4.210893402E0,-6.431076508E0,-1.469793549E0,7.826280174E0
1.004133796E1,4.206253052E0,-6.606511688E0,-1.526226196E0,7.979218497E0
1.005127696E1,4.242777100E0,-6.684349823E0,-1.426234131E0,8.044615210E0
1.006121696E1,4.284540253E0,-6.520590363E0,-1.198407898E0,7.893767500E0
1.007115596E1,4.533322906E0,-6.026617584E0,-9.261241150E-1,7.597949852E0
1.008109596E1,4.981191559E0,-5.405708771E0,-7.587721252E-1,7.389837062E0
1.009103496E1,5.415139160E0,-4.959187317E0,-8.327183533E-1,7.389904656E0
1.010097496E1,5.979166260E0,-4.699926453E0,-1.152453461E0,7.692066484E0
1.011091396E1,6.629414062E0,-4.612657928E0,-1.710193634E0,8.255331989E0
1.012085396E1,7.247927856E0,-4.809648285E0,-2.432741089E0,9.032353184E0
1.013079396E1,7.610024872E0,-5.098996582E0,-3.009192352E0,9.641964702E0
1.014073296E1,8.015531616E0,-5.406756592E0,-3.605552216E0,1.031900047E1
1.015067296E1,8.269104309E0,-5.697302399E0,-4.137096863E0,1.086061283E1
1.016061196E1,8.543034668E0,-5.878276062E0,-4.483326874E0,1.129768962E1
1.017055196E1,8.954229584E0,-5.956413574E0,-4.731211395E0,1.174910428E1
1.018049096E1,9.442214813E0,-5.888305206E0,-4.724176025E0,1.208906108E1
1.019043096E1,1.007360184E1,-5.715863800E0,-4.462071075E0,1.241203574E1
1.020036996E1,1.085303101E1,-5.576952667E0,-3.940854950E0,1.282267604E1
1.021030996E1,1.155896301E1,-5.515131226E0,-3.370840302E0,1.324344603E1
1.022024896E1,1.211131439E1,-5.463039551E0,-2.873574371E0,1.359360758E1
1.023018896E1,1.252655090E1,-5.361999664E0,-2.462080078E0,1.384656478E1
1.024012796E1,1.279703842E1,-5.242997131E0,-2.163451080E0,1.399763308E1
1.025006796E1,1.283610718E1,-5.137466583E0,-2.041754150E0,1.397597833E1
1.026000696E1,1.261890884E1,-5.080285492E0,-2.154769135E0,1.377276991E1
1.026994696E1,1.207928101E1,-5.084925842E0,-2.505190430E0,1.334321848E1
1.027988696E1,1.128623016E1,-5.072501678E0,-2.946622467E0,1.271974247E1
1.028982596E1,1.050964508E1,-4.885690155E0,-3.238515472E0,1.203372721E1
1.029976596E1,9.748777313E0,-4.399201813E0,-3.386407928E0,1.121870734E1
1.030970496E1,9.049880676E0,-3.769611053E0,-3.434158630E0,1.038767314E1
1.031964496E1,8.514444122E0,-3.140020294E0,-3.496279449E0,9.725196972E0
1.032958396E1,8.080197144E0,-2.547103271E0,-3.554508362E0,9.187592212E0
1.033952396E1,7.688611450E0,-2.060764618E0,-3.552263031E0,8.716654719E0
1.034946296E1,7.382647705E0,-1.725012817E0,-3.547622681E0,8.370470897E0
1.035940296E1,7.138505402E0,-1.550775146E0,-3.503763885E0,8.101822282E0
1.036934196E1,6.965465240E0,-1.512903900E0,-3.423979797E0,7.907605319E0
1.037928146E1,6.785838776E0,-1.614243164E0,-3.313808899E0,7.722351863E0
1.038922046E1,6.551126862E0,-1.778451691E0,-3.204835510E0,7.506738587E0
1.039916046E1,6.337221680E0,-1.970801697E0,-3.110232239E0,7.329255250E0
1.040909946E1,6.215375061E0,-2.209106140E0,-3.045117645E0,7.265244563E0
1.041903946E1,6.161487122E0,-2.491568756E0,-2.946023712E0,7.269862043E0
1.042897846E1,6.228847046E0,-2.777025146E0,-2.788251801E0,7.367818693E0
1.043891846E1,6.355334015E0,-3.034340057E0,-2.558030548E0,7.492730498E0
1.044885846E1,6.516997833E0,-3.251538391E0,-2.341430969E0,7.650232784E0
1.045879746E1,6.774612122E0,-3.402873688E0,-2.172282715E0,7.886300205E0
1.046873746E1,7.079528046E0,-3.490890656E0,-2.061962128E0,8.158291655E0
1.047867646E1,7.377707977E0,-3.535647583E0,-2.049537964E0,8.433977988E0
1.048861646E1,7.728428650E0,-3.555556183E0,-2.114203491E0,8.765868215E0
1.049855546E1,8.095016327E0,-3.462749176E0,-2.205663300E0,9.076611250E0
1.050849546E1,8.439001007E0,-3.336561584E0,-2.373164978E0,9.379834392E0
1.051843446E1,8.920998688E0,-3.242856445E0,-2.570604401E0,9.834039989E0
1.052837446E1,9.542955322E0,-3.189417572E0,-2.806513824E0,1.044590353E1
1.053831346E1,1.023541534E1,-3.266806641E0,-3.030747528E0,1.116338584E1
1.054825346E1,1.099778000E1,-3.451971588E0,-3.205284576E0,1.196415989E1
1.055819246E1,1.173260193E1,-3.690874786E0,-3.344794464E0,1.274614274E1
1.056813246E1,1.243524078E1,-3.889362030E0,-3.449277191E0,1.347812537E1
1.057807146E1,1.307725571E1,-4.020489349E0,-3.472029877E0,1.411502543E1
1.058801146E1,1.369397324E1,-4.053570557E0,-3.511547699E0,1.470670951E1
1.059795046E1,1.421144714E1,-3.944148102E0,-3.474275208E0,1.515229759E1
1.060789046E1,1.466156113E1,-3.614533539E0,-3.442990265E0,1.548807313E1
1.061783046E1,1.515209106E1,-3.182531891E0,-3.504512329E0,1.587438123E1
1.062776946E1,1.578063400E1,-2.874322815E0,-3.675756226E0,1.645604220E1
1.063770946E1,1.645423325E1,-2.754272461E0,-3.892954559E0,1.713134273E1
1.064764846E1,1.684057983E1,-2.641556854E0,-4.024830322E0,1.751519942E1
1.065758846E1,1.658865372E1,-2.272274780E0,-4.029470673E0,1.722159397E1
1.066752746E1,1.569755676E1,-1.684596863E0,-3.971241760E0,1.627949373E1
1.067746746E1,1.457099945E1,-1.171763306E0,-3.957021332E0,1.514414316E1
1.068740646E1,1.356209747E1,-8.798703003E-1,-3.871998138E0,1.413141993E1
1.069734646E1,1.280362473E1,-1.051114197E0,-3.714226227E0,1.337285024E1
1.070728546E1,1.240021362E1,-1.622925110E0,-3.591930542E0,1.301157749E1
1.071722546E1,1.232881210E1,-2.337389374E0,-3.427871704E0,1.300820131E1
1.072716446E1,1.242805573E1,-3.157683563E0,-3.270548859E0,1.323344341E1
1.073710446E1,1.269525009E1,-4.105662231E0,-3.223097534E0,1.372640503E1
1.074704346E1,1.292726761E1,-5.155129852E0,-3.266956329E0,1.429554529E1
1.075698346E1,1.301348831E1,-6.181096344E0,-3.363056488E0,1.479415354E1
1.076692346E1,1.298549652E1,-7.167844391E0,-3.539988556E0,1.524902069E1
1.077686246E1,1.283341278E1,-7.972271576E0,-3.650458832E0,1.554282623E1
1.078680246E1,1.239198074E1,-8.565038910E0,-3.784430237E0,1.553199892E1
1.079674146E1,1.149609375E1,-8.767867126E0,-3.240162048E0,1.481669044E1
1.080668146E1,1.085752167E1,-7.946525116E0,-2.499502258E0,1.368504840E1
1.081662046E1,1.055515045E1,-7.155569916E0,-2.159110107E0,1.293348902E1
1.082656046E1,1.023796005E1,-6.431076508E0,-1.738933868E0,1.221468223E1
1.083649946E1,9.620943146E0,-5.431604919E0,-1.241518250E0,1.111783462E1
1.084643946E1,9.148076477E0,-4.481380920E0,-9.325607300E-1,1.022935715E1
1.085637846E1,8.825646973E0,-3.861968994E0,-8.083190918E-1,9.667483062E0
1.086631846E1,8.640182648E0,-3.565585327E0,-8.559201050E-1,9.386093657E0
1.087625746E1,8.557704163E0,-3.445085907E0,-1.025816803E0,9.281983492E0
1.088619746E1,8.434660034E0,-3.471131744E0,-1.298549652E0,9.212951573E0
1.089613646E1,8.126301270E0,-3.657643890E0,-1.670975189E0,9.066823547E0
1.090607646E1,7.758216705E0,-3.857029266E0,-2.022593994E0,8.897049380E0
1.091601546E1,7.508685608E0,-4.018543396E0,-2.289938049E0,8.818892609E0
1.092595546E1,7.320227509E0,-4.175716553E0,-2.540966034E0,8.802206990E0
1.093589546E1,7.134314117E0,-4.337530060E0,-2.738106079E0,8.786912418E0
1.094583446E1,6.990463257E0,-4.507875824E0,-2.809806976E0,8.779666066E0
1.095577446E1,6.829398193E0,-4.677173767E0,-2.808908844E0,8.741087062E0
1.096571346E1,6.689588928E0,-4.857698364E0,-2.718197479E0,8.702668037E0
1.097565346E1,6.604416046E0,-5.007087708E0,-2.507884827E0,8.659025634E0
1.098559246E1,6.533762970E0,-5.109325104E0,-2.159409485E0,8.570782396E0
1.099553246E1,6.380481720E0,-5.128485260E0,-1.826950836E0,8.387470262E0
1.100547146E1,6.291566620E0,-5.087320862E0,-1.512005768E0,8.231087749E0
1.101541146E1,6.126909027E0,-5.006488953E0,-1.260977783E0,8.012116501E0
1.102535046E1,5.978866882E0,-4.919370117E0,-1.085392914E0,7.818256156E0
1.103529046E1,5.746250610E0,-4.883295135E0,-9.229806519E-1,7.597227175E0
1.104522946E1,5.549859009E0,-4.856500854E0,-7.217990112E-1,7.409961497E0
1.105516946E1,5.431604919E0,-4.906646576E0,-6.239025879E-1,7.346207665E0
1.106510846E1,5.393434296E0,-5.047353973E0,-5.703140259E-1,7.408790301E0
1.107504846E1,5.444777527E0,-5.323529663E0,-5.909710693E-1,7.637723299E0
1.108498746E1,5.547314301E0,-5.762117615E0,-7.256909180E-1,8.031271547E0
1.109492746E1,5.573958893E0,-6.286626892E0,-9.165440369E-1,8.451671337E0
1.110486746E1,5.521268463E0,-6.720275116E0,-1.085392914E0,8.764963255E0
1.111480646E1,5.479056244E0,-7.062912598E0,-1.246158600E0,9.025392121E0
1.112474646E1,5.447172546E0,-7.354206848E0,-1.357527008E0,9.251968801E0
1.113468546E1,5.447471924E0,-7.465126190E0,-1.390009460E0,9.345329619E0
1.114462546E1,5.434898071E0,-7.342531128E0,-1.355880432E0,9.235220201E0
1.115456446E1,5.567671967E0,-7.063511353E0,-1.310973816E0,9.089049241E0
1.116450446E1,6.059249725E0,-6.725065155E0,-1.347797241E0,9.151915973E0
1.117444346E1,6.690187683E0,-6.564898224E0,-1.594334564E0,9.507807456E0
1.118438346E1,7.208559723E0,-6.714586945E0,-1.971101074E0,1.004660393E1
1.119432246E1,7.549999695E0,-7.021897888E0,-2.326911163E0,1.056996031E1
1.120426246E1,7.600145416E0,-7.263495483E0,-2.532433777E0,1.081359320E1
1.121420146E1,7.585026855E0,-7.413782959E0,-2.599943390E0,1.092046317E1
1.122414146E1,7.604336700E0,-7.350913696E0,-2.432142334E0,1.085251976E1
1.123408046E1,7.588769073E0,-6.951394501E0,-2.126627655E0,1.050875096E1
1.124402046E1,7.622598724E0,-6.299799500E0,-1.789079590E0,1.004949207E1
1.125395946E1,7.878267059E0,-5.665718079E0,-1.538051605E0,9.825123711E0
1.126389946E1,8.511600037E0,-5.196593628E0,-1.503623199E0,1.008527656E1
1.127383946E1,9.320368195E0,-4.911137238E0,-1.685944061E0,1.066915834E1
1.128377846E1,1.004770569E1,-4.766388245E0,-1.994003448E0,1.129826961E1
1.129371846E1,1.078162949E1,-4.797972565E0,-2.308050385E0,1.202460692E1
1.130365746E1,1.155566986E1,-5.141358490E0,-2.740501099E0,1.294130671E1
1.131359746E1,1.198961746E1,-5.569318542E0,-3.131637726E0,1.358585260E1
1.132353646E1,1.203212906E1,-5.844596100E0,-3.473377075E0,1.382012234E1
1.133347646E1,1.179801590E1,-5.979615326E0,-3.811523895E0,1.376505332E1
1.134341546E1,1.160940811E1,-5.953120422E0,-4.032913513E0,1.365585555E1
1.135335546E1,1.145238464E1,-5.692512360E0,-4.198768616E0,1.346073805E1
1.136329446E1,1.123623413E1,-5.152734833E0,-4.337530060E0,1.310029773E1
1.137323446E1,1.097547638E1,-4.418960724E0,-4.371808777E0,1.261352479E1
1.138317350E1,1.089224945E1,-3.685186615E0,-4.287983093E0,1.227226538E1
1.139311350E1,1.097128510E1,-3.029250641E0,-4.012406158E0,1.206834120E1
1.140305250E1,1.103610031E1,-2.474803619E0,-3.660188599E0,1.188768874E1
1.141299250E1,1.099284027E1,-2.160756683E0,-3.344944153E0,1.169188001E1
1.142293150E1,1.086156326E1,-2.053429871E0,-2.938988342E0,1.143799734E1
1.143287150E1,1.055365356E1,-1.975891113E0,-2.455044708E0,1.101412701E1
1.144281150E1,1.006836273E1,-1.806742859E0,-2.004032593E0,1.042364593E1
1.145275050E1,9.548793182E0,-1.534608765E0,-1.807491302E0,9.838775336E0
1.146269050E1,9.122928772E0,-1.314117279E0,-1.886676636E0,9.408202928E0
1.147262950E1,8.874295807E0,-1.147663422E0,-2.097438354E0,9.190729299E0
1.148256950E1,8.628357239E0,-1.008303223E0,-2.400857391E0,9.012732119E0
1.149250850E1,8.439450073E0,-9.246272278E-1,-2.759511566E0,8.927158402E0
1.150244850E1,8.296796722E0,-9.758207703E-1,-3.084186401E0,8.905125928E0
1.151238750E1,8.208929443E0,-1.169817352E0,-3.414399719E0,8.967336321E0
1.152232750E1,8.081095276E0,-1.491498413E0,-3.670666809E0,9.000136843E0
1.153226650E1,7.951015778E0,-1.845362549E0,-3.817810822E0,9.011087298E0
1.154220650E1,7.902217255E0,-2.172432404E0,-3.889062653E0,9.071345457E0
1.155214550E1,7.854017487E0,-2.435585175E0,-3.873944092E0,9.089835458E0
1.156208550E1,7.675738220E0,-2.617307281E0,-3.833079071E0,8.969935886E0
1.157202450E1,7.474406891E0,-2.690355377E0,-3.774550781E0,8.794998808E0
1.158196450E1,7.314389648E0,-2.714305573E0,-3.610342255E0,8.596645966E0
1.159190350E1,7.321425018E0,-2.689756622E0,-3.373534698E0,8.498163999E0
1.160184350E1,7.600145416E0,-2.675685883E0,-3.121159515E0,8.640783646E0
1.161178250E1,8.060587921E0,-2.825524292E0,-2.865191803E0,9.009216904E0
1.162172250E1,8.598868561E0,-3.144361267E0,-2.712808685E0,9.549182126E0
1.163166250E1,9.124425659E0,-3.537743225E0,-2.684966583E0,1.014789714E1
1.164160150E1,9.646689606E0,-4.019740906E0,-2.729274445E0,1.080119791E1
1.165154150E1,1.016551071E1,-4.540507965E0,-2.858156433E0,1.149447166E1
1.166148050E1,1.057296341E1,-4.926555176E0,-3.045267334E0,1.205537865E1
1.167142050E1,1.096604599E1,-5.099445648E0,-3.247945862E0,1.252228665E1
1.168135950E1,1.142603943E1,-5.038971405E0,-3.394042053E0,1.294083194E1
1.169129950E1,1.193258606E1,-4.800068207E0,-3.467239838E0,1.332099910E1
1.170123850E1,1.263747025E1,-4.641996918E0,-3.654201050E0,1.395016039E1
1.171117850E1,1.358050919E1,-4.714296570E0,-3.920197906E0,1.490042864E1
1.172111750E1,1.460527817E1,-4.910089417E0,-4.152065735E0,1.595815711E1
1.173105750E1,1.542706924E1,-4.992118835E0,-4.269122314E0,1.676726338E1
1.174099650E1,1.577749054E1,-4.735702057E0,-4.289929047E0,1.702232572E1
1.175093650E1,1.554756866E1,-4.059857483E0,-4.143982544E0,1.659463544E1
1.176087550E1,1.511661484E1,-3.112926636E0,-3.974684601E0,1.593739232E1
1.177081550E1,1.467428467E1,-2.189945984E0,-3.934568024E0,1.534963581E1
1.178075450E1,1.432491119E1,-1.529519348E0,-3.998784485E0,1.495101293E1
1.179069450E1,1.409094772E1,-1.315913544E0,-4.053869934E0,1.472142308E1
1.180063350E1,1.384291351E1,-1.596430206E0,-4.091142426E0,1.452281964E1
1.181057350E1,1.339354797E1,-2.393971710E0,-4.103117523E0,1.421104505E1
1.182051250E1,1.293490173E1,-3.407214661E0,-4.075574799E0,1.398324371E1
1.183045250E1,1.234482880E1,-4.161047058E0,-3.880530396E0,1.359292562E1
1.184039250E1,1.173888885E1,-4.683610382E0,-3.551215210E0,1.312816999E1
1.185033150E1,1.099328934E1,-4.841232605E0,-3.100801849E0,1.240584200E1
1.186027150E1,1.070618637E1,-4.933141479E0,-3.241808624E0,1.222569567E1
1.187021050E1,1.064511337E1,-5.779331818E0,-3.625011749E0,1.264356853E1
1.188015050E1,1.039423508E1,-5.758525085E0,-2.887196045E0,1.222851729E1
1.189008950E1,1.029379395E1,-5.223088531E0,-3.271896057E0,1.199783945E1
1.190002950E1,1.028765671E1,-5.228627014E0,-3.265609131E0,1.199327411E1
1.190996850E1,1.004351440E1,-5.097499695E0,-3.163671112E0,1.169895293E1
1.191990850E1,9.858648834E0,-4.774621124E0,-3.096161499E0,1.138315333E1
1.192984750E1,9.573491821E0,-4.538562012E0,-2.941682739E0,1.099562586E1
1.193978750E1,9.423503723E0,-4.328249359E0,-2.777773590E0,1.073555732E1
1.194972650E1,9.364226990E0,-4.158352661E0,-2.487227783E0,1.054357368E1
1.195966650E1,9.275910645E0,-3.931723938E0,-2.123783569E0,1.029618512E1
1.196960550E1,9.169332275E0,-3.734733582E0,-1.897903290E0,1.008101811E1
1.197954550E1,9.065298615E0,-3.720662842E0,-1.679208069E0,9.941967144E0
1.198948450E1,8.976233826E0,-3.757336578E0,-1.445094910E0,9.837614099E0
1.199942450E1,8.886270905E0,-3.843108215E0,-1.340612183E0,9.774074502E0
1.200936350E1,8.741521912E0,-4.001628571E0,-1.318907318E0,9.703955537E0
1.201930350E1,8.557105408E0,-4.115691376E0,-1.378333740E0,9.594934724E0
1.202924350E1,8.437653809E0,-4.263284454E0,-1.475032654E0,9.567931723E0
1.203918250E1,8.336913300E0,-4.446653137E0,-1.525328064E0,9.570970337E0
1.204912250E1,8.145311737E0,-4.489613800E0,-1.513652344E0,9.423050397E0
1.205906150E1,7.925119629E0,-4.484823761E0,-1.454525299E0,9.221540497E0
1.206900150E1,7.817343750E0,-4.545298004E0,-1.347647552E0,9.142579022E0
1.207894050E1,7.709717560E0,-4.631818085E0,-1.221310272E0,9.076622852E0
1.208888050E1,7.567213898E0,-4.639452209E0,-1.045575714E0,8.937587569E0
1.209881950E1,7.395970001E0,-4.732109528E0,-9.547146606E-1,8.832027679E0
1.210875950E1,7.197482758E0,-4.897216187E0,-8.518785095E-1,8.747124180E0
1.211869850E1,6.865173798E0,-5.022206268E0,-7.150630188E-1,8.536069482E0
1.212863850E1,6.452032928E0,-5.186414795E0,-5.935157776E-1,8.299390840E0
1.213857750E1,6.021228790E0,-5.601052551E0,-5.867797852E-1,8.244470653E0
1.214851750E1,5.411846008E0,-6.117029572E0,-5.245092773E-1,8.184206619E0
1.215845650E1,4.788392487E0,-6.587501221E0,-4.617897034E-1,8.157029157E0
1.216839650E1,4.237837372E0,-7.019353180E0,-4.499642944E-1,8.211763058E0
1.217833550E1,3.772754517E0,-7.346123657E0,-4.387376404E-1,8.269927457E0
1.218827550E1,3.457959137E0,-7.433691559E0,-3.950285339E-1,8.208123971E0
1.219821450E1,3.329825592E0,-7.294780426E0,-3.692820740E-1,8.027323912E0
1.220815450E1,3.480562134E0,-7.083569641E0,-4.983137512E-1,7.908197533E0
1.221809350E1,3.942800903E0,-6.941215668E0,-7.702981567E-1,8.019944710E0
1.222803350E1,4.606670380E0,-6.884633331E0,-1.117276611E0,8.358701760E0
1.223797350E1,5.292244720E0,-6.962172089E0,-1.579665070E0,8.886789978E0
1.224791250E1,5.836213531E0,-7.148534546E0,-2.046993256E0,9.452677712E0
1.225785250E1,6.267017670E0,-7.316185913E0,-2.424358521E0,9.933760669E0
1.226779150E1,6.605912933E0,-7.356601868E0,-2.575544128E0,1.021719650E1
1.227773150E1,6.886878662E0,-7.214098206E0,-2.654579773E0,1.032080929E1
1.228767050E1,7.121740265E0,-6.968159637E0,-2.607427826E0,1.029918021E1
1.229761050E1,7.347021790E0,-6.675667877E0,-2.400108948E0,1.021292288E1
1.230754950E1,7.598947906E0,-6.257886658E0,-2.077529755E0,1.006087892E1
1.231748950E1,7.912695465E0,-5.766608276E0,-1.822160797E0,9.959156114E0
1.232742850E1,8.333470459E0,-5.464835815E0,-1.755100250E0,1.011887036E1
1.233736850E1,8.715027008E0,-5.360502777E0,-1.781744843E0,1.038562952E1
1.234730750E1,9.085207214E0,-5.279670868E0,-1.902244263E0,1.067869130E1
1.235724750E1,9.440717926E0,-5.219795380E0,-2.096091156E0,1.098940476E1
1.236718650E1,9.650880890E0,-5.158273315E0,-2.318827972E0,1.118589508E1
1.237712650E1,9.777816925E0,-5.108726349E0,-2.699636078E0,1.135750077E1
1.238706571E1,9.701026611E0,-5.041216736E0,-3.047961731E0,1.134961912E1
1.239700571E1,9.607321472E0,-5.084925842E0,-3.347788239E0,1.137386402E1
1.240694471E1,9.584269409E0,-5.311704254E0,-3.540737000E0,1.151560857E1
1.241688471E1,9.610464935E0,-5.604794769E0,-3.599414978E0,1.169318386E1
1.242682471E1,9.536219330E0,-5.759872284E0,-3.532653809E0,1.168739709E1
1.243676371E1,9.319769440E0,-5.633984070E0,-3.365900574E0,1.139864753E1
1.244670371E1,9.119785309E0,-5.237308960E0,-3.248544617E0,1.100694923E1
1.245664271E1,8.909622345E0,-4.649930420E0,-3.237767029E0,1.055871008E1
1.246658271E1,8.678652649E0,-4.014651489E0,-3.342549133E0,1.012961367E1
1.247652171E1,8.410111084E0,-3.438050537E0,-3.553759918E0,9.755991467E0
1.248646171E1,8.214467926E0,-3.068319397E0,-3.767216034E0,9.543792950E0
1.249640071E1,8.105494537E0,-2.843636627E0,-3.941154327E0,9.450820514E0
1.250634071E1,8.159681854E0,-2.723735962E0,-4.034560089E0,9.501411509E0
1.251627971E1,8.346792755E0,-2.716850281E0,-4.012256470E0,9.651343260E0
1.252621971E1,8.568930817E0,-2.759361877E0,-3.840114441E0,9.787090080E0
1.253615871E1,8.732989655E0,-2.830464020E0,-3.574866028E0,9.851715688E0
1.254609871E1,8.812624054E0,-2.921025696E0,-3.252436523E0,9.837330795E0
1.255603771E1,8.933273163E0,-3.018622742E0,-2.960393829E0,9.883288131E0
1.256597771E1,9.086404724E0,-3.079396362E0,-2.759511566E0,9.983002397E0
1.257591671E1,9.288185120E0,-3.116070099E0,-2.637664948E0,1.014581451E1
1.258585671E1,9.638606415E0,-3.152743835E0,-2.534379730E0,1.045301908E1
1.259579571E1,1.001133133E1,-3.172203369E0,-2.421813812E0,1.077751415E1
1.260573571E1,1.028615982E1,-3.162922668E0,-2.259700928E0,1.099615442E1
1.261567471E1,1.059436890E1,-3.164868622E0,-2.147883453E0,1.126367831E1
1.262561471E1,1.087997498E1,-3.063978424E0,-2.049537964E0,1.148748994E1
1.263555371E1,1.106289459E1,-2.790197754E0,-1.992955627E0,1.158208584E1
1.264549371E1,1.121782242E1,-2.482437744E0,-2.007924500E0,1.166335277E1
1.265543371E1,1.140089172E1,-2.128423920E0,-2.213746490E0,1.180725175E1
1.266537271E1,1.148501678E1,-1.824106750E0,-2.518812103E0,1.189862977E1
1.267531271E1,1.165281784E1,-1.718875580E0,-2.862647095E0,1.212177567E1
1.268525171E1,1.191746750E1,-1.798809357E0,-3.165317688E0,1.246117903E1
1.269519171E1,1.223974731E1,-2.046244812E0,-3.369193726E0,1.285884904E1
1.270513071E1,1.255618927E1,-2.422562256E0,-3.466940460E0,1.324939142E1
1.271507071E1,1.280931290E1,-2.861299896E0,-3.467838593E0,1.357539828E1
1.272500971E1,1.298145493E1,-3.172951813E0,-3.425476685E0,1.379564010E1
1.273494971E1,1.311348038E1,-3.329526215E0,-3.362607422E0,1.394117072E1
1.274488871E1,1.329610062E1,-3.358266449E0,-3.399131470E0,1.412863546E1
1.275482871E1,1.356299561E1,-3.290307770E0,-3.301085358E0,1.434148317E1
1.276476771E1,1.394754593E1,-3.332669678E0,-3.324586487E0,1.472051629E1
1.277470771E1,1.435305267E1,-3.533402252E0,-3.523672485E0,1.519576653E1
1.278464671E1,1.473550735E1,-3.815715179E0,-3.691623230E0,1.566278843E1
1.279458671E1,1.494552063E1,-4.019291840E0,-3.932023315E0,1.596822160E1
1.280452571E1,1.488489670E1,-3.934867401E0,-3.993246002E0,1.590563877E1
1.281446571E1,1.459584778E1,-3.652853851E0,-3.986959076E0,1.556528048E1
1.282440471E1,1.420022049E1,-3.181933136E0,-3.876189423E0,1.505974120E1
1.283434471E1,1.366044296E1,-2.507435760E0,-3.596570892E0,1.434678564E1
1.284428371E1,1.310015808E1,-1.774110718E0,-3.287613373E0,1.362240846E1
1.285422371E1,1.267234772E1,-1.165925446E0,-3.126248932E0,1.310424401E1
1.286416271E1,1.228674957E1,-8.937913513E-1,-3.018772430E0,1.268369288E1
1.287410271E1,1.198767151E1,-9.951306152E-1,-2.948718109E0,1.238505114E1
1.288404171E1,1.169892197E1,-1.498683472E0,-2.955903168E0,1.215928414E1
1.289398171E1,1.145283371E1,-2.244732056E0,-3.042872314E0,1.206089938E1
1.290392171E1,1.126198059E1,-3.012934570E0,-3.143612823E0,1.207444753E1
1.291386071E1,1.103011276E1,-3.729195099E0,-3.175047455E0,1.206860431E1
1.292380071E1,1.081456100E1,-4.434528351E0,-3.163222046E0,1.210891181E1
1.293373971E1,1.056413177E1,-5.030888214E0,-3.159629517E0,1.211998247E1
1.294367971E1,1.023915756E1,-5.451064453E0,-3.131937103E0,1.201513551E1
1.295361871E1,9.574689331E0,-6.071374512E0,-3.516637115E0,1.187025698E1
1.296355871E1,9.246421967E0,-6.051465912E0,-2.553988953E0,1.134193187E1
1.297349771E1,9.217981110E0,-5.470673676E0,-2.910846863E0,1.110731631E1
1.298343771E1,9.561067657E0,-5.407654724E0,-3.276536407E0,1.146265393E1
1.299337671E1,9.719438324E0,-4.984035645E0,-2.854713593E0,1.128970692E1
1.300331671E1,9.785900116E0,-4.374952240E0,-2.496508484E0,1.100620747E1
1.301325571E1,9.795330505E0,-4.271217957E0,-2.441123657E0,1.096133602E1
1.302319571E1,9.672885132E0,-4.339925079E0,-2.210902405E0,1.082994672E1
1.303313471E1,9.642198944E0,-4.241280212E0,-1.954036560E0,1.071348296E1
1.304307471E1,9.640252991E0,-4.345762939E0,-1.683848419E0,1.070772986E1
1.305301371E1,9.552086334E0,-4.531526642E0,-1.480571136E0,1.067563478E1
1.306295371E1,9.306297455E0,-4.669539642E0,-1.290167084E0,1.049172550E1
1.307289271E1,8.953032074E0,-4.770729218E0,-1.136436768E0,1.020823830E1
1.308283271E1,8.611292725E0,-4.798721008E0,-1.067879333E0,9.915767846E0
1.309277171E1,8.322393494E0,-4.780309296E0,-1.053359528E0,9.655213966E0
1.310271171E1,8.147407379E0,-4.774770813E0,-1.066083069E0,9.503431824E0
1.311265071E1,8.076903992E0,-4.777914276E0,-1.069226532E0,9.445003351E0
1.312259071E1,7.994425507E0,-4.854105835E0,-1.118923187E0,9.419404001E0
1.313252971E1,7.863597565E0,-5.001549225E0,-1.217867432E0,9.398662798E0
1.314246971E1,7.655230865E0,-5.153782654E0,-1.326391754E0,9.323269294E0
1.315240971E1,7.386838989E0,-5.283562775E0,-1.401086426E0,9.189367172E0
1.316234871E1,7.065157928E0,-5.404361572E0,-1.481020203E0,9.017593992E0
1.317228871E1,6.678212585E0,-5.511987762E0,-1.551673279E0,8.797057599E0
1.318222771E1,6.297703857E0,-5.602250061E0,-1.564995575E0,8.572951112E0
1.319216771E1,5.978866882E0,-5.729036407E0,-1.606609039E0,8.435040009E0
1.320210671E1,5.759872284E0,-5.846841431E0,-1.611997833E0,8.364222645E0
1.321204671E1,5.660778351E0,-5.962251434E0,-1.639091492E0,8.383285431E0
1.322198571E1,5.616470490E0,-6.079308014E0,-1.679956512E0,8.445411806E0
1.323192571E1,5.673202515E0,-6.133046265E0,-1.734592896E0,8.532777729E0
1.324186471E1,5.881120148E0,-6.153703308E0,-1.890119476E0,8.719414558E0
1.325180471E1,6.126759338E0,-6.137836304E0,-2.120939484E0,8.927967225E0
1.326174371E1,6.282884674E0,-5.973328400E0,-2.302960968E0,8.969889699E0
1.327168371E1,6.484515381E0,-5.836812286E0,-2.465822296E0,9.066289042E0
1.328162271E1,6.698121185E0,-5.902675323E0,-2.574496307E0,9.291632506E0
1.329156271E1,6.796915741E0,-5.996979218E0,-2.588567047E0,9.426690972E0
1.330150171E1,6.787784729E0,-6.120622101E0,-2.565814362E0,9.493125922E0
1.331144171E1,6.858737183E0,-6.464457092E0,-2.588417358E0,9.774015841E0
1.332138071E1,7.063960419E0,-7.017257538E0,-2.665207672E0,1.030751047E1
1.333132071E1,7.317832489E0,-7.520660706E0,-2.683469696E0,1.083106732E1
1.334125971E1,7.394173737E0,-7.843539276E0,-2.577190704E0,1.108317759E1
1.335119971E1,7.319329376E0,-7.907007294E0,-2.295476532E0,1.101646764E1
1.336113871E1,7.301815796E0,-7.691754913E0,-1.858235779E0,1.076720241E1
1.337107871E1,7.456743622E0,-7.203769684E0,-1.377585297E0,1.045920955E1
1.338101808E1,7.711214447E0,-6.580765228E0,-1.048419800E0,1.019158885E1
1.339095708E1,7.926017761E0,-6.052064667E0,-8.919950867E-1,1.001223749E1
1.340089608E1,8.261919250E0,-5.701044617E0,-8.502319336E-1,1.007393239E1
1.341083608E1,8.704997864E0,-5.523064728E0,-8.518785095E-1,1.034441534E1
1.342077608E1,9.129066010E0,-5.525010681E0,-9.015751648E-1,1.070880138E1
1.343071508E1,9.452543335E0,-5.693859558E0,-1.034498749E0,1.108335688E1
1.344065508E1,9.607920227E0,-5.954916687E0,-1.177002411E0,1.136479206E1
1.345059408E1,9.495503998E0,-6.256988525E0,-1.344055023E0,1.145080720E1
1.346053408E1,9.183403015E0,-6.566245422E0,-1.583407288E0,1.139989686E1
1.347047308E1,8.863368530E0,-6.700067139E0,-1.829495544E0,1.126042874E1
1.348041308E1,8.523575134E0,-6.514303436E0,-1.946402435E0,1.090302549E1
1.349035208E1,8.187224579E0,-6.136489105E0,-2.058519287E0,1.043669711E1
1.350029208E1,8.111332397E0,-5.588927765E0,-2.211650848E0,1.009560431E1
1.351023108E1,8.054001617E0,-4.943919067E0,-2.361938324E0,9.741048734E0
1.352017108E1,7.905809784E0,-4.299060059E0,-2.574346619E0,9.360075119E0
1.353011008E1,7.746990051E0,-3.692671051E0,-2.753374329E0,9.012920977E0
1.354005008E1,7.566016388E0,-3.143612823E0,-2.899320831E0,8.690970420E0
1.354998908E1,7.338339844E0,-2.702629852E0,-2.929707642E0,8.350965612E0
1.355992908E1,7.124734039E0,-2.417622528E0,-2.873724060E0,8.053882529E0
1.356986808E1,6.957082672E0,-2.267933807E0,-2.722688141E0,7.807531862E0
1.357980808E1,6.837481384E0,-2.271077271E0,-2.493664398E0,7.624126558E0
1.358974708E1,6.752158813E0,-2.390678558E0,-2.213297424E0,7.497044624E0
1.359968708E1,6.714736633E0,-2.605332184E0,-1.879042511E0,7.443537103E0
1.360962608E1,6.751560059E0,-2.869532776E0,-1.535357208E0,7.495005226E0
1.361956608E1,6.867119751E0,-3.162024536E0,-1.232237549E0,7.659904844E0
1.362950508E1,7.123536530E0,-3.399879913E0,-1.077609100E0,7.966504722E0
1.363944508E1,7.598648529E0,-3.352727966E0,-1.511257324E0,8.441809225E0
1.364938408E1,8.024962006E0,-3.548071747E0,-1.271306305E0,8.865948795E0
1.365932408E1,8.301137695E0,-3.935166779E0,-1.507814484E0,9.309561167E0
1.366926408E1,8.890611877E0,-3.617976379E0,-2.174827423E0,9.841880255E0
1.367920308E1,9.318721619E0,-3.239862671E0,-2.789299622E0,1.025258383E1
1.368914308E1,9.809700623E0,-3.008593597E0,-3.445984039E0,1.082389337E1
1.369908208E1,1.008946884E1,-2.693798218E0,-4.002227325E0,1.118354836E1
1.370902208E1,1.029933243E1,-2.328258362E0,-4.378544769E0,1.143104062E1
1.371896108E1,1.045261368E1,-2.054627380E0,-4.490960999E0,1.156059501E1
1.372890108E1,1.084674408E1,-1.928140411E0,-4.351151733E0,1.184491891E1
1.373884008E1,1.131362320E1,-1.934726715E0,-4.072730713E0,1.217901362E1
1.374878008E1,1.184636536E1,-2.058818665E0,-3.701802063E0,1.258087616E1
1.375871908E1,1.251143234E1,-2.340981903E0,-3.389102325E0,1.317202149E1
1.376865908E1,1.309461960E1,-2.665656738E0,-3.022664337E0,1.370077691E1
1.377859808E1,1.361478790E1,-3.016227722E0,-2.861898651E0,1.423553804E1
1.378853808E1,1.399858978E1,-3.384611664E0,-2.785856781E0,1.466891646E1
1.379847708E1,1.431024170E1,-3.619173889E0,-2.694696350E0,1.500476010E1
1.380841708E1,1.445409256E1,-3.672612762E0,-2.629432068E0,1.514340745E1
1.381835608E1,1.458028015E1,-3.590733032E0,-2.679877167E0,1.525318572E1
1.382829608E1,1.480152008E1,-3.641178131E0,-2.952909393E0,1.552619879E1
1.383823508E1,1.521600815E1,-3.971541138E0,-3.341201935E0,1.607680545E1
1.384817508E1,1.569216797E1,-4.445156250E0,-3.611689453E0,1.670472539E1
1.385811408E1,1.596894241E1,-4.832700348E0,-3.751199341E0,1.710069036E1
1.386805408E1,1.567121155E1,-4.838538208E0,-3.560645599E0,1.678322140E1
1.387799308E1,1.484208572E1,-4.406087494E0,-3.087030487E0,1.578704763E1
1.388793308E1,1.386955811E1,-3.735182648E0,-2.623145142E0,1.460127124E1
1.389787208E1,1.305240738E1,-3.030897217E0,-2.187550964E0,1.357707831E1
1.390781208E1,1.243045074E1,-2.434537354E0,-1.820065155E0,1.279670719E1
1.391775108E1,1.186223236E1,-1.978585510E0,-1.577270050E0,1.212910294E1
1.392769108E1,1.149609375E1,-1.695823517E0,-1.498084717E0,1.171666534E1
1.393763008E1,1.136766083E1,-1.818867645E0,-1.515298920E0,1.161155128E1
1.394757008E1,1.133727402E1,-2.356699219E0,-1.714235229E0,1.170582828E1
1.395750908E1,1.134056717E1,-3.047812042E0,-2.055974579E0,1.192160448E1
1.396744908E1,1.122231308E1,-3.709585876E0,-2.348616028E0,1.205061556E1
1.397738908E1,1.104553070E1,-4.284989319E0,-2.523302765E0,1.211329595E1
1.398732808E1,1.084000809E1,-4.791535950E0,-2.682272186E0,1.215150921E1
1.399726808E1,1.035456757E1,-5.314099274E0,-2.912044373E0,1.199736317E1
1.400720708E1,9.703870697E0,-6.365812225E0,-2.833158417E0,1.194635754E1
1.401714708E1,9.182804260E0,-6.043382721E0,-2.743494873E0,1.133018680E1
1.402708608E1,8.812923431E0,-5.625451813E0,-2.877615967E0,1.084407678E1
1.403702608E1,8.869805145E0,-5.765710144E0,-2.866389313E0,1.096052209E1
1.404696508E1,9.105115814E0,-5.249733124E0,-2.283501434E0,1.075533406E1
1.405690508E1,9.471853180E0,-4.472100220E0,-2.243534546E0,1.071210205E1
1.406684408E1,9.735155640E0,-3.952830048E0,-1.610051880E0,1.062969368E1
1.407678408E1,9.898915100E0,-3.919898529E0,-1.459165649E0,1.074631514E1
1.408672308E1,9.755064240E0,-3.920347595E0,-1.228794708E0,1.058491096E1
1.409666308E1,9.545649719E0,-3.550466766E0,-7.921527100E-1,1.021531932E1
1.410660208E1,9.361382904E0,-3.468736725E0,-6.439608765E-1,1.000411465E1
1.411654208E1,9.238638153E0,-3.666475525E0,-6.581813049E-1,9.961359361E0
1.412648108E1,8.957822113E0,-3.816164246E0,-7.385641479E-1,9.764792039E0
1.413642108E1,8.657396851E0,-3.929927673E0,-8.717871094E-1,9.547505670E0
1.414636008E1,8.510252838E0,-4.216731262E0,-1.145717468E0,9.566498546E0
1.415630008E1,8.467890930E0,-4.572990417E0,-1.301543427E0,9.711407388E0
1.416623908E1,8.372838593E0,-4.822371826E0,-1.320853271E0,9.752145892E0
1.417617908E1,8.162675629E0,-5.045408020E0,-1.361718292E0,9.692249079E0
1.418611808E1,7.892038422E0,-5.277275848E0,-1.364263000E0,9.591408883E0
1.419605808E1,7.566465454E0,-5.508245544E0,-1.341360626E0,9.454703421E0
1.420599708E1,7.207811279E0,-5.671855316E0,-1.306333466E0,9.264393844E0
1.421593708E1,6.785539398E0,-5.785319366E0,-1.279988251E0,9.008431330E0
1.422587608E1,6.414910126E0,-5.898933105E0,-1.228495331E0,8.801004743E0
1.423581608E1,5.979914703E0,-5.929319916E0,-1.186582489E0,8.504363146E0
1.424575508E1,5.651048584E0,-5.908363495E0,-1.223256226E0,8.266768721E0
1.425569508E1,5.503605194E0,-5.908662872E0,-1.307231598E0,8.179903515E0
1.426563508E1,5.457650757E0,-5.959557037E0,-1.338516541E0,8.191086521E0
1.427557408E1,5.489235077E0,-6.089187469E0,-1.423839111E0,8.320890793E0
1.428551308E1,5.592969360E0,-6.298003235E0,-1.550775146E0,8.564523020E0
1.429545308E1,5.751639404E0,-6.589447174E0,-1.642684021E0,8.899470810E0
1.430539308E1,5.874234467E0,-6.921905823E0,-1.704206085E0,9.237084452E0
1.431533208E1,5.912255402E0,-7.201674042E0,-1.706750793E0,9.472690811E0
1.432527208E1,5.818400574E0,-7.383695526E0,-1.604064331E0,9.536549021E0
1.433521108E1,5.692961426E0,-7.446714478E0,-1.445843353E0,9.484399259E0
1.434515108E1,5.685027924E0,-7.454498291E0,-1.311572571E0,9.466219408E0
1.435509008E1,5.891748047E0,-7.508685608E0,-1.304986267E0,9.633070319E0
1.436503008E1,6.380182343E0,-7.770940247E0,-1.541793823E0,1.017208765E1
1.437496908E1,7.012018433E0,-8.264014893E0,-1.888323212E0,1.100127762E1
1.438490971E1,7.471263428E0,-8.732091522E0,-2.176024933E0,1.169633635E1
1.439484871E1,7.600893860E0,-8.870403900E0,-2.168839874E0,1.188114133E1
1.440478871E1,7.610174561E0,-8.572822723E0,-1.845362549E0,1.161091767E1
1.441472771E1,7.659721527E0,-7.829169159E0,-1.335073700E0,1.103402218E1
1.442466771E1,7.703730011E0,-6.753955078E0,-7.915539551E-1,1.027569574E1
1.443460671E1,7.760462036E0,-5.678441620E0,-4.020639038E-1,9.624506513E0
1.444454671E1,8.029003601E0,-4.769681396E0,-3.198847961E-1,9.344361173E0
1.445448571E1,8.661737823E0,-4.113745422E0,-5.110372925E-1,9.602591454E0
1.446442571E1,9.540410614E0,-3.718866577E0,-9.364526367E-1,1.028233178E1
1.447436471E1,1.039184006E1,-3.534599762E0,-1.519340515E0,1.108116108E1
1.448430471E1,1.095496902E1,-3.513942719E0,-2.104773102E0,1.169569192E1
1.449424371E1,1.132484985E1,-3.810476074E0,-2.663261719E0,1.224193265E1
1.450418371E1,1.147648453E1,-4.444557495E0,-3.314856720E0,1.274566842E1
1.451412271E1,1.101035385E1,-5.079986115E0,-3.679498444E0,1.267173467E1
1.452406271E1,1.034378998E1,-5.374723206E0,-3.710633698E0,1.223316979E1
1.453400171E1,9.553583221E0,-5.402565308E0,-3.606001282E0,1.155257155E1
1.454394171E1,8.905730438E0,-5.153333588E0,-3.397784271E0,1.083576576E1
1.455388071E1,8.527916107E0,-4.751718750E0,-3.164718933E0,1.026253527E1
1.456382071E1,8.335566101E0,-4.320914612E0,-2.881358185E0,9.821109423E0
1.457375971E1,8.176596680E0,-3.835923157E0,-2.529140625E0,9.379104010E0
1.458369971E1,8.079299011E0,-3.349584503E0,-2.219135284E0,9.023267161E0
1.459363871E1,8.076155548E0,-2.908002777E0,-1.918410645E0,8.795514083E0
1.460357871E1,8.147557068E0,-2.607577515E0,-1.704505463E0,8.722814084E0
1.461351871E1,8.031398621E0,-2.409239960E0,-1.486858063E0,8.515782283E0
1.462345771E1,7.816445618E0,-2.313738556E0,-1.383423157E0,8.268256638E0
1.463339771E1,7.596852264E0,-2.288890228E0,-1.368903351E0,8.051402312E0
1.464333671E1,7.455097046E0,-2.265987854E0,-1.419049072E0,7.920029873E0
1.465327671E1,7.542365570E0,-2.123783569E0,-1.718875580E0,8.021986556E0
1.466321571E1,7.711813202E0,-2.029479675E0,-2.085313568E0,8.242535004E0
1.467315571E1,8.065827026E0,-1.373843079E0,-3.139271851E0,8.763563098E0
1.468309471E1,8.499924316E0,-1.078956299E0,-4.168531494E0,9.528353210E0
1.469303471E1,7.871082001E0,-2.312391357E0,-2.279609528E0,8.514558430E0
1.470297371E1,7.437882843E0,-3.266507263E0,-1.308728485E0,8.228301230E0
1.471291371E1,7.501350861E0,-3.108885040E0,-1.122066650E0,8.197222975E0
1.472285271E1,7.866142273E0,-2.799478455E0,-8.830137634E-1,8.396010194E0
1.473279271E1,8.214318237E0,-2.693947906E0,-1.288221130E0,8.740245598E0
1.474273171E1,8.366551666E0,-2.583926697E0,-1.538500671E0,8.890604494E0
1.475267171E1,8.586893463E0,-2.534080353E0,-2.078278198E0,9.191057766E0
1.476261071E1,8.819060669E0,-2.460732880E0,-2.644850006E0,9.530281682E0
1.477255071E1,9.168434143E0,-2.268981628E0,-3.010988617E0,9.913350328E0
1.478248971E1,9.638905792E0,-2.055525513E0,-3.309467926E0,1.039645459E1
1.479242971E1,1.018766464E1,-1.978884888E0,-3.555855560E0,1.097035118E1
1.480236871E1,1.091365494E1,-2.067201233E0,-3.768712921E0,1.172963691E1
1.481230871E1,1.171119644E1,-2.208208008E0,-3.924987946E0,1.254726405E1
1.482224771E1,1.245455063E1,-2.546354828E0,-4.149071960E0,1.337215586E1
1.483218771E1,1.304237823E1,-2.937491455E0,-4.348607025E0,1.405855146E1
1.484212671E1,1.350626358E1,-3.179687805E0,-4.306245117E0,1.452836252E1
1.485206671E1,1.368918320E1,-3.252286835E0,-4.186494141E0,1.467984467E1
1.486200571E1,1.386416931E1,-3.062331848E0,-4.085005188E0,1.477431333E1
1.487194571E1,1.421249496E1,-2.719394989E0,-3.994293823E0,1.501147912E1
1.488188471E1,1.473984833E1,-2.500550079E0,-4.070784760E0,1.549474646E1
1.489182471E1,1.538350983E1,-2.601889343E0,-4.300407257E0,1.618380998E1
1.490176371E1,1.602717133E1,-2.920127563E0,-4.480333099E0,1.689587969E1
1.491170371E1,1.644180908E1,-3.096460876E0,-4.478686523E0,1.731992462E1
1.492164271E1,1.630050293E1,-3.024310913E0,-4.237088928E0,1.711156845E1
1.493158271E1,1.566687057E1,-2.765050049E0,-3.876488800E0,1.637447712E1
1.494152171E1,1.481154922E1,-2.453098755E0,-3.500470734E0,1.541599751E1
1.495146171E1,1.392434418E1,-2.205064545E0,-3.091670837E0,1.443288256E1
1.496140071E1,1.299777100E1,-1.954785004E0,-2.642904053E0,1.340701970E1
1.497134071E1,1.218975128E1,-1.784588928E0,-2.336042175E0,1.253921397E1
1.498127971E1,1.155806488E1,-1.810784454E0,-2.257754974E0,1.191491761E1
1.499121971E1,1.116453323E1,-2.101929016E0,-2.248324585E0,1.158101340E1
1.500115871E1,1.105106918E1,-2.641257477E0,-2.346071320E0,1.160200077E1
1.501109871E1,1.098236206E1,-3.339405670E0,-2.446662140E0,1.173669725E1
1.502103771E1,1.083881058E1,-4.023782501E0,-2.511926422E0,1.183133191E1
1.503097771E1,1.045680496E1,-4.745880890E0,-2.903362427E0,1.184473169E1
1.504091771E1,1.011222153E1,-5.177583160E0,-2.284998322E0,1.158816676E1
1.505085671E1,9.918075256E0,-5.068011017E0,-2.262395325E0,1.136535899E1
1.506079671E1,9.782906342E0,-5.415588226E0,-2.589165802E0,1.147770151E1
1.507073571E1,9.548643494E0,-5.476960602E0,-2.448608093E0,1.127693982E1
1.508067571E1,9.350305939E0,-5.368286591E0,-2.377955017E0,1.104089635E1
1.509061471E1,9.167236633E0,-5.124293976E0,-2.059417419E0,1.070223418E1
1.510055471E1,9.232800293E0,-4.871769104E0,-1.873054962E0,1.060599219E1
1.511049371E1,9.229058075E0,-4.513713684E0,-1.531614990E0,1.038725029E1
1.512043371E1,9.060658264E0,-4.098477173E0,-1.223106537E0,1.001943276E1
1.513037271E1,8.818162537E0,-3.783083038E0,-1.084195404E0,9.656458330E0
1.514031271E1,8.719367981E0,-3.563339996E0,-9.512718201E-1,9.467295706E0
1.515025171E1,8.664731598E0,-3.433110809E0,-8.286767578E-1,9.356843948E0
1.516019171E1,8.615633698E0,-3.359763336E0,-7.081773376E-1,9.274624997E0
1.517013071E1,8.555009766E0,-3.332070923E0,-6.286926270E-1,9.202507438E0
1.518007071E1,8.493787079E0,-3.408561859E0,-6.245013428E-1,9.173478883E0
1.519000971E1,8.338410187E0,-3.589236145E0,-7.120692444E-1,9.105972938E0
1.519994971E1,8.045469360E0,-3.855382690E0,-9.300160217E-1,8.969865256E0
1.520988871E1,7.776029663E0,-4.125570831E0,-1.211430817E0,8.885636535E0
1.521982871E1,7.553143158E0,-4.320315857E0,-1.447938995E0,8.821089955E0
1.522976771E1,7.300767975E0,-4.480183411E0,-1.596729584E0,8.713369141E0
1.523970771E1,7.081174622E0,-4.645140381E0,-1.690734100E0,8.635910200E0
1.524964671E1,6.825356598E0,-4.784201202E0,-1.762734375E0,8.519466316E0
1.525958671E1,6.499035187E0,-4.878505096E0,-1.823358307E0,8.328379545E0
1.526952571E1,6.212381287E0,-4.957241364E0,-1.870061188E0,8.164866933E0
1.527946571E1,5.973777466E0,-5.004842377E0,-1.868414612E0,8.014077463E0
1.528940471E1,5.723647614E0,-5.048252106E0,-1.839075623E0,7.850298751E0
1.529934471E1,5.521567841E0,-5.068609772E0,-1.801354065E0,7.708657010E0
1.530928371E1,5.380112000E0,-5.150788879E0,-1.827100525E0,7.669063015E0
1.531922371E1,5.365292816E0,-5.280119934E0,-1.819466400E0,7.744449077E0
1.532916271E1,5.462590485E0,-5.489684143E0,-1.806742859E0,7.952411367E0
1.533910271E1,5.592370605E0,-5.764812012E0,-1.789678345E0,8.228646006E0
1.534904171E1,5.746100922E0,-6.062243500E0,-1.773961029E0,8.539052042E0
1.535898171E1,5.879623260E0,-6.345454559E0,-1.707050171E0,8.817527065E0
1.536892071E1,5.989345093E0,-6.568041687E0,-1.554966431E0,9.023821078E0
1.537886071E1,6.105653229E0,-6.743177490E0,-1.384770355E0,9.201469065E0
1.538879921E1,6.242169342E0,-6.924300842E0,-1.217867432E0,9.401798835E0
1.539873921E1,6.389313354E0,-6.988816681E0,-1.028960266E0,9.525000943E0
1.540867821E1,6.591692505E0,-6.907685394E0,-9.029223633E-1,9.590714070E0
1.541861821E1,7.114106140E0,-6.889273682E0,-1.019230499E0,9.955472306E0
1.542855721E1,7.836204529E0,-7.131170654E0,-1.431622925E0,1.069154996E1
1.543849721E1,8.399632874E0,-7.501201172E0,-1.961071930E0,1.143099534E1
1.544843621E1,8.732989655E0,-7.811505890E0,-2.421364746E0,1.196443646E1
1.545837621E1,8.905131683E0,-8.016130371E0,-2.701881409E0,1.228250298E1
1.546831521E1,8.958420868E0,-7.882308655E0,-2.780767365E0,1.225221455E1
1.547825521E1,8.995543671E0,-7.422614594E0,-2.662513275E0,1.196260800E1
1.548819421E1,9.035809937E0,-6.702611847E0,-2.462080078E0,1.151662733E1
1.549813421E1,9.002878418E0,-5.635780334E0,-2.361938324E0,1.088083602E1
1.550807321E1,8.990753632E0,-4.436025238E0,-2.493365021E0,1.033096510E1
1.551801321E1,9.124126282E0,-3.403622131E0,-2.875220947E0,1.015387707E1
1.552795321E1,9.539811859E0,-2.743045807E0,-3.418141937E0,1.049838106E1
1.553789221E1,1.002899460E1,-2.447859650E0,-3.821553040E0,1.100804329E1
1.554783221E1,1.064496368E1,-2.582579498E0,-4.140240326E0,1.171010498E1
1.555777121E1,1.104927292E1,-3.094065857E0,-4.309238892E0,1.225680282E1
1.556771121E1,1.112426697E1,-3.850742340E0,-4.283941498E0,1.252715797E1
1.557765021E1,1.084734283E1,-4.583468628E0,-3.967948608E0,1.242648975E1
1.558759021E1,1.043105850E1,-5.061574402E0,-3.599564667E0,1.214015579E1
1.559752921E1,9.912087708E0,-5.391188965E0,-3.272345123E0,1.174830387E1
1.560746921E1,9.436077576E0,-5.519921265E0,-2.890489197E0,1.130769732E1
1.561740821E1,8.994346161E0,-5.363047485E0,-2.459685059E0,1.075688578E1
1.562734821E1,8.638087006E0,-5.010680237E0,-2.124382324E0,1.020962604E1
1.563728721E1,8.499924316E0,-4.422403564E0,-1.830393677E0,9.754829967E0
1.564722721E1,8.459508362E0,-3.649261322E0,-1.578766937E0,9.347346948E0
1.565716621E1,8.279283142E0,-2.956950989E0,-1.458117828E0,8.911576521E0
1.566710621E1,8.165370026E0,-2.396815796E0,-1.433269501E0,8.629730881E0
1.567704521E1,8.068371735E0,-1.950294342E0,-1.474284210E0,8.430645551E0
1.568698521E1,7.895930328E0,-1.650018768E0,-1.544188843E0,8.212965169E0
1.569692421E1,7.732470245E0,-1.507215729E0,-1.653910675E0,8.049733901E0
1.570686421E1,7.564818878E0,-1.493893433E0,-1.788780212E0,7.915676654E0
1.571680321E1,7.359445953E0,-1.577868805E0,-1.973795471E0,7.781194206E0
1.572674321E1,7.118147736E0,-1.705852661E0,-2.159259796E0,7.631537417E0
1.573668221E1,6.981032867E0,-1.891167297E0,-2.296224976E0,7.588411084E0
1.574662221E1,6.948400726E0,-2.102078705E0,-2.466121674E0,7.666861395E0
1.575656121E1,6.981332245E0,-2.303859100E0,-2.652484131E0,7.815525493E0
1.576650121E1,7.105274506E0,-2.460583191E0,-2.806214447E0,8.025847928E0
1.577644021E1,7.351512451E0,-2.541115723E0,-2.890938263E0,8.298164163E0
1.578638021E1,7.650291138E0,-2.567311249E0,-2.936443634E0,8.587243024E0
1.579631921E1,7.972421265E0,-2.563718719E0,-2.934946747E0,8.873898067E0
1.580625921E1,8.253087616E0,-2.541864166E0,-2.886297913E0,9.105231698E0
1.581619821E1,8.581654358E0,-2.476899261E0,-2.820883942E0,9.366814169E0
1.582613821E1,8.946745148E0,-2.359094238E0,-2.776276703E0,9.660087303E0
1.583607721E1,9.266779633E0,-2.215842133E0,-2.697690125E0,9.902559928E0
1.584601721E1,9.616153107E0,-2.103725281E0,-2.658621368E0,1.019628992E1
1.585595621E1,1.002121078E1,-2.030377808E0,-2.693349152E0,1.057361004E1
1.586589621E1,1.050889664E1,-2.021396484E0,-2.838547211E0,1.107159892E1
1.587583521E1,1.110226273E1,-2.126178589E0,-3.052153015E0,1.170882193E1
1.588577521E1,1.172781189E1,-2.270478516E0,-3.219505005E0,1.237181704E1
1.589571421E1,1.237506592E1,-2.451003113E0,-3.353775787E0,1.305363876E1
1.590565421E1,1.306827438E1,-2.713407440E0,-3.514541473E0,1.380197004E1
1.591559321E1,1.367825592E1,-2.908002777E0,-3.591780853E0,1.443786878E1
1.592553321E1,1.416294800E1,-2.891537018E0,-3.670068054E0,1.491373467E1
1.593547221E1,1.439197174E1,-2.646047516E0,-3.692970428E0,1.509199949E1
1.594541221E1,1.460138626E1,-2.358345795E0,-3.730392609E0,1.525378985E1
1.595535121E1,1.501303024E1,-2.280507660E0,-3.940854950E0,1.568828002E1
1.596529121E1,1.557136917E1,-2.558928680E0,-4.205803986E0,1.633108818E1
1.597523021E1,1.614153351E1,-3.081192627E0,-4.437372437E0,1.702154888E1
1.598517021E1,1.633388351E1,-3.551813965E0,-4.465813293E0,1.730186757E1
1.599510921E1,1.580174011E1,-3.795656891E0,-4.222718811E0,1.679087121E1
1.600504921E1,1.466051331E1,-3.779041443E0,-3.876937866E0,1.562825812E1
1.601498821E1,1.349309097E1,-3.578159180E0,-3.508254547E0,1.439356026E1
1.602492821E1,1.250065475E1,-3.231779480E0,-3.075354767E0,1.327285104E1
1.603486721E1,1.167048111E1,-2.826721802E0,-2.654579773E0,1.229785669E1
1.604480721E1,1.112217133E1,-2.438279572E0,-2.335144043E0,1.162328697E1
1.605474621E1,1.087278992E1,-2.246079254E0,-2.206411743E0,1.131948256E1
1.606468621E1,1.082354233E1,-2.370769958E0,-2.243833923E0,1.130506123E1
1.607462521E1,1.083566711E1,-2.761756897E0,-2.418520660E0,1.144063919E1
1.608456521E1,1.080168777E1,-3.319048004E0,-2.662962341E0,1.160964715E1
1.609450521E1,1.068238586E1,-3.941753082E0,-2.864443359E0,1.174120185E1
1.610444421E1,1.049737061E1,-4.561165009E0,-3.004851379E0,1.183334896E1
1.611438321E1,1.028990204E1,-5.167104950E0,-3.084485779E0,1.192036535E1
1.612432321E1,1.013078293E1,-5.679339752E0,-3.171604614E0,1.203938282E1
1.613426221E1,9.977950745E0,-6.095474396E0,-3.221750336E0,1.212823088E1
1.614420221E1,9.852062531E0,-6.222709808E0,-3.095113678E0,1.205674011E1
1.615414121E1,9.725725250E0,-6.200855255E0,-3.088078308E0,1.194054292E1
1.616408121E1,9.694889374E0,-6.047274628E0,-2.942131805E0,1.179900631E1
1.617402121E1,9.890382843E0,-5.748945007E0,-2.792293396E0,1.177569293E1
1.618396021E1,1.002929398E1,-5.296735382E0,-2.488425293E0,1.161182173E1
1.619390021E1,9.952204285E0,-4.786895599E0,-2.176623688E0,1.125603972E1
1.620383921E1,9.891131287E0,-4.378544769E0,-1.950144653E0,1.099132370E1
1.621377921E1,9.715097351E0,-3.967948608E0,-1.701212311E0,1.063117378E1
1.622371821E1,9.504934387E0,-3.513493652E0,-1.440753937E0,1.023543781E1
1.623365821E1,9.364676056E0,-3.171754303E0,-1.250050507E0,9.965932433E0
1.624359721E1,9.333241425E0,-2.944077759E0,-1.111139374E0,9.849447703E0
1.625353721E1,9.346264343E0,-2.851869507E0,-1.093476105E0,9.832675468E0
1.626347621E1,9.300908661E0,-2.832260284E0,-1.137334900E0,9.788877919E0
1.627341621E1,9.156309357E0,-2.909649353E0,-1.362616425E0,9.703647969E0
1.628335521E1,8.934470673E0,-3.168760529E0,-1.707499237E0,9.632308297E0
1.629329521E1,8.631949768E0,-3.518283691E0,-2.047442322E0,9.543631227E0
1.630323421E1,8.297096100E0,-3.828887787E0,-2.328707428E0,9.430008678E0
1.631317421E1,7.974217529E0,-4.066892853E0,-2.636018372E0,9.331471242E0
1.632311321E1,7.610024872E0,-4.265529785E0,-2.900069275E0,9.193346763E0
1.633305321E1,7.257208557E0,-4.446054382E0,-3.044518890E0,9.039002759E0
1.634299221E1,6.933581543E0,-4.641248474E0,-3.046764221E0,8.882483472E0
1.635293221E1,6.628515930E0,-4.842879181E0,-2.934797058E0,8.718012157E0
1.636287121E1,6.386918335E0,-5.029541016E0,-2.662363586E0,8.554366634E0
1.637281121E1,6.101312256E0,-5.179080048E0,-2.325114899E0,8.333969083E0
1.638275033E1,5.898184662E0,-5.332660675E0,-2.070344696E0,8.216579540E0
1.639269033E1,5.660628662E0,-5.554199982E0,-1.896556091E0,8.154065201E0
1.640262933E1,5.351671143E0,-5.781128082E0,-1.681004333E0,8.055284073E0
1.641256933E1,5.144052887E0,-6.076613617E0,-1.568737793E0,8.114644257E0
1.642250833E1,4.959187317E0,-6.461912384E0,-1.547032928E0,8.291149582E0
1.643244833E1,4.800966339E0,-6.830595703E0,-1.511257324E0,8.484704718E0
1.644238733E1,4.718487854E0,-7.146887970E0,-1.453627167E0,8.686493379E0
1.645232733E1,4.732109528E0,-7.346572723E0,-1.306932220E0,8.835896287E0
1.646226633E1,4.811444550E0,-7.381749573E0,-1.031205597E0,8.871505531E0
1.647220633E1,4.975204010E0,-7.211852875E0,-6.822811890E-1,8.788002301E0
1.648214533E1,5.345683594E0,-6.991361389E0,-3.812571716E-1,8.809132999E0
1.649208533E1,6.026767273E0,-6.934629364E0,-2.471360779E-1,9.190869623E0
1.650202433E1,6.802454224E0,-7.250023499E0,-4.367916870E-1,9.951231641E0
