"Time (s)","Acceleration x (m/s^2)","Acceleration y (m/s^2)","Acceleration z (m/s^2)","Absolute acceleration (m/s^2)"
2.025249996E-3,-2.261197815E0,-3.986210632E-1,1.151779861E1,1.174442843E1
1.196425001E-2,-2.425855408E0,-1.034498749E0,1.404065231E1,1.428617792E1
2.190325002E-2,-2.969524841E0,-9.641450500E-1,1.710627731E1,1.738885784E1
3.184325001E-2,-3.974235535E0,3.243754578E-1,1.762614624E1,1.807154666E1
4.178225002E-2,-4.137246552E0,4.073030090E-1,1.670735687E1,1.721680802E1
5.172125000E-2,-2.727178802E0,7.991880798E-1,1.603241043E1,1.628233368E1
6.166025001E-2,8.592132568E-2,1.691781921E0,1.457863358E1,1.467671848E1
7.160025000E-2,3.108136597E0,1.698966980E0,1.314461563E1,1.361351982E1
8.153925001E-2,5.772446136E0,1.243015137E0,1.229094086E1,1.363574157E1
9.147824999E-2,7.681426392E0,6.120771790E-1,1.069840256E1,1.318464134E1
1.014182500E-1,7.794591064E0,-1.526824951E-1,1.026086243E1,1.288659224E1
1.113572500E-1,7.622598724E0,2.652484131E-1,9.432784424E0,1.213061375E1
1.212962500E-1,6.242319031E0,-3.547622681E-2,9.180858307E0,1.110207029E1
1.312352500E-1,4.152514801E0,-3.632945251E-1,9.879305878E0,1.072268841E1
1.411752500E-1,2.230811005E0,-4.718188477E-1,1.108205475E1,1.131419764E1
1.511142500E-1,-1.651066589E-1,-7.217990112E-1,1.174667267E1,1.176998610E1
1.610532500E-1,-1.319955139E0,-9.117539978E-1,1.209948898E1,1.220537630E1
1.709922500E-1,-1.687291260E0,-1.172661438E0,1.153531219E1,1.171689012E1
1.809322500E-1,-1.288819885E0,-1.625619507E0,1.097592545E1,1.117025671E1
1.908712500E-1,-7.135661316E-1,-1.907034302E0,1.042058029E1,1.061764805E1
2.008102500E-1,3.210823059E-1,-1.490899658E0,9.386081543E0,9.509174642E0
2.107502500E-1,1.334175568E0,-2.043999481E0,8.741821289E0,9.076199523E0
2.206892500E-1,2.208956451E0,-1.979783020E0,8.429869995E0,8.936539461E0
2.306282500E-1,2.570754089E0,-1.739981689E0,7.707621918E0,8.309256796E0
2.405672500E-1,2.366728363E0,-1.497485962E0,7.700287170E0,8.193795815E0
2.505072500E-1,1.313668213E0,-1.500779114E0,8.361312561E0,8.595906576E0
2.604462500E-1,9.265731812E-2,-1.414408722E0,8.332123260E0,8.451829118E0
2.703852500E-1,-1.333726501E0,-1.144519958E0,7.892337799E0,8.085650762E0
2.803242500E-1,-2.542762299E0,-9.770182800E-1,7.932005310E0,8.386710503E0
2.902642500E-1,-2.825973358E0,-1.128652954E0,7.965086517E0,8.526581152E0
3.002032500E-1,-2.991678772E0,-1.215173035E0,7.917635193E0,8.550773908E0
3.101422500E-1,-2.928510132E0,-1.055904236E0,7.627388763E0,8.238213684E0
3.200822500E-1,-2.761008453E0,-1.190025330E0,7.378007355E0,7.967077287E0
3.300212500E-1,-2.491718445E0,-1.409468994E0,7.244634705E0,7.789736559E0
3.399602500E-1,-2.269879761E0,-1.618733826E0,7.121440887E0,7.647716891E0
3.498992500E-1,-2.076332245E0,-1.818418579E0,6.789880371E0,7.329411789E0
3.598392500E-1,-1.644779663E0,-2.296224976E0,6.690037994E0,7.261856350E0
3.697782500E-1,-1.266815643E0,-2.650388489E0,6.498286743E0,7.131417223E0
3.797172500E-1,-1.006656647E0,-2.904260559E0,6.480623474E0,7.172626270E0
3.896562500E-1,-9.509724426E-1,-3.102598114E0,6.690786438E0,7.436201100E0
3.995962500E-1,-9.135502625E-1,-3.359613647E0,7.328161011E0,8.113169648E0
4.095352500E-1,-9.084608459E-1,-3.355721741E0,7.677833862E0,8.428244321E0
4.194742500E-1,-8.824150085E-1,-3.257226562E0,8.196056213E0,8.863606409E0
4.294142500E-1,-9.256750488E-1,-3.061882782E0,8.571774902E0,9.149170752E0
4.393532500E-1,-9.969268799E-1,-2.896626434E0,8.891809387E0,9.404710633E0
4.492922500E-1,-9.934840393E-1,-2.780917053E0,9.684710541E0,1.012492610E1
4.592312500E-1,-8.104147339E-1,-2.554438019E0,1.000758911E1,1.036020103E1
4.691712500E-1,-6.242019653E-1,-2.162552948E0,1.064780777E1,1.088310956E1
4.791102500E-1,-4.504133606E-1,-1.626367950E0,1.080902252E1,1.093996859E1
4.890492500E-1,-3.953279114E-1,-1.041085052E0,1.109986771E1,1.115559077E1
4.989892500E-1,-6.911128235E-1,-4.661306763E-1,1.152019363E1,1.155031498E1
5.089282500E-1,-1.273401947E0,-5.751040649E-1,1.180115936E1,1.188358782E1
5.188672500E-1,-1.531465302E0,-1.049766998E0,1.194515991E1,1.208859967E1
5.288062500E-1,-1.582060089E0,-1.387015686E0,1.183304306E1,1.201863697E1
5.387462500E-1,-1.609602814E0,-2.058519287E0,1.216011292E1,1.243771157E1
5.486852500E-1,-1.660197601E0,-2.761158142E0,1.306872345E1,1.346000680E1
5.586242500E-1,-1.766626282E0,-2.274819489E0,1.358440109E1,1.388638633E1
5.685632500E-1,-1.688189392E0,-2.045196991E0,1.409738434E1,1.434465264E1
5.785032500E-1,-1.025966492E0,-1.548679504E0,1.436697372E1,1.448657825E1
5.884422500E-1,-9.879455566E-2,-1.237626343E0,1.395413223E1,1.400925714E1
5.983812500E-1,1.655856628E0,-7.426057434E-1,1.310030777E1,1.322540692E1
6.083212500E-1,3.198249207E0,-3.712280273E-1,1.191432404E1,1.234170675E1
6.182602500E-1,4.811145172E0,-9.931846619E-1,1.065050217E1,1.172888443E1
6.281992500E-1,4.864883423E0,-1.569785614E0,1.046907944E1,1.165044814E1
6.381382500E-1,5.254672852E0,-1.485810242E0,1.026041336E1,1.162305042E1
6.480782500E-1,5.572611694E0,-1.019679565E0,1.046907944E1,1.190358651E1
6.580172500E-1,5.011129303E0,-2.330653381E-1,1.098370926E1,1.207508201E1
6.679562500E-1,4.013753357E0,4.278103638E-1,1.141406433E1,1.210677919E1
6.778952500E-1,3.019221497E0,8.740324402E-1,1.187286026E1,1.228187453E1
6.878352500E-1,2.119292908E0,9.596543884E-1,1.211864914E1,1.233993501E1
6.977742500E-1,1.587299194E0,6.554869080E-1,1.219169724E1,1.231205358E1
7.077132500E-1,1.067280579E0,1.640588379E-1,1.161943726E1,1.166950407E1
7.176532500E-1,8.699908447E-1,-3.339555359E-1,1.070079758E1,1.074129783E1
7.275917500E-1,1.071172485E0,-7.220983887E-1,1.008273285E1,1.016515314E1
7.375307500E-1,1.355880432E0,-1.005908203E0,9.391170959E0,9.541716567E0
7.474697500E-1,1.360670471E0,-8.434959412E-1,8.890312500E0,9.033303155E0
7.574097500E-1,1.403780823E0,-1.099912720E0,8.544681244E0,8.728802103E0
7.673487500E-1,1.153501282E0,-1.299747162E0,8.125253448E0,8.309010260E0
7.772877500E-1,5.396278381E-1,-9.719288635E-1,7.634873199E0,7.715382861E0
7.872267500E-1,-1.333726501E-1,-8.378077698E-1,7.205116882E0,7.254889345E0
7.971667500E-1,-6.072871399E-1,-8.957373047E-1,7.000642090E0,7.083793663E0
8.071057500E-1,-9.722282410E-1,-6.408174133E-1,6.658004608E0,6.759060591E0
8.170447500E-1,-1.044378204E0,-3.667373657E-1,6.500232697E0,6.593803700E0
8.269847500E-1,-8.810678101E-1,-1.303788757E-1,6.489455109E0,6.550290585E0
8.369237500E-1,-6.791377258E-1,1.814227295E-1,6.350993042E0,6.389777373E0
8.468627500E-1,-3.444337463E-1,5.089416504E-1,6.370003510E0,6.399578183E0
8.568017500E-1,-3.112028503E-1,3.924838257E-1,6.513554993E0,6.532785731E0
8.667417500E-1,-2.556683350E-1,4.423301697E-1,6.573430481E0,6.593254929E0
8.766807500E-1,-1.031355286E-1,4.602928162E-1,6.668931885E0,6.685593384E0
8.866197500E-1,-1.835183716E-1,2.650987244E-1,7.009324036E0,7.016735691E0
8.965597500E-1,-2.954855347E-1,1.574725342E-1,7.406298523E0,7.413863171E0
9.064987500E-1,-4.005670166E-1,1.471440125E-1,7.725434875E0,7.737211986E0
9.164377500E-1,-6.237528992E-1,5.942642212E-2,8.150550842E0,8.174599575E0
9.263767500E-1,-8.033793640E-1,-7.244934082E-2,8.414002991E0,8.452580295E0
9.363167500E-1,-9.493258667E-1,-5.897735596E-2,8.675359497E0,8.727345549E0
9.462557500E-1,-1.030307465E0,1.960922241E-2,8.882229309E0,8.941807172E0
9.561947500E-1,-1.174757080E0,-1.526824951E-2,9.111702118E0,9.187132458E0
9.661337500E-1,-1.290915527E0,-1.856140137E-2,9.362580414E0,9.451175558E0
9.760737500E-1,-1.444795532E0,-5.119354248E-2,9.751471710E0,9.858055357E0
9.860127500E-1,-1.657952271E0,-5.867797852E-2,1.011566437E1,1.025080067E1
9.959517500E-1,-1.893861694E0,7.858657837E-2,1.052551208E1,1.069482551E1
1.005891750E0,-2.044298859E0,-2.993774414E-3,1.093416229E1,1.112362674E1
1.015830750E0,-2.370171204E0,-2.276765442E-1,1.152109177E1,1.176456984E1
1.025769750E0,-2.690505066E0,-4.592449951E-1,1.185474792E1,1.216489917E1
1.035708750E0,-2.938688965E0,-9.062155151E-1,1.180834442E1,1.220221772E1
1.045648750E0,-3.194357300E0,-1.576970673E0,1.181014069E1,1.233572771E1
1.055587750E0,-2.836301880E0,-1.843865662E0,1.151255951E1,1.199931145E1
1.065526750E0,-2.512525177E0,-1.623374176E0,1.141361526E1,1.179909911E1
1.075466750E0,-2.240391083E0,-1.207688599E0,1.112651230E1,1.141390117E1
1.085405750E0,-2.279459839E0,-6.923103333E-1,1.146510818E1,1.170999302E1
1.095344750E0,-2.841391296E0,-6.813830566E-1,1.239003479E1,1.272991553E1
1.105283750E0,-3.428021393E0,-1.099763031E0,1.321481964E1,1.369643266E1
1.115223750E0,-3.638184357E0,-1.704206085E0,1.361418915E1,1.419460637E1
1.125162750E0,-2.949316864E0,-2.466570740E0,1.387135437E1,1.439433615E1
1.135101750E0,-6.601272583E-1,-2.594255219E0,1.365580261E1,1.391570599E1
1.145040750E0,1.949845276E0,-2.267484741E0,1.330074097E1,1.363279479E1
1.154980750E0,4.224814453E0,-2.262994080E0,1.230860413E1,1.320878249E1
1.164919750E0,6.126010895E0,-2.107467499E0,1.161479691E1,1.329935848E1
1.174858750E0,6.906487885E0,-1.367705841E0,1.135329071E1,1.335916929E1
1.184798750E0,6.741381226E0,-5.944139099E-1,1.140328674E1,1.326026008E1
1.194737750E0,6.061644745E0,-9.759704590E-2,1.161479691E1,1.310177734E1
1.204676750E0,5.320685577E0,-2.589614868E-2,1.197195419E1,1.310107067E1
1.214615750E0,4.450694733E0,-2.034269714E-1,1.180535065E1,1.261809693E1
1.224555750E0,3.283122711E0,-6.908134460E-1,1.196312256E1,1.242466979E1
1.234494750E0,2.138902130E0,-1.259031830E0,1.213047455E1,1.238178001E1
1.244433750E0,1.317260742E0,-1.685345306E0,1.175071426E1,1.194382059E1
1.254372750E0,9.433383179E-1,-1.945354614E0,1.098026642E1,1.119109210E1
1.264312750E0,6.423143005E-1,-2.216440887E0,1.065783691E1,1.090480012E1
1.274251750E0,6.313870239E-1,-2.369123383E0,1.025427612E1,1.054331893E1
1.284190750E0,8.539741516E-1,-2.532583466E0,9.790839844E0,1.014907856E1
1.294130750E0,9.075627136E-1,-2.344574432E0,9.390123138E0,9.720859628E0
1.304069750E0,9.355545044E-1,-2.352208557E0,8.958121490E0,9.308925178E0
1.314008750E0,7.824229431E-1,-2.151176605E0,8.640631714E0,8.938694696E0
1.323947750E0,4.897814941E-1,-2.067949677E0,8.181985474E0,8.453471953E0
1.333887750E0,-6.286926270E-3,-1.947749634E0,7.872129822E0,8.109512691E0
1.343826750E0,-7.147636414E-1,-1.853595428E0,7.672145691E0,7.925182810E0
1.353765750E0,-1.305884399E0,-1.793869629E0,7.309449921E0,7.638806219E0
1.363704750E0,-1.368304596E0,-1.677860870E0,7.058122559E0,7.382720950E0
1.373644750E0,-1.313817902E0,-1.492246857E0,7.095844116E0,7.369119478E0
1.383583750E0,-1.217717743E0,-1.388961639E0,6.783144379E0,7.030156371E0
1.393522750E0,-1.042581940E0,-1.392404480E0,6.693331146E0,6.915666936E0
1.403462750E0,-7.680528259E-1,-1.445394287E0,6.651268616E0,6.849703934E0
1.413401750E0,-6.201603699E-1,-1.520987091E0,6.621181183E0,6.821879570E0
1.423340750E0,-5.969586182E-1,-1.575324097E0,6.824608154E0,7.029458163E0
1.433279750E0,-6.351292419E-1,-1.634600830E0,7.038213959E0,7.253396774E0
1.443219750E0,-6.881190491E-1,-1.695075073E0,7.245981903E0,7.473355409E0
1.453158750E0,-7.270381165E-1,-1.933229828E0,7.616461487E0,7.891542788E0
1.463097750E0,-8.325686646E-1,-1.933080139E0,7.820487213E0,8.098764699E0
1.473036750E0,-8.960366821E-1,-1.851350098E0,7.957302704E0,8.218822619E0
1.482976750E0,-1.064436493E0,-1.906884613E0,8.092022552E0,8.381531063E0
1.492915750E0,-1.142424316E0,-1.911375275E0,8.129444733E0,8.428900309E0
1.502854750E0,-1.168769531E0,-1.980381775E0,8.171956329E0,8.489334747E0
1.512794750E0,-1.127904510E0,-1.966011658E0,8.224946136E0,8.531536167E0
1.522733750E0,-1.160087585E0,-2.157912598E0,8.351732483E0,8.703667356E0
1.532672750E0,-1.152004395E0,-2.189646606E0,8.589138794E0,8.938398716E0
1.542611750E0,-1.162033539E0,-2.279459839E0,8.908424835E0,9.268564730E0
1.552551750E0,-1.160686340E0,-2.394271088E0,9.409432983E0,9.778402522E0
1.562490750E0,-1.153800659E0,-2.415077820E0,9.896669769E0,1.025221583E1
1.572429750E0,-1.252445526E0,-2.039059753E0,1.047222290E1,1.074215234E1
1.582369750E0,-1.558558960E0,-1.523531799E0,1.097113541E1,1.118552937E1
1.592308750E0,-1.946552124E0,-9.852511597E-1,1.135299133E1,1.156071785E1
1.602247750E0,-2.265089722E0,-7.307803345E-1,1.145358215E1,1.169825694E1
1.612186750E0,-2.424208832E0,-1.117126923E0,1.108250381E1,1.139941454E1
1.622126750E0,-2.434537354E0,-1.877395935E0,1.055410263E1,1.099275534E1
1.632065750E0,-2.350861359E0,-2.456391907E0,1.034573593E1,1.089011764E1
1.642004750E0,-2.263293457E0,-2.743494873E0,1.081007034E1,1.138010906E1
1.651943750E0,-2.634222107E0,-2.813848572E0,1.208227478E1,1.268220146E1
1.661883750E0,-3.243604889E0,-2.841540985E0,1.335852081E1,1.403728628E1
1.671822750E0,-3.218157806E0,-2.546504517E0,1.431323547E1,1.488992729E1
1.681761750E0,-2.414628754E0,-2.054926758E0,1.485989868E1,1.519439847E1
1.691701750E0,-5.984555054E-1,-1.104104004E0,1.480915421E1,1.486230947E1
1.701640750E0,2.039508820E0,-1.317260742E-1,1.386865997E1,1.401844062E1
1.711579750E0,4.263434143E0,-6.137237549E-2,1.300345917E1,1.368468442E1
1.721518875E0,6.100863190E0,-3.914360046E-1,1.187420746E1,1.335554404E1
1.731458875E0,6.873256989E0,-8.875044250E-1,1.185878952E1,1.373536365E1
1.741397875E0,7.192543030E0,-1.086440735E0,1.161210251E1,1.370233387E1
1.751336875E0,6.358627167E0,-1.001866608E0,1.167212769E1,1.332945764E1
1.761275875E0,5.065615997E0,-5.824388123E-1,1.207464066E1,1.310712201E1
1.771215875E0,3.869303741E0,-2.968327332E-1,1.243209732E1,1.302369628E1
1.781154875E0,1.961670685E0,3.637435913E-2,1.261711258E1,1.276875111E1
1.791093875E0,7.496411133E-1,2.938389587E-1,1.252819748E1,1.255404458E1
1.801033875E0,4.011657715E-1,4.917274475E-1,1.153950348E1,1.155694036E1
1.810972875E0,5.882766724E-2,4.174818420E-1,1.108280319E1,1.109081955E1
1.820911875E0,3.029699707E-1,2.866539001E-1,1.070708450E1,1.071520508E1
1.830850875E0,4.746629333E-1,1.380130005E-1,1.004680756E1,1.005896091E1
1.840790875E0,9.496252441E-1,-6.158193970E-1,9.492510223E0,9.559747485E0
1.850729875E0,1.232836304E0,-8.601113892E-1,8.841963043E0,8.968834228E0
1.860668875E0,1.008602600E0,-1.001118164E0,8.520132294E0,8.637833703E0
1.870607875E0,7.719447327E-1,-1.090332642E0,8.025710449E0,8.136138651E0
1.880547875E0,3.007246399E-1,-1.133592682E0,7.628286896E0,7.717916082E0
1.890486875E0,-2.658471680E-1,-1.025517426E0,7.231162720E0,7.308356517E0
1.900425875E0,-8.027806091E-1,-6.779402161E-1,6.938670959E0,7.017778447E0
1.910365875E0,-1.283131714E0,-2.833607483E-1,6.562802582E0,6.693063427E0
1.920304875E0,-1.431473236E0,8.981323242E-4,6.657256165E0,6.809418189E0
1.930243875E0,-1.476529541E0,1.856140137E-1,6.574927368E0,6.741235936E0
1.940182875E0,-1.552870789E0,4.275109863E-1,6.520740051E0,6.716712302E0
1.950122875E0,-1.447190552E0,4.635859680E-1,6.770720215E0,6.939158787E0
1.960061875E0,-1.484912109E0,5.635780334E-1,6.947053528E0,7.126298962E0
1.970000875E0,-1.468296661E0,5.728587341E-1,7.116052094E0,7.288501877E0
1.979939875E0,-1.461261292E0,4.553530884E-1,7.320227509E0,7.478526711E0
1.989879875E0,-1.514101410E0,3.144960022E-1,7.666008453E0,7.820428148E0
1.999818875E0,-1.563648376E0,1.089733887E-1,7.896828461E0,8.050886360E0
2.009757875E0,-1.445394287E0,-2.350112915E-2,8.134384460E0,8.261835601E0
2.019697875E0,-1.527423706E0,-2.481838989E-1,8.338709564E0,8.481078683E0
2.029636875E0,-1.539548492E0,-3.616479492E-1,8.352480927E0,8.500878568E0
2.039575875E0,-1.620829468E0,-3.752696228E-1,8.300089874E0,8.465187970E0
2.049514875E0,-1.649569702E0,-3.897894287E-1,8.402327271E0,8.571587925E0
2.059454875E0,-1.774709473E0,-3.760180664E-1,8.485404510E0,8.677158118E0
2.069393875E0,-1.841919708E0,-3.498225403E-1,8.657845917E0,8.858517931E0
2.079332875E0,-1.801952820E0,-2.221380615E-1,9.017547913E0,9.198508012E0
2.089271875E0,-1.861229553E0,-6.855743408E-2,9.379495239E0,9.562625503E0
2.099211875E0,-1.903890839E0,9.056167603E-2,9.899064789E0,1.008089706E1
2.109150875E0,-1.928140411E0,2.264790344E-1,1.050739975E1,1.068524533E1
2.119089875E0,-1.869312744E0,1.326242065E-1,1.112396759E1,1.128071692E1
2.129029875E0,-1.745969238E0,-2.246827698E-1,1.151824768E1,1.165199213E1
2.138968875E0,-1.704355774E0,-1.069076843E0,1.146660507E1,1.164176901E1
2.148907875E0,-1.784139862E0,-2.219584351E0,1.160910873E1,1.195328889E1
2.158846875E0,-1.440753937E0,-2.388283539E0,1.154354507E1,1.187573590E1
2.168786875E0,-1.694027252E0,-2.236050110E0,1.135418884E1,1.169560827E1
2.178725875E0,-2.056723022E0,-2.001487885E0,1.121827148E1,1.157953706E1
2.188664875E0,-2.221081238E0,-1.247356110E0,1.099763031E1,1.128879850E1
2.198603875E0,-2.361040192E0,-4.772076416E-1,1.100257004E1,1.126316054E1
2.208543875E0,-2.809956665E0,-1.031355286E-1,1.136586456E1,1.170851701E1
2.218482875E0,-3.424877930E0,-1.279838562E-1,1.238030502E1,1.284593792E1
2.228421875E0,-3.878734131E0,-4.755610657E-1,1.299926788E1,1.357393466E1
2.238361875E0,-3.792214050E0,-1.100361786E0,1.328622116E1,1.386056839E1
2.248300875E0,-2.788401489E0,-1.538949738E0,1.317664902E1,1.355609193E1
2.258239875E0,-3.004252625E-1,-2.007625122E0,1.298055679E1,1.313832823E1
2.268178875E0,2.467917938E0,-2.628084869E0,1.194022018E1,1.247262230E1
2.278118875E0,4.552333374E0,-3.457510071E0,1.091949280E1,1.232531695E1
2.288057875E0,5.739514618E0,-3.328179016E0,1.038255936E1,1.232137746E1
2.297996875E0,6.049519958E0,-2.208357697E0,1.100197128E1,1.274821194E1
2.307935875E0,5.562283173E0,-1.053060150E0,1.132844238E1,1.266418322E1
2.317875875E0,4.832251282E0,-2.216889954E-1,1.164533340E1,1.261005902E1
2.327814875E0,3.957021332E0,9.669891357E-2,1.221654556E1,1.284178157E1
2.337753875E0,2.468217316E0,1.091230774E-1,1.239647141E1,1.264027325E1
2.347693875E0,1.412163391E0,-2.523751831E-1,1.270183640E1,1.278258763E1
2.357632875E0,9.416917419E-1,-9.934840393E-1,1.271725433E1,1.279071349E1
2.367571875E0,6.099815369E-1,-1.640438690E0,1.182466049E1,1.195348118E1
2.377510875E0,4.288581848E-1,-2.104024658E0,1.118773499E1,1.139193808E1
2.387450875E0,4.866380310E-1,-2.384391632E0,1.085737198E1,1.112675453E1
2.397389875E0,7.045848083E-1,-2.642305298E0,1.051488419E1,1.086466780E1
2.407328875E0,4.272116089E-1,-2.785407715E0,9.998009033E0,1.038754978E1
2.417267875E0,2.073188782E-1,-2.568808136E0,9.614805908E0,9.954207603E0
2.427207875E0,5.643264771E-2,-2.432591400E0,9.296118622E0,9.609292742E0
2.437146875E0,-4.879852295E-2,-2.232008514E0,8.814869385E0,9.093193365E0
2.447085875E0,-4.076023865E-1,-2.237996063E0,8.380023651E0,8.683292145E0
2.457025875E0,-1.312321014E0,-2.110311584E0,8.418343964E0,8.777477799E0
2.466964875E0,-1.504820709E0,-1.916165314E0,7.928712158E0,8.294615806E0
2.476903875E0,-1.462608490E0,-1.675016785E0,7.387737122E0,7.715151625E0
2.486842875E0,-1.220262451E0,-1.463057556E0,7.481741638E0,7.720494531E0
2.496782875E0,-7.310797119E-1,-1.310824127E0,7.167545013E0,7.323007508E0
2.506721875E0,-2.480342102E-1,-1.196911011E0,6.780899048E0,6.890189318E0
2.516660875E0,3.143463135E-3,-1.168021088E0,6.791077881E0,6.890792547E0
2.526599875E0,2.314187622E-1,-1.087638245E0,6.708898773E0,6.800428982E0
2.536539875E0,2.727328491E-1,-1.060394897E0,6.832541656E0,6.919714303E0
2.546478875E0,1.727407837E-1,-1.077309723E0,7.080276489E0,7.163850276E0
2.556417875E0,-4.490661621E-2,-1.135089569E0,7.307054901E0,7.394829022E0
2.566357875E0,-3.168910217E-1,-1.034199371E0,7.560328217E0,7.637313075E0
2.576296875E0,-5.818400574E-1,-1.082399139E0,7.705376587E0,7.802752982E0
2.586235875E0,-7.057823181E-1,-1.084644470E0,7.815098419E0,7.921511573E0
2.596174875E0,-8.958869934E-1,-1.142124939E0,7.845784607E0,7.978934702E0
2.606114875E0,-9.794132996E-1,-1.106349335E0,7.879913635E0,8.017250037E0
2.616053875E0,-1.084045715E0,-1.068927155E0,7.850125580E0,7.996388685E0
2.625992875E0,-1.382974091E0,-1.456171875E0,7.916886749E0,8.167628154E0
2.635931875E0,-1.451830902E0,-1.521436157E0,8.105494537E0,8.373865454E0
2.645871875E0,-1.724563751E0,-1.633852386E0,8.249046021E0,8.584308592E0
2.655810875E0,-2.054627380E0,-1.735640717E0,8.743916931E0,9.148225274E0
2.665749875E0,-2.356399841E0,-2.022893372E0,9.061107330E0,9.578537668E0
2.675689875E0,-2.363285522E0,-2.155816956E0,9.538614349E0,1.006070718E1
2.685628875E0,-2.481389923E0,-2.281854858E0,9.950857086E0,1.050636542E1
2.695567875E0,-2.562521210E0,-2.202669525E0,1.045890060E1,1.099121785E1
2.705506875E0,-2.775528259E0,-2.026336212E0,1.086650299E1,1.139695059E1
2.715446875E0,-2.977458344E0,-1.761536865E0,1.116662888E1,1.169024682E1
2.725386042E0,-3.021616516E0,-1.419647827E0,1.124162292E1,1.172687735E1
2.735325042E0,-3.172353058E0,-1.257684631E0,1.118459152E1,1.169361715E1
2.745264042E0,-3.040327606E0,-1.463806000E0,1.110181366E1,1.160330067E1
2.755204042E0,-2.906655579E0,-1.820663910E0,1.129281647E1,1.180216791E1
2.765143042E0,-2.987337799E0,-1.938319244E0,1.217388428E1,1.268403434E1
2.775082042E0,-3.133284302E0,-1.659598846E0,1.354383545E1,1.400025777E1
2.785022042E0,-2.943928070E0,-1.213825836E0,1.468955292E1,1.503073686E1
2.794961042E0,-2.142195282E0,-9.568103027E-1,1.551059555E1,1.568703480E1
2.804900042E0,-7.201524353E-1,-8.767268372E-1,1.535012924E1,1.539200238E1
2.814839042E0,1.412013702E0,-1.077459412E0,1.460707443E1,1.471466360E1
2.824779042E0,3.903881836E0,-1.307830353E0,1.395877258E1,1.455328299E1
2.834718042E0,5.109774170E0,-1.779499512E0,1.278596146E1,1.388370343E1
2.844657042E0,6.415508881E0,-2.516117706E0,1.164638123E1,1.353247199E1
2.854596042E0,6.578819275E0,-2.950065308E0,1.166793640E1,1.371584807E1
2.864536042E0,5.502407684E0,-2.231559448E0,1.129790588E1,1.276319025E1
2.874475042E0,3.761228485E0,-9.726773071E-1,1.138846756E1,1.203287722E1
2.884414042E0,2.344424744E0,-9.759704590E-2,1.181478104E1,1.204553459E1
2.894353042E0,1.055455170E0,5.065466309E-1,1.173364975E1,1.179190873E1
2.904293042E0,5.415737915E-1,6.953041077E-1,1.096350128E1,1.099886859E1
2.914232042E0,5.206173706E-1,6.426136780E-1,1.035396881E1,1.038694685E1
2.924171042E0,4.626878357E-1,3.622467041E-1,1.027253815E1,1.028933150E1
2.934111042E0,6.596781921E-1,-5.224136353E-2,9.978399811E0,1.000031836E1
2.944050042E0,9.639953613E-1,-4.837939453E-1,9.640252991E0,9.700403155E0
2.953989042E0,1.046623535E0,-7.536827087E-1,9.482181702E0,9.569494672E0
2.963928042E0,1.019529877E0,-1.020727386E0,9.112600250E0,9.226093913E0
2.973868042E0,1.025367737E0,-1.306782532E0,8.865913239E0,9.020170571E0
2.983807042E0,7.411088562E-1,-1.457369385E0,8.486602020E0,8.642660569E0
2.993746042E0,2.028282166E-1,-1.418450317E0,8.059989166E0,8.186364636E0
3.003686042E0,-4.020639038E-1,-1.222807159E0,7.420968018E0,7.531777947E0
3.013625042E0,-8.581654358E-1,-1.114432526E0,6.858886871E0,7.001623875E0
3.023564042E0,-8.250842285E-1,-8.187973022E-1,6.227350159E0,6.334909866E0
3.033503042E0,-8.842112732E-1,-5.177732849E-1,6.205944672E0,6.289965661E0
3.043443042E0,-6.086343384E-1,-1.273851013E-1,5.919889526E0,5.952457873E0
3.053382042E0,-4.227209473E-1,3.278182983E-1,5.830375671E0,5.854864499E0
3.063321042E0,-2.790197754E-1,5.716612244E-1,6.060596924E0,6.093889043E0
3.073260042E0,-3.424877930E-1,7.192543030E-1,6.256240082E0,6.306755473E0
3.083200042E0,-3.635939026E-1,8.205935669E-1,6.473139038E0,6.535067202E0
3.093139042E0,-5.626799011E-1,8.638536072E-1,6.868317261E0,6.945259802E0
3.103078042E0,-7.923023987E-1,8.054750061E-1,7.289990387E0,7.377024666E0
3.113017042E0,-1.055754547E0,5.737568665E-1,7.758665771E0,7.851159733E0
3.122957042E0,-1.271006927E0,3.559597778E-1,8.097261658E0,8.204133856E0
3.132896042E0,-1.541195068E0,1.064286804E-1,8.458759918E0,8.598675983E0
3.142835042E0,-1.648970947E0,1.945953369E-3,8.715625763E0,8.870244721E0
3.152775042E0,-1.736239471E0,-1.389111328E-1,8.844058685E0,9.013944632E0
3.162714042E0,-1.870809631E0,1.002914429E-2,8.993597717E0,9.186121552E0
3.172653042E0,-1.967508545E0,1.516346741E-1,9.148226166E0,9.358639053E0
3.182592042E0,-2.083666992E0,1.517843628E-1,9.161847839E0,9.397029449E0
3.192532042E0,-2.179617462E0,1.526824951E-1,9.366771698E0,9.618235611E0
3.202471042E0,-2.316732330E0,2.182461548E-1,9.564660187E0,9.843658088E0
3.212410042E0,-2.581831055E0,2.318678284E-1,9.819580078E0,1.015597200E1
3.222349042E0,-2.718945923E0,5.355862427E-1,1.049841843E1,1.085800668E1
3.232289042E0,-2.915038147E0,4.523593140E-1,1.098715210E1,1.137627301E1
3.242228042E0,-3.057092743E0,3.616479492E-1,1.130284561E1,1.171456035E1
3.252167042E0,-3.206781464E0,-1.643582153E-1,1.171927963E1,1.215121295E1
3.262106042E0,-3.221001892E0,-9.276210022E-1,1.164009430E1,1.211309742E1
3.272046042E0,-2.890040131E0,-1.621128845E0,1.142559036E1,1.189640727E1
3.281985042E0,-2.313439178E0,-1.649270325E0,1.139430542E1,1.174318055E1
3.291924042E0,-2.029180298E0,-1.015937347E0,1.145522873E1,1.167784084E1
3.301864042E0,-1.889221344E0,-3.300636292E-1,1.110136459E1,1.126580646E1
3.311803042E0,-2.266736298E0,7.978408813E-2,1.167736679E1,1.189560230E1
3.321742042E0,-2.927162933E0,1.333726501E-1,1.243988113E1,1.278032526E1
3.331681042E0,-3.439697113E0,6.346801758E-2,1.313982559E1,1.358273025E1
3.341621042E0,-3.681444397E0,-4.939727783E-1,1.378618149E1,1.427780942E1
3.351560042E0,-3.247796173E0,-1.226250000E0,1.407957138E1,1.450124820E1
3.361499042E0,-1.500180359E0,-1.586550751E0,1.408765457E1,1.425586531E1
3.371438042E0,1.057101746E0,-1.741029510E0,1.375369904E1,1.390370041E1
3.381378042E0,3.394940186E0,-2.239492950E0,1.231608856E1,1.297023458E1
3.391317042E0,4.943769379E0,-2.502496033E0,1.163889679E1,1.289058806E1
3.401256042E0,5.791306915E0,-2.251168671E0,1.182510956E1,1.335815153E1
3.411196042E0,6.161187744E0,-1.203048248E0,1.184891006E1,1.340910993E1
3.421135042E0,5.684878235E0,-4.933740234E-1,1.173170380E1,1.304584733E1
3.431074042E0,4.798421631E0,-4.306544495E-1,1.199545532E1,1.292676533E1
3.441013042E0,4.081262970E0,-5.566923523E-1,1.264240997E1,1.329650870E1
3.450953042E0,2.683170319E0,-9.556127930E-1,1.229228806E1,1.261796118E1
3.460892042E0,1.651066589E0,-1.211281128E0,1.235560638E1,1.252414596E1
3.470831042E0,1.243613892E0,-1.552721100E0,1.167946243E1,1.184767323E1
3.480770042E0,1.054706726E0,-1.578467560E0,1.069750443E1,1.086464758E1
3.490710042E0,8.309220886E-1,-1.893262939E0,1.028630951E1,1.049204648E1
3.500649042E0,8.900491333E-1,-2.224673767E0,9.740993500E0,1.003136657E1
3.510588042E0,6.174659729E-1,-1.966610413E0,9.414073334E0,9.637094867E0
3.520527042E0,5.490582275E-1,-1.814526672E0,9.256301422E0,9.448443681E0
3.530467042E0,3.146456909E-1,-1.800306244E0,8.791517944E0,8.979470600E0
3.540406042E0,6.197113037E-2,-1.866768036E0,8.239765320E0,8.448810321E0
3.550345042E0,8.936416626E-2,-1.837728424E0,7.811206512E0,8.024972205E0
3.560285042E0,-5.608836365E-1,-1.840422821E0,7.696395264E0,7.933236834E0
3.570224042E0,-1.004411316E0,-1.810934143E0,7.502698059E0,7.783238576E0
3.580163042E0,-1.244062958E0,-1.739233246E0,6.935377808E0,7.257554014E0
3.590102042E0,-1.356628876E0,-1.642384644E0,6.748715973E0,7.076936944E0
3.600042042E0,-1.266366577E0,-1.534908142E0,6.592141571E0,6.885924615E0
3.609981042E0,-1.096619568E0,-1.429976349E0,6.506070557E0,6.751026657E0
3.619920042E0,-8.924441528E-1,-1.386267242E0,6.489305420E0,6.695466994E0
3.629859042E0,-7.203021240E-1,-1.409468994E0,6.510860596E0,6.700503242E0
3.639799042E0,-6.520440674E-1,-1.288221130E0,6.688092041E0,6.842167076E0
3.649738042E0,-6.843768311E-1,-1.380429382E0,6.850204926E0,7.021343493E0
3.659677042E0,-6.917115784E-1,-1.381028137E0,7.273973694E0,7.436154713E0
3.669616042E0,-8.440946960E-1,-1.366957397E0,7.692054291E0,7.858038406E0
3.679556042E0,-9.997709656E-1,-1.382674713E0,7.968828735E0,8.149451685E0
3.689495042E0,-1.149908752E0,-1.364861755E0,8.185278625E0,8.377584612E0
3.699434042E0,-1.221909027E0,-1.238674164E0,8.314310303E0,8.494417647E0
3.709374042E0,-1.384770355E0,-1.169667664E0,8.403524780E0,8.596798248E0
3.719313042E0,-1.338217163E0,-1.106049957E0,8.620124359E0,8.793219868E0
3.729252042E0,-1.480271759E0,-1.177900543E0,8.524173889E0,8.731563128E0
3.739191042E0,-1.524729309E0,-1.175505524E0,8.519683228E0,8.734507141E0
3.749131042E0,-1.727108459E0,-1.365011444E0,8.523126068E0,8.802831240E0
3.759070042E0,-1.763482819E0,-1.516047363E0,8.801098022E0,9.103164157E0
3.769009042E0,-2.018702087E0,-1.743125153E0,9.048084412E0,9.432999254E0
3.778948042E0,-2.015708313E0,-1.985471191E0,9.706116028E0,1.011008725E1
3.788888042E0,-2.111209717E0,-2.173929291E0,9.990225220E0,1.043972102E1
3.798827042E0,-2.194586334E0,-2.285746765E0,1.048808990E1,1.095631678E1
3.808766042E0,-2.293829956E0,-2.055974579E0,1.115585129E1,1.157331868E1
3.818706042E0,-2.519261169E0,-1.817670135E0,1.154504196E1,1.195569301E1
3.828645042E0,-2.574795685E0,-1.359023895E0,1.161569504E1,1.197501106E1
3.838584042E0,-2.700983276E0,-1.189276886E0,1.149818939E1,1.187089085E1
3.848523042E0,-2.557431793E0,-1.203347626E0,1.144265488E1,1.178655393E1
3.858463042E0,-2.309098206E0,-1.590742035E0,1.161883850E1,1.195239737E1
3.868402042E0,-2.279609528E0,-1.733994141E0,1.235919891E1,1.268673138E1
3.878341042E0,-2.511327667E0,-1.393003235E0,1.322305252E1,1.353130972E1
3.888280042E0,-2.392923889E0,-9.668394470E-1,1.432476151E1,1.455539953E1
3.898220042E0,-1.788480835E0,-5.854325867E-1,1.515373764E1,1.527013947E1
3.908159042E0,-5.936654663E-1,-5.215155029E-1,1.479253876E1,1.481362953E1
3.918098042E0,9.743238831E-1,-9.139993286E-1,1.390338776E1,1.396742256E1
3.928038042E0,2.873274994E0,-1.309177551E0,1.272279282E1,1.310874182E1
3.937977042E0,4.318669281E0,-1.931134186E0,1.155866364E1,1.248931098E1
3.947916042E0,5.248685303E0,-2.651585999E0,1.046713348E1,1.200585228E1
3.957855042E0,6.148314514E0,-3.180735626E0,9.818083191E0,1.201305989E1
3.967795042E0,5.536087646E0,-3.092868347E0,9.941726074E0,1.179203199E1
3.977734042E0,3.807332611E0,-2.102827148E0,1.028241760E1,1.116448724E1
3.987673042E0,2.645448761E0,-1.102906494E0,1.115091156E1,1.151336747E1
3.997612042E0,1.120270386E0,-8.053253174E-2,1.170984924E1,1.176359046E1
4.007552042E0,7.420069885E-1,6.086343384E-1,1.211864914E1,1.215658945E1
4.017491042E0,7.238946533E-1,9.003776550E-1,1.168634811E1,1.174331451E1
4.027430042E0,7.259902954E-1,9.047186279E-1,1.149833908E1,1.155670279E1
4.037369042E0,9.026229858E-1,6.605763245E-1,1.125748993E1,1.131292044E1
4.047309042E0,1.129401398E0,7.604187012E-2,1.083057770E1,1.088957038E1
4.057248042E0,1.276246033E0,-2.767744446E-1,1.043135788E1,1.051278437E1
4.067187042E0,1.322050781E0,-4.833448792E-1,9.998009033E0,1.009661454E1
4.077127042E0,1.256038055E0,-7.472460938E-1,9.507928162E0,9.619600109E0
4.087066042E0,8.949888611E-1,-8.915460205E-1,9.313482513E0,9.398766722E0
4.097005042E0,1.429527283E-1,-6.730004883E-1,8.860973511E0,8.887644047E0
4.106944042E0,-4.451742554E-1,-7.048841858E-1,8.167166290E0,8.209606997E0
4.116884042E0,-6.474037170E-1,-7.249424744E-1,7.550748138E0,7.613046080E0
4.126823042E0,-7.083270264E-1,-5.438191223E-1,7.023095398E0,7.079642320E0
4.136762042E0,-6.062393188E-1,-4.531077576E-1,6.594985657E0,6.638273011E0
4.146701042E0,-3.321592712E-1,-4.028123474E-1,6.345304871E0,6.366748108E0
4.156641042E0,-6.152206421E-2,-2.137554932E-1,6.328240356E0,6.332148323E0
4.166580042E0,1.579216003E-1,-5.987548828E-3,6.390810242E0,6.392763927E0
4.176519042E0,2.758763123E-1,2.540217590E-1,6.389762421E0,6.400757657E0
4.186458042E0,-5.987548828E-3,3.606001282E-1,6.672225037E0,6.681964924E0
4.196398042E0,-1.821711731E-1,4.204756165E-1,6.977739716E0,6.992770382E0
4.206337042E0,-5.140310669E-1,4.095483398E-1,7.210056610E0,7.239949869E0
4.216276042E0,-8.202941895E-1,4.008663940E-1,7.554789734E0,7.609758495E0
4.226216042E0,-1.133892059E0,3.653901672E-1,7.955207062E0,8.043913262E0
4.236155042E0,-1.382674713E0,3.706292725E-1,8.009544067E0,8.136458172E0
4.246094042E0,-1.600022736E0,2.821632385E-1,8.075556793E0,8.237372540E0
4.256033042E0,-1.671274567E0,2.856060791E-1,8.173303528E0,8.347312146E0
4.265973042E0,-1.769919434E0,3.607498169E-1,8.147706757E0,8.345530578E0
4.275912042E0,-1.854493561E0,4.773573303E-1,8.095764771E0,8.319160030E0
4.285851042E0,-1.997895355E0,5.319937134E-1,8.093070374E0,8.352986965E0
4.295790042E0,-2.131567383E0,5.643264771E-1,8.322692871E0,8.609835103E0
4.305730042E0,-2.364333344E0,5.610333252E-1,8.502918091E0,8.843327802E0
4.315669042E0,-2.614163818E0,5.833369446E-1,8.928333435E0,9.321441540E0
4.325608042E0,-2.889591064E0,7.008425903E-1,9.479337616E0,9.934724883E0
4.335547042E0,-3.241958313E0,8.018824768E-1,1.018556900E1,1.071910094E1
4.345487042E0,-3.348836060E0,9.074130249E-1,1.099179245E1,1.152638723E1
4.355426042E0,-3.562741241E0,9.780661011E-1,1.139490417E1,1.197888057E1
4.365365042E0,-3.742517395E0,5.022056580E-1,1.190429489E1,1.248883036E1
4.375305042E0,-3.784280548E0,-3.594026184E-1,1.171673492E1,1.231794735E1
4.385244042E0,-3.404669952E0,-9.223818970E-1,1.135044662E1,1.188592464E1
4.395183042E0,-2.728076935E0,-9.500743103E-1,1.145343246E1,1.181211921E1
4.405122042E0,-2.074685669E0,-4.098477173E-1,1.142244690E1,1.161656528E1
4.415062042E0,-1.988165588E0,5.164260864E-2,1.191671906E1,1.208154222E1
4.425001042E0,-2.625240784E0,-1.953437805E-1,1.272264313E1,1.299213980E1
4.434940042E0,-3.326532440E0,-7.156617737E-1,1.367780685E1,1.409469369E1
4.444879042E0,-3.636238403E0,-1.358425140E0,1.428883621E1,1.480670081E1
4.454819042E0,-2.978955231E0,-2.091450806E0,1.458282486E1,1.503020697E1
4.464758042E0,-1.117426300E0,-2.161056061E0,1.423090668E1,1.443736505E1
4.474697042E0,1.518292694E0,-2.341281281E0,1.375519592E1,1.403539189E1
4.484636042E0,3.628604279E0,-3.133733368E0,1.328038330E1,1.411933548E1
4.494576042E0,4.560566254E0,-3.418441315E0,1.297726364E1,1.417370372E1
4.504515042E0,6.167624359E0,-2.962040405E0,1.223226288E1,1.401576001E1
4.514454042E0,7.781568146E0,-2.495161285E0,1.199261124E1,1.451211070E1
4.524393042E0,6.300847321E0,-1.719324646E0,1.305061111E1,1.459367002E1
4.534333042E0,5.836213531E0,-1.623224487E0,1.337184311E1,1.468000117E1
4.544272042E0,4.420756989E0,-1.556313629E0,1.343980179E1,1.423353352E1
4.554211042E0,2.508333893E0,-1.686991882E0,1.313623306E1,1.347955116E1
4.564151042E0,1.808838501E0,-1.845661926E0,1.322335190E1,1.347350734E1
4.574090042E0,1.157542877E0,-2.593955841E0,1.254181915E1,1.285946111E1
4.584029042E0,7.370672607E-1,-2.763253784E0,1.117082016E1,1.153109113E1
4.593968042E0,5.496569824E-1,-2.827919312E0,1.018122803E1,1.058095717E1
4.603908042E0,5.728587341E-1,-2.814597015E0,9.453740845E0,9.880452391E0
4.613847042E0,3.930825806E-1,-2.765648804E0,8.668174438E0,9.107171642E0
4.623786042E0,7.185058594E-2,-2.673141174E0,8.578510895E0,8.985638287E0
4.633725042E0,2.888992310E-2,-2.509830780E0,7.794291687E0,8.188471657E0
4.643665042E0,2.070195007E-1,-2.564467163E0,7.113507385E0,7.564478582E0
4.653604042E0,-1.077758789E-2,-2.265239410E0,6.954388275E0,7.314023655E0
4.663543042E0,-4.050576782E-1,-2.323618011E0,6.977590027E0,7.365462305E0
4.673482042E0,-6.191125488E-1,-2.139949951E0,6.481970673E0,6.854095852E0
4.683422042E0,-1.029559021E0,-1.943708038E0,5.995332642E0,6.386079094E0
4.693361042E0,-1.230141907E0,-1.907483368E0,5.927224274E0,6.346946471E0
4.703300042E0,-1.081800385E0,-1.841021576E0,5.952371979E0,6.323795118E0
4.713240042E0,-1.307381287E0,-1.743723907E0,6.098767548E0,6.476479329E0
4.723178875E0,-1.472637634E0,-1.617536316E0,6.455026703E0,6.815603794E0
4.733117875E0,-1.612596588E0,-1.499880981E0,6.766977997E0,7.116326435E0
4.743056875E0,-1.894610138E0,-1.502425690E0,6.934180298E0,7.343683472E0
4.752996875E0,-1.985620880E0,-1.559307404E0,7.353009338E0,7.774373042E0
4.762935875E0,-1.997146912E0,-1.536704407E0,7.792345734E0,8.189670827E0
4.772874875E0,-1.991159363E0,-1.466051331E0,8.036937103E0,8.408708588E0
4.782813875E0,-1.938319244E0,-1.627415771E0,8.311166840E0,8.687983530E0
4.792753875E0,-1.520837402E0,-1.536255341E0,8.561895447E0,8.830576454E0
4.802692875E0,-1.507664795E0,-1.470541992E0,8.656648407E0,8.909158688E0
4.812631875E0,-1.660496979E0,-1.352886658E0,8.690478058E0,8.950528554E0
4.822570875E0,-1.745819550E0,-1.290466461E0,8.698261871E0,8.965096161E0
4.832510875E0,-1.889520721E0,-1.094823303E0,8.732091522E0,9.001019330E0
4.842449875E0,-1.982327728E0,-8.988807678E-1,8.601263580E0,8.872392295E0
4.852388875E0,-1.995650024E0,-6.566844177E-1,8.731043701E0,8.980254871E0
4.862327875E0,-2.096091156E0,-7.934999084E-1,8.794511719E0,9.075608884E0
4.872267875E0,-2.271676025E0,-9.430389404E-1,8.987759857E0,9.318243486E0
4.882206875E0,-2.157613220E0,-1.200353851E0,9.441316681E0,9.758821898E0
4.892145875E0,-1.974244537E0,-1.564696198E0,9.969268799E0,1.028261815E1
4.902085875E0,-2.001338196E0,-1.629511414E0,1.050171158E1,1.081418550E1
4.912024875E0,-1.809437256E0,-1.526675262E0,1.105840393E1,1.130898307E1
4.921963875E0,-1.882934418E0,-1.521585846E0,1.132275421E1,1.157866264E1
4.931902875E0,-1.990560608E0,-1.563049622E0,1.148067581E1,1.175633330E1
4.941842875E0,-2.106120300E0,-1.908980255E0,1.139026382E1,1.173959362E1
4.951781875E0,-2.139949951E0,-2.393073578E0,1.145687531E1,1.189815863E1
4.961720875E0,-1.693578186E0,-2.528541870E0,1.169353317E1,1.208306456E1
4.971659875E0,-1.241069183E0,-2.586621094E0,1.306857376E1,1.337977883E1
4.981599875E0,-7.147636414E-1,-2.110161896E0,1.423973831E1,1.441297393E1
4.991538875E0,-4.085005188E-1,-1.609752502E0,1.511601608E1,1.520697597E1
5.001477875E0,-2.559677124E-1,-1.367556152E0,1.529279846E1,1.535595696E1
5.011416875E0,4.641847229E-1,-1.433718567E0,1.490660156E1,1.498258277E1
5.021356875E0,2.080074463E0,-1.934127960E0,1.437356003E1,1.465151148E1
5.031295875E0,3.557801514E0,-2.288740540E0,1.314596283E1,1.380987413E1
5.041234875E0,4.567302246E0,-3.129691772E0,1.177062286E1,1.300779701E1
5.051174875E0,5.180576935E0,-4.189338226E0,1.091021210E1,1.278364816E1
5.061113875E0,5.047803040E0,-4.893024902E0,1.018990997E1,1.237967178E1
5.071052875E0,3.530707855E0,-3.953578491E0,9.724527740E0,1.107533840E1
5.080991875E0,2.375859375E0,-2.258653107E0,1.024754013E1,1.075910314E1
5.090931875E0,1.431922302E0,-1.097517700E0,1.055290512E1,1.070601481E1
5.100870875E0,4.569996643E-1,-2.944377136E-1,1.078507233E1,1.079876508E1
5.110809875E0,-1.522334290E-1,-2.474354553E-1,1.012524445E1,1.012941136E1
5.120748875E0,-4.869374084E-1,1.736389160E-2,9.876761169E0,9.888772459E0
5.130688875E0,-4.146377563E-1,-3.098556519E-2,9.811347198E0,9.820153686E0
5.140627875E0,8.696914673E-2,-3.308120728E-1,9.687704315E0,9.693741030E0
5.150566875E0,4.454736328E-1,-7.894583130E-1,9.361682281E0,9.405465769E0
5.160505875E0,7.084767151E-1,-1.191372528E0,8.989107056E0,9.095347900E0
5.170445875E0,1.053958282E0,-1.369801483E0,8.625662842E0,8.797115642E0
5.180384875E0,9.672885132E-1,-1.568139038E0,8.505762177E0,8.703028054E0
5.190323875E0,7.264393616E-1,-1.547182617E0,8.234825592E0,8.410341297E0
5.200262875E0,1.734892273E-1,-1.388662262E0,8.026458893E0,8.147547100E0
5.210202875E0,-4.767585754E-1,-1.351689148E0,7.840695190E0,7.970625030E0
5.220141875E0,-6.400689697E-1,-7.601193237E-1,7.574099579E0,7.639008712E0
5.230080875E0,-7.241940308E-1,-4.155358887E-1,7.396718445E0,7.443693359E0
5.240020875E0,-7.084767151E-1,-1.874102783E-1,7.184310150E0,7.221590836E0
5.249959875E0,-9.123527527E-1,9.729766846E-3,6.989415436E0,7.048716929E0
5.259898875E0,-2.511776733E-1,5.164260864E-1,6.881190491E0,6.905111780E0
5.269837875E0,-2.070195007E-1,5.454656982E-1,6.792874146E0,6.817883033E0
5.279777875E0,-7.619155884E-2,4.920268250E-1,6.872807922E0,6.890818840E0
5.289716875E0,-6.855743408E-2,4.234693909E-1,6.974446564E0,6.987627016E0
5.299655875E0,-3.712280273E-1,3.838018799E-1,7.172335052E0,7.192183551E0
5.309594875E0,-5.818400574E-1,3.552113342E-1,7.238198090E0,7.270228643E0
5.319534875E0,-9.666897583E-1,2.058219910E-1,7.295528870E0,7.362173135E0
5.329473875E0,-1.268611908E0,9.460327148E-2,7.377707977E0,7.486581393E0
5.339412875E0,-1.475182343E0,2.079176331E-1,7.351961517E0,7.501381929E0
5.349351875E0,-1.651216278E0,2.317181396E-1,7.573351135E0,7.754731195E0
5.359291875E0,-1.899100800E0,3.104544067E-1,7.606731720E0,7.846357961E0
5.369230875E0,-2.191293182E0,2.692900085E-1,7.814948730E0,8.120819329E0
5.379169875E0,-2.292931824E0,3.838018799E-1,8.091124420E0,8.418499546E0
5.389109875E0,-2.664459229E0,5.017565918E-1,8.111332397E0,8.552474257E0
5.399048875E0,-2.846929779E0,6.777905273E-1,8.819809113E0,9.292655269E0
5.408987875E0,-3.047662354E0,7.292834473E-1,9.575587463E0,1.007531515E1
5.418926875E0,-3.234922943E0,8.023315430E-1,9.964478760E0,1.050710709E1
5.428866875E0,-3.335364075E0,9.078620911E-1,1.071816147E1,1.126178726E1
5.438805875E0,-3.439248047E0,8.122109985E-1,1.147049698E1,1.200251702E1
5.448744875E0,-3.453318787E0,4.402345276E-1,1.208377167E1,1.257524373E1
5.458683875E0,-3.697461090E0,-4.314028931E-1,1.183513870E1,1.240676570E1
5.468623875E0,-3.606450348E0,-1.561103668E0,1.145358215E1,1.210900792E1
5.478562875E0,-3.128943329E0,-2.010469208E0,1.174248138E1,1.231739184E1
5.488501875E0,-2.555485840E0,-1.711840210E0,1.168934189E1,1.208725025E1
5.498440875E0,-2.128723297E0,-9.135502625E-1,1.190309738E1,1.212640772E1
5.508380875E0,-2.466870117E0,-5.680686951E-1,1.216729797E1,1.242784334E1
5.518319875E0,-3.029100952E0,-9.433383179E-1,1.294822403E1,1.333123570E1
5.528258875E0,-3.580254822E0,-1.667831726E0,1.368349503E1,1.424211794E1
5.538197875E0,-3.445684662E0,-2.477198639E0,1.404439453E1,1.467154640E1
5.548137875E0,-1.947450256E0,-3.031196594E0,1.425126434E1,1.469963437E1
5.558076875E0,-0.000000000E0,-2.897973633E0,1.421938065E1,1.451168623E1
5.568015875E0,1.308129730E0,-2.791245575E0,1.434571793E1,1.467316864E1
5.577954875E0,2.825673981E0,-3.210673370E0,1.388587418E1,1.452963725E1
5.587894875E0,5.103786621E0,-3.317401428E0,1.224274109E1,1.367254546E1
5.597833875E0,7.345674591E0,-2.946772156E0,1.201281921E1,1.438576473E1
5.607772875E0,7.954009552E0,-2.078278198E0,1.296843201E1,1.535466499E1
5.617711875E0,5.996679840E0,-1.372944946E0,1.303698944E1,1.441555551E1
5.627651875E0,4.121978302E0,-1.148262177E0,1.300256104E1,1.368852821E1
5.637590875E0,2.163900146E0,-1.434017944E0,1.297980835E1,1.323685371E1
5.647529875E0,1.077010345E0,-1.870510254E0,1.306752594E1,1.324458358E1
5.657469875E0,1.022673340E0,-2.412084045E0,1.193438232E1,1.221857159E1
5.667408875E0,6.554869080E-1,-2.848726044E0,1.074555450E1,1.113606056E1
5.677347875E0,2.847079468E-1,-2.921774139E0,9.933792572E0,1.035847757E1
5.687286875E0,2.832110596E-1,-2.896027679E0,9.534872131E0,9.969000521E0
5.697226875E0,2.677931213E-1,-3.060984650E0,9.328002319E0,9.821047167E0
5.707165875E0,1.073268127E-1,-3.067421265E0,9.074130249E0,9.579166563E0
5.717104875E0,-4.086502075E-2,-2.856509857E0,8.691226501E0,9.148701362E0
5.727044167E0,-1.496887207E-2,-2.721790009E0,8.450826416E0,8.878334981E0
5.736984167E0,-2.174977112E-1,-2.260449371E0,8.353229370E0,8.656406733E0
5.746923167E0,-5.556445312E-1,-2.199975128E0,7.920179901E0,8.238803376E0
5.756862167E0,-9.279203796E-1,-2.063459015E0,7.512278137E0,7.845586157E0
5.766801167E0,-1.321901093E0,-1.697170715E0,7.063960419E0,7.384263520E0
5.776741167E0,-1.545236664E0,-1.422791290E0,6.666686554E0,6.989764017E0
5.786680167E0,-1.408870239E0,-1.266516266E0,6.530918884E0,6.800138254E0
5.796619167E0,-1.443148956E0,-1.190624084E0,6.456673279E0,6.722268549E0
5.806558167E0,-1.343605957E0,-1.061891785E0,6.420747986E0,6.645216011E0
5.816498167E0,-1.218765564E0,-8.657995605E-1,6.384223938E0,6.556928677E0
5.826437167E0,-1.189875641E0,-8.828640747E-1,6.354735260E0,6.525175342E0
5.836376167E0,-1.214274902E0,-1.075363770E0,6.374943237E0,6.578052299E0
5.846315167E0,-1.333277435E0,-1.131197662E0,6.588698730E0,6.816757868E0
5.856255167E0,-1.553918610E0,-1.209185486E0,6.928492126E0,7.202832480E0
5.866194167E0,-1.713636475E0,-1.368154907E0,7.221133575E0,7.546732268E0
5.876133167E0,-1.802850952E0,-1.470242615E0,7.496261444E0,7.848937542E0
5.886073167E0,-1.977088623E0,-1.619631958E0,7.650440826E0,8.066060497E0
5.896012167E0,-2.050286407E0,-1.654359741E0,7.784561920E0,8.218271399E0
5.905951167E0,-2.146236877E0,-1.749711456E0,7.795938263E0,8.273117690E0
5.915890167E0,-2.166295166E0,-1.826651459E0,7.884404297E0,8.378145464E0
5.925830167E0,-2.249222717E0,-1.878743134E0,8.081694031E0,8.596653826E0
5.935769167E0,-2.326462097E0,-1.916015625E0,8.203690338E0,8.739798449E0
5.945708167E0,-2.352657623E0,-2.054328003E0,8.359516296E0,8.923943867E0
5.955647167E0,-2.314636688E0,-2.241887970E0,8.793314209E0,9.365147060E0
5.965587167E0,-2.259401550E0,-2.347867584E0,9.285341034E0,9.840474362E0
5.975526167E0,-2.147883453E0,-2.621049500E0,9.870474243E0,1.043597459E1
5.985465167E0,-2.037413177E0,-2.591111755E0,1.035830978E1,1.087011933E1
5.995404167E0,-2.026934967E0,-2.312391357E0,1.095556778E1,1.137893161E1
6.005344167E0,-2.050885162E0,-1.974244537E0,1.130943192E1,1.166220484E1
6.015283167E0,-2.239043884E0,-1.578018494E0,1.164009430E1,1.195806235E1
6.025222167E0,-2.608775024E0,-1.532064056E0,1.165341660E1,1.203972781E1
6.035161167E0,-2.487676849E0,-1.760339355E0,1.152932465E1,1.192529486E1
6.045101167E0,-2.376757507E0,-2.340981903E0,1.130583939E1,1.178775537E1
6.055040167E0,-2.222578125E0,-2.823428650E0,1.158096725E1,1.212560949E1
6.064979167E0,-2.251318359E0,-2.987936554E0,1.233794312E1,1.289267387E1
6.074919167E0,-2.065704346E0,-3.082090759E0,1.363948654E1,1.413513392E1
6.084858167E0,-1.256786499E0,-2.881208496E0,1.454944427E1,1.488513364E1
6.094797167E0,-4.848417664E-1,-2.757864990E0,1.513861908E1,1.539541096E1
6.104736167E0,3.742218018E-1,-2.267634430E0,1.513682281E1,1.531031067E1
6.114676167E0,2.019600220E0,-1.952539673E0,1.423030792E1,1.450492536E1
6.124615167E0,3.240311737E0,-1.871408386E0,1.338456665E1,1.389778450E1
6.134554167E0,3.263214111E0,-2.045346680E0,1.237940689E1,1.296463360E1
6.144493167E0,4.810396729E0,-2.818937988E0,1.137035522E1,1.266377929E1
6.154433167E0,5.200186157E0,-3.268902283E0,1.076381653E1,1.239303855E1
6.164372167E0,3.872596893E0,-2.653831329E0,1.056877213E1,1.156454805E1
6.174311167E0,2.459685059E0,-1.586401062E0,1.084345093E1,1.123152469E1
6.184250167E0,1.188079376E0,-7.652087402E-1,1.114552277E1,1.123475655E1
6.194190167E0,3.629951477E-1,-2.643502808E-1,1.112441666E1,1.113347621E1
6.204129167E0,-8.741821289E-2,-2.486329651E-1,1.068193680E1,1.068518760E1
6.214068167E0,-1.348695374E-1,3.847000122E-2,1.071516769E1,1.071608550E1
6.224007167E0,-7.948471069E-2,-3.876937866E-2,1.070154602E1,1.070191142E1
6.233947167E0,3.414399719E-1,-8.217910767E-2,1.033690430E1,1.034286832E1
6.243886167E0,4.888833618E-1,-2.537223816E-1,9.815538483E0,9.830980505E0
6.253825167E0,7.590715027E-1,-8.572673035E-1,9.435628510E0,9.504850454E0
6.263764167E0,6.635700989E-1,-8.870553589E-1,9.191186829E0,9.257705321E0
6.273704167E0,1.175056458E-1,-7.896080017E-1,8.882678375E0,8.918478766E0
6.283643167E0,-3.585044861E-1,-7.321275330E-1,8.400531006E0,8.439991550E0
6.293582167E0,-8.467890930E-1,-7.565267944E-1,7.795489197E0,7.877755796E0
6.303522167E0,-9.768685913E-1,-4.882846069E-1,7.342531128E0,7.423305023E0
6.313461167E0,-8.123606873E-1,-2.853067017E-1,6.789131927E0,6.843510950E0
6.323400167E0,-5.289999390E-1,-2.177970886E-1,6.528823242E0,6.553839290E0
6.333339167E0,-3.094065857E-1,-1.014889526E-1,6.583010559E0,6.591059131E0
6.343279167E0,-1.784289551E-1,1.261875916E-1,6.667584686E0,6.671165247E0
6.353218167E0,-1.499880981E-1,1.904040527E-1,6.632557526E0,6.636984968E0
6.363157167E0,-3.008743286E-1,1.766326904E-1,6.761589203E0,6.770584393E0
6.373096167E0,-4.263134766E-1,2.639012146E-1,6.900650024E0,6.918840784E0
6.383036167E0,-7.232958984E-1,3.610491943E-1,7.142696686E0,7.188298089E0
6.392975167E0,-9.831555176E-1,3.776646423E-1,7.459887085E0,7.533866250E0
6.402914167E0,-1.246757355E0,3.067121887E-1,7.737260284E0,7.843065279E0
6.412853167E0,-1.353784790E0,3.177891541E-1,7.899822235E0,8.021278860E0
6.422793167E0,-1.526675262E0,4.314028931E-1,7.898175659E0,8.055931017E0
6.432732167E0,-1.705403595E0,5.541476440E-1,7.810907135E0,8.014097036E0
6.442671167E0,-1.799557800E0,6.020480347E-1,7.780819702E0,8.008871665E0
6.452610167E0,-1.820963287E0,4.869374084E-1,8.039182434E0,8.257207127E0
6.462550167E0,-1.916913757E0,6.541397095E-1,8.155191193E0,8.402951892E0
6.472489167E0,-1.985471191E0,8.149053955E-1,8.210426331E0,8.486298792E0
6.482428167E0,-2.102527771E0,8.355624390E-1,8.438701630E0,8.736731243E0
6.492367167E0,-2.292782135E0,9.455836487E-1,8.780141602E0,9.123697984E0
6.502307167E0,-2.524350586E0,1.100661163E0,9.254205780E0,9.655264134E0
6.512246167E0,-2.903063049E0,9.613009644E-1,9.723479919E0,1.019303372E1
6.522185167E0,-2.875969391E0,9.343569946E-1,1.086365891E1,1.127667095E1
6.532125167E0,-3.347189484E0,8.720864868E-1,1.151705017E1,1.202525080E1
6.542064167E0,-3.632346497E0,-7.484436035E-4,1.150088379E1,1.206085692E1
6.552003167E0,-3.855083313E0,-9.196875000E-1,1.149295029E1,1.215711309E1
6.561942167E0,-3.776347046E0,-1.854044495E0,1.148486710E1,1.223112629E1
6.571882167E0,-3.283272400E0,-2.230511627E0,1.130868347E1,1.198504825E1
6.581821167E0,-2.864593048E0,-1.978884888E0,1.119985977E1,1.172854371E1
6.591760167E0,-2.411335602E0,-1.135239258E0,1.142409348E1,1.173086609E1
6.601699167E0,-2.672692108E0,-4.442761230E-1,1.168530029E1,1.199528688E1
6.611639167E0,-3.347339172E0,-3.776646423E-1,1.239632172E1,1.284585934E1
6.621578167E0,-4.136348419E0,-7.141648865E-1,1.329205902E1,1.393909046E1
6.631517167E0,-4.431085510E0,-1.342109070E0,1.398421967E1,1.473072216E1
6.641456167E0,-3.848497009E0,-2.232307892E0,1.448208435E1,1.515007904E1
6.651396167E0,-2.245779877E0,-2.900668030E0,1.425051590E1,1.471511487E1
6.661335167E0,-1.475930786E-1,-3.150348816E0,1.449256256E1,1.483175145E1
6.671274167E0,1.870360565E0,-2.911445618E0,1.415755920E1,1.457433521E1
6.681213167E0,3.384162598E0,-2.850372620E0,1.288730072E1,1.362570000E1
6.691153167E0,4.771777039E0,-1.830693054E0,1.139460480E1,1.248832702E1
6.701092167E0,7.518415375E0,-2.070045319E0,1.239183105E1,1.464135015E1
6.711031167E0,7.510332184E0,-1.501377869E0,1.234123627E1,1.452464587E1
6.720970167E0,5.650449829E0,-1.308728485E0,1.177077255E1,1.312217360E1
6.730909500E0,2.956651611E0,-1.661395111E0,1.182166672E1,1.229852944E1
6.740848500E0,7.050338745E-1,-2.202370148E0,1.227776825E1,1.249364239E1
6.750787500E0,-1.793270874E-1,-2.634820862E0,1.218466187E1,1.246757490E1
6.760726500E0,-4.288581848E-1,-2.732118530E0,1.090257797E1,1.124787080E1
6.770666500E0,-4.102967834E-1,-2.669548645E0,1.025143204E1,1.060125899E1
6.780605500E0,-2.552192688E-1,-2.957400055E0,9.837692413E0,1.027577462E1
6.790544500E0,2.582130432E-1,-2.842888184E0,9.515562286E0,9.934516235E0
6.800484500E0,5.993536377E-1,-2.759212189E0,9.283095703E0,9.703006880E0
6.810423500E0,3.993695068E-1,-2.831362152E0,9.267827454E0,9.698903719E0
6.820362500E0,-3.424877930E-1,-2.317331085E0,9.170829163E0,9.465274892E0
6.830301500E0,-6.116281128E-1,-2.153421936E0,8.737480316E0,9.019693856E0
6.840241500E0,-1.103804626E0,-1.813179474E0,8.436306610E0,8.699268571E0
6.850180500E0,-1.812730408E0,-1.566193085E0,7.938890991E0,8.292462992E0
6.860119500E0,-2.373164978E0,-1.483714600E0,7.395071869E0,7.906984822E0
6.870058500E0,-2.203717346E0,-1.511856079E0,7.068750458E0,7.557070330E0
6.879998500E0,-1.922003174E0,-1.613345032E0,6.790479126E0,7.239308334E0
6.889937500E0,-1.629212036E0,-1.759441223E0,6.550378418E0,6.975487273E0
6.899876500E0,-1.260379028E0,-1.749412079E0,6.289021912E0,6.648367809E0
6.909815500E0,-9.621990967E-1,-1.942360840E0,6.109545135E0,6.482679577E0
6.919755500E0,-7.141648865E-1,-2.216590576E0,6.133794708E0,6.561001661E0
6.929694500E0,-6.475534058E-1,-2.267784119E0,6.390810242E0,6.812094081E0
6.939633500E0,-7.635621643E-1,-2.286495209E0,6.803502045E0,7.217944831E0
6.949572500E0,-8.800199890E-1,-2.281405792E0,7.330556030E0,7.727632191E0
6.959512500E0,-1.169517975E0,-2.179168396E0,7.725883942E0,8.112079257E0
6.969451500E0,-1.356778564E0,-2.135309601E0,8.138276367E0,8.522437292E0
6.979390500E0,-1.654359741E0,-2.002685394E0,8.280031586E0,8.677936276E0
6.989329500E0,-1.763632507E0,-1.991309052E0,8.276439056E0,8.693397196E0
6.999269500E0,-1.794318695E0,-1.829196167E0,8.135132904E0,8.529122204E0
7.009208500E0,-1.831142120E0,-1.712588654E0,8.109835510E0,8.488549544E0
7.019147500E0,-1.879491577E0,-1.679956512E0,7.832013245E0,8.227707696E0
7.029086500E0,-1.914818115E0,-1.497186584E0,7.783963165E0,8.154641540E0
7.039026500E0,-2.102378082E0,-1.522633667E0,7.795339508E0,8.216186763E0
7.048965500E0,-2.190844116E0,-1.717827759E0,7.773784332E0,8.257266678E0
7.058904500E0,-2.383194122E0,-2.035467224E0,7.983198853E0,8.576374815E0
7.068843500E0,-2.382745056E0,-2.352208557E0,8.482261047E0,9.119161780E0
7.078783500E0,-2.539319458E0,-2.468367004E0,9.249715118E0,9.904453985E0
7.088722500E0,-2.835403748E0,-2.509980469E0,9.976753235E0,1.067122868E1
7.098661500E0,-2.803819427E0,-1.728455658E0,1.082309326E1,1.131319186E1
7.108601500E0,-3.070714417E0,-8.686436462E-1,1.106109833E1,1.151224240E1
7.118540500E0,-3.181783447E0,-3.264710999E-1,1.128188919E1,1.172652348E1
7.128479500E0,-3.123105469E0,-2.294728088E-1,1.139670044E1,1.181910430E1
7.138418500E0,-3.105292511E0,-8.210426331E-1,1.115450409E1,1.160775233E1
7.148358500E0,-3.035088501E0,-1.876647491E0,1.076860657E1,1.134444602E1
7.158297500E0,-2.869832153E0,-2.694097595E0,1.098760117E1,1.167139571E1
7.168236500E0,-2.947670288E0,-2.789000244E0,1.171942932E1,1.240210894E1
7.178175500E0,-3.274141388E0,-2.888992310E0,1.260663437E1,1.334142078E1
7.188115500E0,-3.320694580E0,-2.752027130E0,1.356404343E1,1.423319851E1
7.198054500E0,-2.897225189E0,-2.515219574E0,1.456426346E1,1.506114250E1
7.207993500E0,-2.173629913E0,-2.305805054E0,1.472368195E1,1.506081718E1
7.217932500E0,-7.512876892E-1,-1.905537415E0,1.434631668E1,1.449180142E1
7.227872500E0,1.557361450E0,-1.200353851E0,1.378857651E1,1.392806757E1
7.237811500E0,2.945874023E0,-1.230590973E0,1.278521301E1,1.317779191E1
7.247750500E0,4.167483673E0,-1.666484528E0,1.149339935E1,1.233869197E1
7.257689500E0,5.171296234E0,-2.771636353E0,1.131257538E1,1.274357228E1
7.267629500E0,4.597689056E0,-3.338058472E0,1.066472260E1,1.208377785E1
7.277568500E0,3.423680420E0,-2.833457794E0,1.100556381E1,1.186897239E1
7.287507500E0,1.844314728E0,-1.660197601E0,1.161374908E1,1.187589663E1
7.297447500E0,7.315287781E-1,-8.009843445E-1,1.190444458E1,1.195376556E1
7.307386500E0,2.085163879E-1,-4.475692749E-1,1.148546585E1,1.149607425E1
7.317325500E0,-1.532812500E-1,-1.742376709E-1,1.092742630E1,1.092989018E1
7.327264500E0,-4.441264343E-1,-9.849517822E-2,1.071995773E1,1.072960593E1
7.337203500E0,-3.052153015E-1,-2.206411743E-1,1.050470535E1,1.051145439E1
7.347143500E0,-6.900650024E-2,-4.158352661E-1,1.003303619E1,1.004188708E1
7.357082500E0,2.954855347E-1,-8.190966797E-1,9.618548126E0,9.657882746E0
7.367021500E0,4.712200928E-1,-1.320104828E0,9.321865082E0,9.426658673E0
7.376961500E0,3.547622681E-2,-1.400038605E0,8.809480591E0,8.920107339E0
7.386900500E0,-5.331912231E-1,-1.380130005E0,8.590336304E0,8.716818773E0
7.396839500E0,-8.918453979E-1,-1.152902527E0,8.318052521E0,8.444795450E0
7.406778500E0,-1.410367126E0,-8.363108826E-1,7.658973083E0,7.832523222E0
7.416718500E0,-1.499132538E0,-7.144642639E-1,7.165149994E0,7.355082052E0
7.426657500E0,-1.395547943E0,-4.966671753E-1,6.934928741E0,7.091365806E0
7.436596500E0,-1.200802917E0,-2.366578674E-1,6.743925934E0,6.854084300E0
7.446535500E0,-1.010698242E0,1.392105103E-2,6.724616089E0,6.800159283E0
7.456475500E0,-6.950047302E-1,2.600093079E-1,6.713988190E0,6.754870378E0
7.466414500E0,-6.379733276E-1,4.134402466E-1,6.835535431E0,6.877680382E0
7.476353500E0,-6.954537964E-1,3.914360046E-1,7.002887421E0,7.048213274E0
7.486292500E0,-8.556207275E-1,4.067042542E-1,7.186256104E0,7.248432380E0
7.496232500E0,-1.091829529E0,3.656895447E-1,7.329957275E0,7.419844623E0
7.506171500E0,-1.234033813E0,4.683760071E-1,7.734266510E0,7.846087814E0
7.516110500E0,-1.511257324E0,4.046086121E-1,7.893684998E0,8.047227452E0
7.526049500E0,-1.583257599E0,3.772155762E-1,8.093818817E0,8.255840312E0
7.535989500E0,-1.759740601E0,4.403842163E-1,8.190667419E0,8.389139289E0
7.545928500E0,-1.977238312E0,4.183799744E-1,8.107290802E0,8.355398093E0
7.555867500E0,-2.086960144E0,4.119433594E-1,8.106991425E0,8.381432451E0
7.565806500E0,-2.106419678E0,4.134402466E-1,8.117469635E0,8.396502246E0
7.575746500E0,-2.156116333E0,4.822970581E-1,8.203091583E0,8.495419920E0
7.585685500E0,-2.229314117E0,5.544470215E-1,8.260272675E0,8.573759828E0
7.595624500E0,-2.264790344E0,5.436694336E-1,8.581055603E0,8.891533446E0
7.605563500E0,-2.339485016E0,5.550457764E-1,8.926537170E0,9.244692088E0
7.615503500E0,-2.396666107E0,6.101312256E-1,9.391620026E0,9.711786409E0
7.625442500E0,-2.476450195E0,6.863227844E-1,9.973909149E0,1.029964603E1
7.635381500E0,-2.594853973E0,6.138734436E-1,1.065184937E1,1.098052834E1
7.645321500E0,-2.766247559E0,2.477348328E-1,1.134251312E1,1.167758974E1
7.655260500E0,-2.993475037E0,-5.565426636E-1,1.146256348E1,1.186005877E1
7.665199500E0,-3.054548035E0,-1.538650360E0,1.142124939E1,1.192235909E1
7.675138500E0,-2.790796509E0,-1.827848969E0,1.127635071E1,1.175949243E1
7.685078500E0,-2.620450745E0,-1.684447174E0,1.115375565E1,1.158060402E1
7.695017500E0,-2.464774475E0,-1.242266693E0,1.142065063E1,1.174945108E1
7.704956500E0,-2.500250702E0,-6.553372192E-1,1.168709656E1,1.196950067E1
7.714895500E0,-2.991828461E0,-4.141886902E-1,1.217089050E1,1.254006242E1
7.724835500E0,-3.700454865E0,-7.023394775E-1,1.284808228E1,1.338879625E1
7.734775000E0,-4.243226166E0,-1.103954315E0,1.340836716E1,1.410701929E1
7.744714000E0,-4.304598541E0,-1.743574219E0,1.377420639E1,1.453610613E1
7.754653000E0,-3.569327545E0,-2.425406342E0,1.415770889E1,1.480079106E1
7.764593000E0,-1.783391418E0,-2.860850830E0,1.426189224E1,1.465491463E1
7.774532000E0,5.072950745E-1,-2.771935730E0,1.354907455E1,1.383901721E1
7.784471000E0,2.377505951E0,-2.816542969E0,1.276395721E1,1.328548278E1
7.794410000E0,3.317401428E0,-2.765199738E0,1.222118591E1,1.296182344E1
7.804350000E0,4.825066223E0,-2.039359131E0,1.122680374E1,1.238875990E1
7.814289000E0,6.736142120E0,-2.155218201E0,1.060799057E1,1.274951137E1
7.824228000E0,6.493945770E0,-2.513722687E0,1.188229065E1,1.377239865E1
7.834167000E0,4.205654297E0,-2.159708862E0,1.166000290E1,1.258203235E1
7.844107000E0,1.874252472E0,-2.130519562E0,1.122605530E1,1.157913008E1
7.854046000E0,3.086581421E-1,-2.452949066E0,1.174293045E1,1.200036018E1
7.863985000E0,1.793270874E-1,-2.503843231E0,1.108804230E1,1.136864421E1
7.873924000E0,3.173400879E-1,-2.350112915E0,1.005668701E1,1.033250643E1
7.883864000E0,3.656895447E-1,-2.506088562E0,9.396559753E0,9.731882856E0
7.893803000E0,4.634362793E-1,-2.377505951E0,9.419462128E0,9.725922810E0
7.903742000E0,3.439846802E-1,-2.355801086E0,9.333241425E0,9.632108788E0
7.913681000E0,-4.969665527E-2,-2.321672058E0,9.560768280E0,9.838745906E0
7.923621000E0,-3.727249146E-1,-2.119891663E0,9.313183136E0,9.558673791E0
7.933560000E0,-7.598199463E-1,-1.962568817E0,9.315578156E0,9.550340260E0
7.943499000E0,-8.107141113E-1,-1.659449158E0,9.116192780E0,9.301397727E0
7.953439000E0,-1.320254517E0,-1.579515381E0,8.841663666E0,9.078158250E0
7.963378000E0,-1.927092590E0,-1.608405304E0,8.481063538E0,8.844721149E0
7.973317000E0,-2.225871277E0,-1.583257599E0,7.957452393E0,8.413219131E0
7.983256000E0,-2.177372131E0,-1.707349548E0,7.347021790E0,7.850778373E0
7.993196000E0,-1.835483093E0,-1.698817291E0,7.156468048E0,7.580897922E0
8.003135000E0,-1.452429657E0,-1.787133636E0,6.933731232E0,7.306163654E0
8.013074000E0,-9.198371887E-1,-1.763482819E0,6.526428223E0,6.822773443E0
8.023013000E0,-6.194119263E-1,-1.693578186E0,6.437363434E0,6.685172113E0
8.032953000E0,-5.186714172E-1,-1.777852936E0,6.434219971E0,6.695443804E0
8.042892000E0,-6.286926270E-1,-1.804347839E0,6.577921143E0,6.849815479E0
8.052831000E0,-8.186476135E-1,-1.659299469E0,6.918612671E0,7.161749782E0
8.062770000E0,-1.056652679E0,-1.591490479E0,7.325167236E0,7.570167229E0
8.072710000E0,-1.264570312E0,-1.438059540E0,7.445966034E0,7.688274416E0
8.082649000E0,-1.510359192E0,-1.459914093E0,7.710166626E0,7.991195370E0
8.092588000E0,-1.685494995E0,-1.591490479E0,7.818541260E0,8.154956944E0
8.102527000E0,-1.867516479E0,-1.573078766E0,7.802674255E0,8.175813118E0
8.112467000E0,-1.964514771E0,-1.556613007E0,7.860154724E0,8.250114825E0
8.122406000E0,-2.109413452E0,-1.547332306E0,8.032745819E0,8.448009693E0
8.132345000E0,-2.176024933E0,-1.642384644E0,8.037984924E0,8.487739008E0
8.142284000E0,-2.340981903E0,-1.801054688E0,8.110134888E0,8.631238738E0
8.152224000E0,-2.541115723E0,-1.896406403E0,8.223000183E0,8.813135558E0
8.162163000E0,-2.620750122E0,-2.055675201E0,8.571325836E0,9.195746752E0
8.172102000E0,-2.803370361E0,-2.185904388E0,8.968749390E0,9.647565962E0
8.182041000E0,-2.809507599E0,-2.211501160E0,9.505383453E0,1.015560855E1
8.191981000E0,-2.988086243E0,-2.283501434E0,1.006566833E1,1.074526487E1
8.201920000E0,-3.129841461E0,-2.282752991E0,1.050470535E1,1.119623612E1
8.211859000E0,-3.178490295E0,-1.970053253E0,1.090706863E1,1.153031034E1
8.221798000E0,-3.226390686E0,-1.531016235E0,1.140448425E1,1.195055934E1
8.231738000E0,-3.313359833E0,-1.317260742E0,1.161419815E1,1.214920277E1
8.241677000E0,-3.408262482E0,-1.492097168E0,1.163320862E1,1.221368699E1
8.251616000E0,-3.349135437E0,-2.092648315E0,1.146555725E1,1.212661899E1
8.261555000E0,-3.135230255E0,-2.518662415E0,1.180879349E1,1.247481193E1
8.271495000E0,-3.008144531E0,-2.555785217E0,1.247221390E1,1.308193759E1
8.281434000E0,-2.724185028E0,-2.415975952E0,1.347168549E1,1.395508630E1
8.291373000E0,-2.062111816E0,-2.101180573E0,1.409977936E1,1.440385514E1
8.301313000E0,-1.418001251E0,-1.822759552E0,1.457893295E1,1.476070683E1
8.311252000E0,-3.909869385E-1,-1.476080475E0,1.455228836E1,1.463218305E1
8.321191000E0,1.237177277E0,-1.355281677E0,1.371253464E1,1.383477511E1
8.331130000E0,2.543510742E0,-1.674567719E0,1.276575348E1,1.312395085E1
8.341070000E0,2.991828461E0,-2.419119415E0,1.202644089E1,1.262689418E1
8.351009000E0,4.595892792E0,-2.878214722E0,1.105002136E1,1.230891233E1
8.360948000E0,4.560266876E0,-3.158132629E0,1.079869400E1,1.214008352E1
8.370887000E0,3.636837158E0,-2.546354828E0,1.093640762E1,1.180319953E1
8.380827000E0,2.227667542E0,-1.380579071E0,1.124641296E1,1.154774029E1
8.390766000E0,9.503736877E-1,-3.917353821E-1,1.177451477E1,1.181930052E1
8.400705000E0,3.252735901E-1,1.478924561E-1,1.162931671E1,1.163480478E1
8.410644000E0,6.765930176E-2,3.579057312E-1,1.116438354E1,1.117032382E1
8.420584000E0,3.008743286E-2,3.707789612E-1,1.089688980E1,1.090323758E1
8.430523000E0,9.190887451E-2,3.466790771E-1,1.065394501E1,1.065998020E1
8.440462000E0,-3.203338623E-2,-1.005908203E-1,1.025113266E1,1.025167623E1
8.450401000E0,-4.715194702E-2,-1.820214844E-1,9.926457825E0,9.928238518E0
8.460341000E0,-3.891906738E-2,-6.098318481E-1,9.386081543E0,9.405952174E0
8.470280000E0,-4.016148376E-1,-1.058299255E0,9.229656830E0,9.298809439E0
8.480219000E0,-7.048841858E-1,-7.921527100E-1,8.732989655E0,8.797128846E0
8.490158000E0,-1.181193695E0,-9.833052063E-1,8.178542633E0,8.321698581E0
8.500098000E0,-1.471290436E0,-1.060993652E0,7.684869232E0,7.896050797E0
8.510037000E0,-1.540895691E0,-9.849517822E-1,7.078480225E0,7.310907730E0
8.519976000E0,-1.400936737E0,-9.837542725E-1,6.642586670E0,6.859617619E0
8.529915000E0,-1.079555054E0,-1.024319916E0,6.389612732E0,6.560626591E0
8.539855000E0,-7.129673767E-1,-8.156538391E-1,6.301146698E0,6.393595497E0
8.549794000E0,-4.227209473E-1,-6.999444580E-1,6.232589264E0,6.285999060E0
8.559733000E0,-2.917433167E-1,-5.581892395E-1,6.374045105E0,6.405087071E0
8.569672000E0,-3.040177917E-1,-9.580078125E-2,6.368656311E0,6.376628248E0
8.579612000E0,-6.147715759E-1,-6.990463257E-2,6.903643799E0,6.931315059E0
8.589551000E0,-7.756869507E-1,7.140151978E-2,7.304210815E0,7.345630270E0
8.599490000E0,-9.768685913E-1,1.475930786E-1,7.685018921E0,7.748262500E0
8.609429000E0,-1.124461670E0,1.034349060E-1,8.049361267E0,8.128181201E0
8.619369000E0,-1.364861755E0,1.062789917E-2,8.259524231E0,8.371541142E0
8.629308000E0,-1.590592346E0,-1.748364258E-1,8.384065247E0,8.535402852E0
8.639247000E0,-1.823957062E0,-2.454895020E-1,8.297694855E0,8.499342584E0
8.649187000E0,-1.963616638E0,-1.314266968E-1,8.359665985E0,8.588194144E0
8.659126000E0,-2.141147461E0,1.155596924E-1,8.602760468E0,8.865966059E0
8.669065000E0,-2.136656799E0,1.017883301E-1,8.483907623E0,8.749420078E0
8.679004000E0,-2.274370422E0,2.067201233E-1,8.524024200E0,8.824651982E0
8.688944000E0,-2.216141510E0,4.912783813E-1,8.610394592E0,8.904579309E0
8.698883000E0,-2.282902679E0,7.536827087E-1,8.888815613E0,9.208187947E0
8.708822000E0,-2.261197815E0,8.565188599E-1,9.379195862E0,9.685863675E0
8.718761000E0,-2.305056610E0,9.604028320E-1,9.877210236E0,1.018798025E1
8.728700792E0,-2.399809570E0,1.095272369E0,1.055904236E1,1.088356941E1
8.738639792E0,-2.546803894E0,1.102457428E0,1.118369339E1,1.152287379E1
8.748578792E0,-2.733914795E0,8.283773804E-1,1.152483398E1,1.187359666E1
8.758517792E0,-3.191213837E0,-2.234852600E-1,1.169293442E1,1.212264438E1
8.768457792E0,-3.531905365E0,-9.331594849E-1,1.153546188E1,1.210008359E1
8.778396792E0,-3.531605988E0,-1.025367737E0,1.136676270E1,1.194683699E1
8.788335792E0,-3.158731384E0,-6.471043396E-1,1.143142822E1,1.187745255E1
8.798274792E0,-2.806064758E0,-1.901046753E-2,1.133712433E1,1.167924436E1
8.808214792E0,-2.928510132E0,2.812651062E-1,1.151854706E1,1.188832234E1
8.818153792E0,-3.708388367E0,1.402583313E-1,1.214828751E1,1.270246850E1
8.828092792E0,-4.614603882E0,-1.028361511E-1,1.303175034E1,1.382503747E1
8.838031792E0,-4.979544983E0,-3.911366272E-1,1.360984818E1,1.449747645E1
8.847971792E0,-4.972210236E0,-8.554710388E-1,1.421593781E1,1.508468074E1
8.857910792E0,-3.771856384E0,-1.356928253E0,1.475930786E1,1.529396363E1
8.867849792E0,-1.657652893E0,-1.956880646E0,1.442041260E1,1.464668886E1
8.877788792E0,4.134402466E-1,-2.660118256E0,1.333007996E1,1.359919827E1
8.887728792E0,2.941383362E0,-3.270399170E0,1.244961090E1,1.320378955E1
8.897667792E0,5.834267578E0,-3.252137146E0,1.148935776E1,1.328986139E1
8.907606792E0,7.242239685E0,-2.557880859E0,1.106918152E1,1.347291986E1
8.917545792E0,8.107889557E0,-2.353855133E0,1.153142029E1,1.429168153E1
8.927485792E0,5.524411926E0,-1.753902740E0,1.204979233E1,1.337134238E1
8.937424792E0,2.562371521E0,-1.619482269E0,1.194201645E1,1.232072350E1
8.947363792E0,4.522096252E-1,-2.025587769E0,1.279239807E1,1.295966619E1
8.957302792E0,-1.184037781E-1,-2.645897827E0,1.264016464E1,1.291466441E1
8.967242792E0,2.409988403E-2,-3.189118195E0,1.128218857E1,1.172428397E1
8.977181792E0,1.413061523E-1,-3.449726257E0,1.051787796E1,1.107006484E1
8.987120792E0,2.360591125E-1,-2.881956940E0,1.013093262E1,1.053552065E1
8.997059792E0,1.318757629E-1,-2.753673706E0,9.923913116E0,1.029971658E1
9.006999792E0,-6.421646118E-2,-2.662064209E0,9.610614624E0,9.972693872E0
9.016938792E0,-5.965095520E-1,-2.420616302E0,9.299711151E0,9.628075323E0
9.026877792E0,-1.085542603E0,-2.035766602E0,9.200168152E0,9.485032547E0
9.036817792E0,-1.569186859E0,-1.878593445E0,9.003177795E0,9.329987736E0
9.046756792E0,-1.687890015E0,-1.754351807E0,8.372239838E0,8.719009282E0
9.056695792E0,-2.347867584E0,-1.946552124E0,7.696245575E0,8.278510936E0
9.066634792E0,-2.653382263E0,-2.073188782E0,7.308402100E0,8.046818651E0
9.076574792E0,-2.477498016E0,-2.118993530E0,6.973997498E0,7.698361585E0
9.086513792E0,-2.235301666E0,-2.169139252E0,6.505322113E0,7.212555333E0
9.096452792E0,-1.920057220E0,-2.110461273E0,6.234834595E0,6.856663105E0
9.106391792E0,-1.635948029E0,-2.176024933E0,5.966293030E0,6.558053292E0
9.116331792E0,-1.432071991E0,-2.177821198E0,5.921386414E0,6.469664011E0
9.126270792E0,-1.321302338E0,-2.065404968E0,6.092031555E0,6.566931248E0
9.136209792E0,-1.365310822E0,-1.917362823E0,6.214626617E0,6.645444893E0
9.146148792E0,-1.509011993E0,-1.956431580E0,6.515201569E0,6.967969087E0
9.156088792E0,-1.522184601E0,-1.813329163E0,7.009922791E0,7.398934122E0
9.166027792E0,-1.764979706E0,-1.764830017E0,7.320526886E0,7.734332049E0
9.175966792E0,-1.872605896E0,-1.658401337E0,7.636220398E0,8.035471971E0
9.185905792E0,-1.886526947E0,-1.591939545E0,7.743547211E0,8.127470630E0
9.195845792E0,-1.935475159E0,-1.471889191E0,7.776329041E0,8.147626355E0
9.205784792E0,-2.015558624E0,-1.291963348E0,7.750283203E0,8.111629651E0
9.215723792E0,-2.047891388E0,-1.086291046E0,7.771988068E0,8.110344376E0
9.225662792E0,-2.133812714E0,-1.087189178E0,7.685617676E0,8.050084227E0
9.235602792E0,-2.182311859E0,-1.193767548E0,7.815846863E0,8.202135587E0
9.245541792E0,-2.266885986E0,-1.107846222E0,7.889793091E0,8.283412965E0
9.255480792E0,-2.336341553E0,-1.108444977E0,8.069120178E0,8.473360760E0
9.265419792E0,-2.479893036E0,-1.287921753E0,8.516240387E0,8.962977309E0
9.275359792E0,-2.611918488E0,-1.394500122E0,9.231453094E0,9.694662192E0
9.285298792E0,-2.821033630E0,-1.360071716E0,9.814191284E0,1.030176569E1
9.295237792E0,-2.974015503E0,-1.296304321E0,1.039258850E1,1.088719747E1
9.305176792E0,-2.985541534E0,-9.949809265E-1,1.101753891E1,1.145816778E1
9.315116792E0,-2.956651611E0,-5.324427795E-1,1.144669647E1,1.183436286E1
9.325055792E0,-3.098556519E0,-4.297563171E-1,1.163335831E1,1.204660817E1
9.334994792E0,-3.229683838E0,-1.013392639E0,1.182630707E1,1.230119349E1
9.344933792E0,-2.946023712E0,-1.684896240E0,1.218451218E1,1.264833064E1
9.354873792E0,-2.733465729E0,-1.935175781E0,1.290197021E1,1.332957522E1
9.364812792E0,-2.550546112E0,-1.808539124E0,1.415321823E1,1.449447086E1
9.374751792E0,-2.393223267E0,-1.536854095E0,1.501482651E1,1.528183409E1
9.384690792E0,-2.076182556E0,-1.417701874E0,1.562765213E1,1.582857933E1
9.394630792E0,-1.575324097E0,-1.327289886E0,1.550670364E1,1.564292819E1
9.404569792E0,-7.036866760E-1,-1.856289825E0,1.477637238E1,1.490913034E1
9.414508792E0,7.804769897E-1,-2.703977051E0,1.399963760E1,1.427972301E1
9.424447792E0,2.551893311E0,-3.415447540E0,1.219738541E1,1.292105461E1
9.434387792E0,3.788471832E0,-4.401147766E0,1.094628708E1,1.239128005E1
9.444326792E0,3.994443512E0,-4.710105286E0,1.002719833E1,1.177647558E1
9.454265792E0,3.404220886E0,-4.088298340E0,9.502090302E0,1.089002402E1
9.464205792E0,2.429597626E0,-2.407743073E0,9.905202026E0,1.047917929E1
9.474144792E0,1.495390320E0,-1.129551086E0,1.065604065E1,1.081957856E1
9.484083792E0,6.526428223E-1,-1.537303162E-1,1.104388412E1,1.106421946E1
9.494022792E0,-1.681004333E-1,1.739382935E-1,1.147753235E1,1.148008106E1
9.503962792E0,-5.593867493E-1,6.066883850E-1,1.111917755E1,1.114975756E1
9.513901792E0,-6.954537964E-1,3.290158081E-1,1.113923584E1,1.116577281E1
9.523840792E0,-3.826043701E-1,-2.694396973E-2,1.084479813E1,1.085157862E1
9.533779792E0,-1.841171265E-1,-6.926097107E-1,1.041773621E1,1.044235773E1
9.543719792E0,-6.556365967E-2,-8.002359009E-1,9.631720734E0,9.665129093E0
9.553658792E0,1.317260742E-2,-1.226549377E0,9.308243408E0,9.388716219E0
9.563597792E0,8.562194824E-2,-1.636247406E0,9.117539978E0,9.263593900E0
9.573536792E0,-3.980223083E-1,-1.550475769E0,8.519383850E0,8.668465727E0
9.583476792E0,-8.481362915E-1,-1.406325531E0,8.015232239E0,8.181750088E0
9.593415792E0,-1.098864899E0,-1.289268951E0,7.708070984E0,7.892026152E0
9.603354792E0,-1.358425140E0,-1.259181519E0,7.392676849E0,7.621189406E0
9.613293792E0,-1.309177551E0,-1.120869141E0,7.221882019E0,7.424680019E0
9.623233792E0,-1.097817078E0,-8.090675354E-1,6.857839050E0,6.992120498E0
9.633172792E0,-9.394464111E-1,-5.387297058E-1,6.719077606E0,6.805791147E0
9.643111792E0,-7.231462097E-1,-5.942642212E-2,7.087611237E0,7.124654727E0
9.653050792E0,-6.246510315E-1,3.179388428E-1,7.261998596E0,7.295745173E0
9.662990792E0,-7.206015015E-1,4.752616882E-1,7.385791168E0,7.436064240E0
9.672929792E0,-8.473878479E-1,7.276368713E-1,7.504045258E0,7.586713176E0
9.682868792E0,-1.069825287E0,7.792794800E-1,7.689060516E0,7.802144210E0
9.692807792E0,-1.168470154E0,6.840774536E-1,7.692353668E0,7.810607494E0
9.702747792E0,-1.562600555E0,4.640350342E-1,7.682174835E0,7.853206938E0
9.712686792E0,-1.749112701E0,2.809657288E-1,7.644303589E0,7.846892018E0
9.722625792E0,-1.918859711E0,9.325607300E-2,7.621999969E0,7.860381849E0
9.732564542E0,-2.046544189E0,2.469863892E-2,7.481442261E0,7.756347816E0
9.742504542E0,-2.056273956E0,6.376739502E-2,7.361092529E0,7.643167674E0
9.752443542E0,-2.033221893E0,2.215393066E-1,7.146289215E0,7.433203917E0
9.762382542E0,-1.997446289E0,5.081932068E-1,7.100035400E0,7.393142410E0
9.772321542E0,-2.091151428E0,5.763015747E-1,7.221882019E0,7.540597967E0
9.782261542E0,-2.159259796E0,7.147636414E-1,7.688611450E0,8.017982038E0
9.792200542E0,-2.453697510E0,9.524693298E-1,8.319549408E0,8.725980268E0
9.802139542E0,-2.803819427E0,1.209335175E0,9.115294647E0,9.613141602E0
9.812078542E0,-3.107388153E0,1.476529541E0,9.880204010E0,1.046204721E1
9.822018542E0,-3.350632324E0,1.470092926E0,1.075588303E1,1.136120283E1
9.831957542E0,-3.507057037E0,1.100810852E0,1.148561554E1,1.205946093E1
9.841896542E0,-3.672163696E0,2.499801636E-1,1.174562485E1,1.230881714E1
9.851835542E0,-3.676804047E0,-6.333329773E-1,1.160252243E1,1.218763822E1
9.861775542E0,-3.350632324E0,-9.666897583E-1,1.152184021E1,1.203802425E1
9.871714542E0,-3.007695465E0,-9.964778137E-1,1.146914978E1,1.189876450E1
9.881653542E0,-2.722239075E0,-7.173083496E-1,1.153650970E1,1.187502307E1
9.891592542E0,-2.833158417E0,-4.637356567E-1,1.210038712E1,1.243628585E1
9.901532542E0,-3.428769836E0,-5.611830139E-1,1.279988251E1,1.326304570E1
9.911471542E0,-4.249962158E0,-9.355545044E-1,1.370415207E1,1.437849869E1
9.921410542E0,-4.755311279E0,-1.413061523E0,1.416983368E1,1.501312475E1
9.931350542E0,-4.485871582E0,-1.988764343E0,1.462728241E1,1.542840297E1
9.941289542E0,-3.120111694E0,-2.646197205E0,1.501377869E1,1.556120198E1
9.951228542E0,-3.367996216E-1,-3.720363464E0,1.454285797E1,1.501496774E1
9.961167542E0,2.831362152E0,-4.419260101E0,1.333187622E1,1.432778402E1
9.971107542E0,3.552412720E0,-4.368815002E0,1.256053024E1,1.376492283E1
9.981046542E0,6.379733276E0,-4.497846680E0,1.252610184E1,1.475922927E1
9.990985542E0,6.423442383E0,-3.933520203E0,1.231174759E1,1.443302885E1
1.000092454E1,3.417992249E0,-2.800675964E0,1.195938034E1,1.274963666E1
1.001086454E1,1.840722198E0,-2.717748413E0,1.225366837E1,1.268569285E1
1.002080354E1,3.534150696E-1,-3.157084808E0,1.214259933E1,1.255128700E1
1.003074254E1,-1.968406677E-1,-3.219654694E0,1.185624481E1,1.228720732E1
1.004068154E1,-4.189787292E-1,-3.391946411E0,1.089718918E1,1.142057685E1
1.005062154E1,-6.897656250E-1,-3.472179565E0,9.926757202E0,1.053908516E1
1.006056054E1,-8.668473816E-1,-3.424279175E0,9.424401855E0,1.006461438E1
1.007049954E1,-1.002165985E0,-3.253334656E0,9.392518158E0,9.990391403E0
1.008043854E1,-1.002165985E0,-3.034789124E0,9.678273926E0,1.019231416E1
1.009037854E1,-8.409512329E-1,-2.736309814E0,9.391919403E0,9.818489724E0
1.010031754E1,-8.455915833E-1,-2.317630463E0,9.202413483E0,9.527373720E0
1.011025654E1,-5.810916138E-1,-2.010020142E0,8.906628571E0,9.149091809E0
1.012019554E1,-4.613406372E-1,-1.801054688E0,8.545878754E0,8.745780517E0
1.013013554E1,-5.855822754E-1,-1.613345032E0,8.264913025E0,8.441242569E0
1.014007454E1,-1.184337158E0,-1.444047089E0,8.129893799E0,8.341648499E0
1.015001354E1,-1.998045044E0,-1.199306030E0,7.948770447E0,8.283324850E0
1.015995254E1,-2.129621429E0,-1.065334625E0,7.710466003E0,8.069790040E0
1.016989254E1,-2.007625122E0,-1.082548828E0,7.677833862E0,8.009469609E0
1.017983154E1,-1.834135895E0,-8.063731384E-1,7.192692719E0,7.466533376E0
1.018977054E1,-1.492546234E0,-5.309458923E-1,6.933581543E0,7.112253568E0
1.019970954E1,-1.267414398E0,-5.453160095E-1,6.628066864E0,6.770153555E0
1.020964954E1,-9.851014709E-1,-8.352630615E-1,6.712191925E0,6.835320748E0
1.021958854E1,-8.026309204E-1,-8.985813904E-1,6.860383759E0,6.965380838E0
1.022952754E1,-7.958949280E-1,-9.071136475E-1,6.897356873E0,7.002130799E0
1.023946654E1,-1.075064392E0,-1.192420349E0,7.054979095E0,7.235354848E0
1.024940654E1,-1.632056122E0,-1.558858337E0,7.246730347E0,7.590042636E0
1.025934554E1,-2.186952209E0,-1.722767487E0,7.435787201E0,7.939875256E0
1.026928454E1,-2.432741089E0,-1.616488495E0,7.580536194E0,8.123779493E0
1.027922354E1,-2.586172028E0,-1.591340790E0,7.786657562E0,8.357792009E0
1.028916354E1,-2.653981018E0,-1.454824677E0,7.887996826E0,8.448705464E0
1.029910254E1,-2.738704834E0,-1.413959656E0,7.814649353E0,8.400507758E0
1.030904154E1,-2.735411682E0,-1.336121521E0,7.715256042E0,8.294146948E0
1.031898054E1,-2.809357910E0,-1.406026154E0,7.751630402E0,8.364040608E0
1.032892054E1,-2.707868958E0,-1.407073975E0,7.976762238E0,8.540558955E0
1.033885954E1,-2.648891602E0,-1.280736694E0,8.204588470E0,8.716202451E0
1.034879854E1,-2.680026855E0,-1.308728485E0,8.727151794E0,9.222716120E0
1.035873854E1,-2.580932922E0,-1.126407623E0,9.383836212E0,9.797264462E0
1.036867754E1,-2.636317749E0,-8.876541138E-1,9.848020935E0,1.023335807E1
1.037861654E1,-2.713706818E0,-6.926097107E-1,1.036549484E1,1.073719685E1
1.038855554E1,-2.837948456E0,-5.176235962E-1,1.091545120E1,1.129021526E1
1.039849554E1,-3.024161224E0,-6.188131714E-1,1.110690308E1,1.152786957E1
1.040843454E1,-3.188669128E0,-1.058149567E0,1.111139374E1,1.160820236E1
1.041837354E1,-3.143014069E0,-1.715732117E0,1.120494919E1,1.176321217E1
1.042831254E1,-3.117417297E0,-2.432292023E0,1.169068909E1,1.234125384E1
1.043825254E1,-2.990032196E0,-3.040926361E0,1.279973282E1,1.349150421E1
1.044819154E1,-2.766247559E0,-3.115022278E0,1.376223129E1,1.437896031E1
1.045813054E1,-2.249073029E0,-3.290307770E0,1.461336136E1,1.514710484E1
1.046806954E1,-9.729766846E-1,-3.266058197E0,1.473131607E1,1.512036683E1
1.047800954E1,3.062631226E-1,-3.111280060E0,1.494611938E1,1.526958891E1
1.048794854E1,1.698517914E0,-2.736309814E0,1.497530869E1,1.531770951E1
1.049788754E1,2.922522583E0,-2.626737671E0,1.354203918E1,1.410062815E1
1.050782654E1,4.409530334E0,-3.711382141E0,1.264779877E1,1.389910532E1
1.051776654E1,5.228776703E0,-5.026098175E0,1.152004395E1,1.361297841E1
1.052770554E1,4.644391937E0,-5.158423004E0,1.115465378E1,1.313796047E1
1.053764454E1,3.349883881E0,-3.794459381E0,1.081096848E1,1.193719747E1
1.054758354E1,1.930535431E0,-2.360441437E0,1.064750839E1,1.107556255E1
1.055752354E1,7.164102173E-1,-1.130149841E0,1.097068634E1,1.105198810E1
1.056746254E1,-1.293310547E-1,-4.128414917E-1,1.046384033E1,1.047277991E1
1.057740154E1,-6.367758179E-1,9.116043091E-2,1.019410126E1,1.021437683E1
1.058734054E1,-1.038690033E0,3.674858093E-1,1.018197647E1,1.024141434E1
1.059728054E1,-1.099014587E0,4.617897034E-1,1.013153137E1,1.020142200E1
1.060721954E1,-9.412426758E-1,4.578977966E-1,9.927206268E0,9.982235845E0
1.061715854E1,-3.858975220E-1,-1.496887207E-3,9.905800781E0,9.913314696E0
1.062709754E1,-5.089416504E-2,-6.018983459E-1,9.577832794E0,9.596861616E0
1.063703754E1,3.848497009E-1,-8.514294434E-1,9.451794891E0,9.497866500E0
1.064697654E1,3.306623840E-1,-1.059796143E0,9.116941223E0,9.184286730E0
1.065691554E1,2.395019531E-3,-1.246907043E0,8.718469849E0,8.807184534E0
1.066685454E1,-5.587879944E-1,-1.118174744E0,8.422684937E0,8.514938656E0
1.067679454E1,-1.150507507E0,-8.081694031E-1,8.190517731E0,8.310318045E0
1.068673354E1,-1.597627716E0,-2.094145203E-1,7.944878540E0,8.106624685E0
1.069667254E1,-1.836231537E0,7.110214233E-2,7.609875183E0,7.828601540E0
1.070661154E1,-1.857337646E0,9.909393311E-2,7.102580109E0,7.342081921E0
1.071655154E1,-2.307601318E0,3.185375977E-1,6.899003448E0,7.281671417E0
1.072649054E1,-1.661395111E0,5.457650757E-1,6.679410095E0,6.904535644E0
1.073642950E1,-1.413809967E0,4.429289246E-1,6.719526672E0,6.880921694E0
1.074636850E1,-1.804946594E0,6.792874146E-1,6.543492737E0,6.821771089E0
1.075630850E1,-1.422791290E0,9.831555176E-1,6.621181183E0,6.843315723E0
1.076624750E1,-1.211879883E0,7.795788574E-1,6.652466125E0,6.806739425E0
1.077618650E1,-1.674268341E0,7.207511902E-1,6.839427338E0,7.078165233E0
1.078612550E1,-1.782493286E0,8.199948120E-1,7.027586060E0,7.296344265E0
1.079606550E1,-1.962269440E0,8.451425171E-1,7.277117157E0,7.584273290E0
1.080600450E1,-2.245630188E0,7.946974182E-1,7.370522919E0,7.745902596E0
1.081594350E1,-2.498304749E0,9.264234924E-1,7.625442810E0,8.077571736E0
1.082588250E1,-2.723286896E0,1.103654938E0,7.791297913E0,8.326984382E0
1.083582250E1,-2.998115387E0,1.327140198E0,8.000862122E0,8.646605789E0
1.084576150E1,-3.239712982E0,1.315614166E0,8.358917542E0,9.060799264E0
1.085570050E1,-3.340303802E0,1.288969574E0,8.538544006E0,9.258823133E0
1.086563950E1,-3.447331238E0,1.118025055E0,8.729097748E0,9.451519464E0
1.087557950E1,-3.485501862E0,9.045689392E-1,9.050479431E0,9.740541367E0
1.088551850E1,-3.455713806E0,7.255412292E-1,1.009366013E1,1.069347197E1
1.089545750E1,-3.480412445E0,4.610412598E-1,1.057505905E1,1.114260758E1
1.090539750E1,-3.217109985E0,2.821632385E-1,1.098999619E1,1.145466843E1
1.091533650E1,-3.232677612E0,-5.295986938E-1,1.118758530E1,1.165730432E1
1.092527550E1,-3.235970764E0,-1.438658295E0,1.142439285E1,1.196068545E1
1.093521450E1,-3.663032684E0,-2.399659882E0,1.138771912E1,1.220066894E1
1.094515450E1,-3.627855835E0,-2.628084869E0,1.143053009E1,1.227701862E1
1.095509350E1,-3.442840576E0,-2.087708588E0,1.162317947E1,1.230081215E1
1.096503250E1,-3.209326172E0,-9.737251282E-1,1.175535461E1,1.222441316E1
1.097497150E1,-3.443289642E0,-3.110531616E-1,1.225935654E1,1.273753588E1
1.098491150E1,-4.101620636E0,-2.453398132E-1,1.287083496E1,1.351080590E1
1.099485050E1,-4.709506531E0,-7.147636414E-1,1.351898712E1,1.433364405E1
1.100478950E1,-4.822671204E0,-1.891466675E0,1.396565826E1,1.489548302E1
1.101472850E1,-4.060456238E0,-3.228935394E0,1.435200485E1,1.526084440E1
1.102466850E1,-2.379152527E0,-3.494483185E0,1.438448730E1,1.499284011E1
1.103460750E1,5.384303284E-1,-3.595373383E0,1.418031189E1,1.463891602E1
1.104454650E1,2.899919586E0,-3.694167938E0,1.346045883E1,1.425623942E1
1.105448550E1,3.064277802E0,-2.996618500E0,1.295091843E1,1.364169377E1
1.106442550E1,7.114405518E0,-2.684966583E0,1.182466049E1,1.405867729E1
1.107436450E1,7.338489532E0,-2.019600220E0,1.327993423E1,1.530649754E1
1.108430350E1,5.269791412E0,-1.211879883E0,1.334205505E1,1.439617267E1
1.109424250E1,2.752625885E0,-9.596543884E-1,1.256726624E1,1.290093277E1
1.110418250E1,5.084925842E-1,-1.148860931E0,1.280018188E1,1.286169127E1
1.111412150E1,5.538482666E-2,-1.580712891E0,1.268102966E1,1.277928926E1
1.112406050E1,2.230361938E-2,-1.767524414E0,1.130613876E1,1.144348783E1
1.113399950E1,-5.119354248E-2,-1.910626831E0,1.020682480E1,1.038423748E1
1.114393950E1,1.013392639E-1,-2.266736298E0,9.929301910E0,1.018525402E1
1.115387850E1,2.650987244E-1,-2.419418793E0,9.249864807E0,9.564719733E0
1.116381750E1,3.888912964E-1,-2.563718719E0,9.028924255E0,9.393900325E0
1.117375650E1,-5.598358154E-2,-2.584675140E0,8.976832581E0,9.341691652E0
1.118369650E1,-3.333567810E-1,-2.286195831E0,8.679401093E0,8.981638016E0
1.119363550E1,-5.427713013E-1,-2.093995514E0,8.400830383E0,8.674869972E0
1.120357450E1,-6.996450806E-1,-1.890568542E0,8.191116486E0,8.435528551E0
1.121351350E1,-9.499246216E-1,-1.761237488E0,7.496710510E0,7.759186990E0
1.122345350E1,-1.552272034E0,-1.575024719E0,7.251071320E0,7.580784037E0
1.123339250E1,-1.703906708E0,-1.535656586E0,6.858437805E0,7.231853728E0
1.124333150E1,-1.641187134E0,-1.353036346E0,6.390810242E0,6.735477571E0
1.125327050E1,-1.446292419E0,-1.265618134E0,6.119574280E0,6.414260705E0
1.126321050E1,-1.268462219E0,-1.244512024E0,5.971981201E0,6.230759668E0
1.127314950E1,-1.102756805E0,-1.273551636E0,5.938151550E0,6.172491407E0
1.128308850E1,-1.033301239E0,-1.398392029E0,5.998775482E0,6.245680027E0
1.129302750E1,-1.099164276E0,-1.561403046E0,6.185736694E0,6.473753164E0
1.130296750E1,-1.457668762E0,-1.668131104E0,6.534661102E0,6.899946038E0
1.131290650E1,-1.754052429E0,-1.858684845E0,6.951095123E0,7.406020030E0
1.132284550E1,-1.933678894E0,-2.009571075E0,7.464228058E0,7.968198697E0
1.133278550E1,-2.019899597E0,-1.961371307E0,7.869734802E0,8.358211390E0
1.134272450E1,-2.063459015E0,-1.904938660E0,8.159382477E0,8.629146934E0
1.135266350E1,-2.114353180E0,-1.978884888E0,8.190517731E0,8.687407868E0
1.136260250E1,-2.124981079E0,-1.814526672E0,8.265960846E0,8.725489117E0
1.137254250E1,-2.276765442E0,-1.504970398E0,8.286019135E0,8.723915971E0
1.138248150E1,-2.504591675E0,-1.536704407E0,8.210276642E0,8.720268484E0
1.139242050E1,-2.527943115E0,-1.477427673E0,8.157735901E0,8.667291616E0
1.140235950E1,-2.595901794E0,-1.384470978E0,8.029003601E0,8.551044664E0
1.141229950E1,-2.636168060E0,-1.523531799E0,8.205636292E0,8.752313873E0
1.142223850E1,-2.651735687E0,-1.568887482E0,8.494535522E0,9.036052447E0
1.143217750E1,-2.716850281E0,-1.610950012E0,8.888665924E0,9.433176416E0
1.144211650E1,-2.843187561E0,-1.708846436E0,9.600585480E0,1.015751511E1
1.145205650E1,-2.822231140E0,-1.536704407E0,1.036324951E1,1.085004099E1
1.146199550E1,-2.888692932E0,-1.312620392E0,1.101050354E1,1.145856480E1
1.147193450E1,-2.845881958E0,-7.710466003E-1,1.134565659E1,1.172252022E1
1.148187350E1,-2.972069550E0,-5.363346863E-1,1.149384842E1,1.188399780E1
1.149181350E1,-3.218606873E0,-9.740245056E-1,1.141645935E1,1.190141580E1
1.150175250E1,-3.171454926E0,-1.815724182E0,1.117920273E1,1.176135852E1
1.151169150E1,-3.164269867E0,-2.741848297E0,1.106573868E1,1.183135277E1
1.152163050E1,-3.090323639E0,-2.939587097E0,1.176044403E1,1.250996868E1
1.153157050E1,-3.173101501E0,-2.843486938E0,1.265558258E1,1.335356737E1
1.154150950E1,-2.861000519E0,-2.603685608E0,1.364921631E1,1.418681108E1
1.155144850E1,-1.977986755E0,-2.217937775E0,1.481633926E1,1.511143900E1
1.156138750E1,-7.490423584E-1,-1.790576477E0,1.507934235E1,1.520374277E1
1.157132750E1,6.662644958E-1,-1.224902802E0,1.522828262E1,1.529198767E1
1.158126650E1,2.225422211E0,-7.957452393E-1,1.467203934E1,1.486117266E1
1.159120550E1,4.016148376E0,-7.806266785E-1,1.368349503E1,1.428204684E1
1.160114450E1,5.629792786E0,-1.674268341E0,1.252385651E1,1.383274098E1
1.161108450E1,6.293063507E0,-3.154989166E0,1.148756149E1,1.347296085E1
1.162102350E1,4.394711151E0,-3.368295593E0,1.209245361E1,1.329986224E1
1.163096250E1,2.219434662E0,-2.498604126E0,1.183618652E1,1.229895216E1
1.164090150E1,5.059478760E-1,-1.623224487E0,1.161764099E1,1.174139784E1
1.165084150E1,-1.380130005E-1,-8.680448914E-1,1.110630432E1,1.114102981E1
1.166078050E1,-3.161425781E-1,-3.055146790E-1,1.040486298E1,1.041414706E1
1.167071950E1,-4.513114929E-1,-1.414558411E-1,1.007554779E1,1.008664241E1
1.168065850E1,-6.759942627E-1,-1.998344421E-1,1.015503250E1,1.017946890E1
1.169059850E1,-5.830375671E-1,-2.591111755E-1,1.004186783E1,1.006211612E1
1.170053750E1,-2.971321106E-1,-2.188449097E-1,9.937534790E0,9.944384259E0
1.171047650E1,-1.185534668E-1,-2.748284912E-1,9.567504272E0,9.572184893E0
1.172041550E1,3.629951477E-1,-4.114942932E-1,9.335337067E0,9.351449683E0
1.173035525E1,2.052232361E-1,-7.512876892E-1,8.974886627E0,9.008614751E0
1.174029425E1,-2.341131592E-1,-8.045768738E-1,8.537346497E0,8.578370365E0
1.175023325E1,-7.265890503E-1,-8.289761353E-1,8.208330688E0,8.282018219E0
1.176017225E1,-1.152303772E0,-6.674620056E-1,7.694299622E0,7.808684664E0
1.177011225E1,-1.250200195E0,-2.315684509E-1,7.206314392E0,7.317621990E0
1.178005125E1,-1.184786224E0,-1.163081360E-1,6.777605896E0,6.881365247E0
1.178999025E1,-8.412506104E-1,-7.738906860E-2,6.452032928E0,6.507105391E0
1.179992925E1,-6.280938721E-1,2.148033142E-1,6.465804291E0,6.499789804E0
1.180986925E1,-5.399272156E-1,2.845582581E-1,6.295608215E0,6.325122734E0
1.181980825E1,-3.189866638E-1,5.282514954E-1,6.065836029E0,6.097144321E0
1.182974725E1,-4.225712585E-1,6.447093201E-1,6.165678406E0,6.213679005E0
1.183968625E1,-6.318360901E-1,5.387297058E-1,6.642586670E0,6.694281456E0
1.184962625E1,-9.587562561E-1,5.243595886E-1,6.867868195E0,6.954263446E0
1.185956525E1,-1.371897125E0,4.620890808E-1,7.026089172E0,7.173671103E0
1.186950425E1,-1.890418854E0,2.429447937E-1,7.282505951E0,7.527788423E0
1.187944425E1,-2.236948242E0,3.532653809E-2,7.373367004E0,7.705305081E0
1.188938325E1,-2.432142334E0,-3.397933960E-2,7.546107788E0,7.928443333E0
1.189932225E1,-2.577041016E0,3.981719971E-2,7.432643738E0,7.866823930E0
1.190926125E1,-2.536325684E0,4.340972900E-3,7.542365570E0,7.957401913E0
1.191920125E1,-2.730172577E0,-4.939727783E-3,7.607929230E0,8.082973083E0
1.192914025E1,-2.784659271E0,-7.933502197E-3,7.904163208E0,8.380345233E0
1.193907925E1,-3.112178192E0,-7.978408813E-2,8.107889557E0,8.685038380E0
1.194901825E1,-3.414998474E0,-5.358856201E-2,8.437653809E0,9.102696749E0
1.195895825E1,-3.769910431E0,-4.490661621E-3,9.033863983E0,9.788919414E0
1.196889725E1,-4.018992462E0,4.580474854E-2,9.589957581E0,1.039815776E1
1.197883625E1,-4.157304840E0,3.188369751E-2,1.026011398E1,1.107041729E1
1.198877525E1,-4.165986786E0,-1.169068909E-1,1.114297806E1,1.189685140E1
1.199871525E1,-4.125720520E0,-5.342390442E-1,1.145792313E1,1.218979013E1
1.200865425E1,-4.061354370E0,-1.476679230E0,1.148456772E1,1.227071622E1
1.201859325E1,-3.776945801E0,-2.143542480E0,1.140328674E1,1.220225563E1
1.202853225E1,-3.359014893E0,-2.298170929E0,1.150956573E1,1.220797584E1
1.203847225E1,-3.047512665E0,-1.841470642E0,1.141316620E1,1.195569782E1
1.204841125E1,-2.986289978E0,-1.169368286E0,1.173110504E1,1.216158606E1
1.205835025E1,-3.260968781E0,-7.396119690E-1,1.215023346E1,1.260194891E1
1.206828925E1,-3.529959412E0,-7.979905701E-1,1.292711792E1,1.342414914E1
1.207822925E1,-3.822600861E0,-1.434766388E0,1.369262604E1,1.428841628E1
1.208816825E1,-3.833079071E0,-2.533182220E0,1.458761490E1,1.529405165E1
1.209810725E1,-2.946323090E0,-3.424877930E0,1.474299179E1,1.541967625E1
1.210804625E1,-1.218765564E0,-3.379073181E0,1.512035706E1,1.554119437E1
1.211798625E1,7.979905701E-1,-3.100053406E0,1.500973709E1,1.534729056E1
1.212792525E1,2.728376312E0,-2.280357971E0,1.419528076E1,1.463386708E1
1.213786425E1,5.741310883E0,-2.037263489E0,1.295975006E1,1.432020303E1
1.214780325E1,6.875352631E0,-1.127455444E0,1.311886917E1,1.485416971E1
1.215774325E1,5.767506409E0,-2.001338196E-1,1.331780548E1,1.451441100E1
1.216768225E1,3.754342804E0,7.334747314E-3,1.202479431E1,1.259725454E1
1.217762125E1,1.503772888E0,-3.293151855E-1,1.204590042E1,1.214386670E1
1.218756025E1,3.097059631E-1,-9.794132996E-1,1.181822388E1,1.186278145E1
1.219750025E1,-2.288740540E-1,-1.556014252E0,1.098131424E1,1.109336856E1
1.220743925E1,-4.466711426E-1,-1.917213135E0,1.007824219E1,1.026869938E1
1.221737825E1,-4.258644104E-1,-2.391576691E0,9.614656219E0,9.916784448E0
1.222731725E1,-1.787283325E-1,-2.654729462E0,9.524992676E0,9.889641945E0
1.223725725E1,-1.100212097E-1,-2.880160675E0,9.378148041E0,9.811069812E0
1.224719625E1,-3.049159241E-1,-2.995570679E0,9.487121429E0,9.953486345E0
1.225713525E1,-7.381150818E-1,-2.684517517E0,9.570048981E0,9.966809202E0
1.226707525E1,-1.014889526E0,-2.396366730E0,9.231153717E0,9.590973527E0
1.227701425E1,-1.419797516E0,-2.274220734E0,8.949738922E0,9.342683325E0
1.228695325E1,-1.933080139E0,-1.970652008E0,8.896449738E0,9.314885190E0
1.229689225E1,-2.206860809E0,-1.623673553E0,8.629405060E0,9.053904248E0
1.230683225E1,-2.305505676E0,-1.392853546E0,7.883955231E0,8.331395292E0
1.231677125E1,-2.348017273E0,-1.362317047E0,7.508236542E0,7.983903107E0
1.232671025E1,-2.103575592E0,-1.365909576E0,7.249275055E0,7.670901385E0
1.233664925E1,-1.673968964E0,-1.345102844E0,6.991211700E0,7.313584264E0
1.234658925E1,-1.229992218E0,-1.363065491E0,6.625222778E0,6.874911290E0
1.235652825E1,-9.354048157E-1,-1.680704956E0,6.447691956E0,6.728482955E0
1.236646725E1,-6.105802917E-1,-1.884580994E0,6.346352692E0,6.648356662E0
1.237640625E1,-5.640270996E-1,-1.992506561E0,6.349945221E0,6.679072786E0
1.238634625E1,-6.779402161E-1,-2.079176331E0,6.580615540E0,6.934484698E0
1.239628525E1,-8.635542297E-1,-2.008822632E0,6.944209442E0,7.280325477E0
1.240622425E1,-1.160087585E0,-1.901795197E0,7.229665833E0,7.565097238E0
1.241616325E1,-1.366059265E0,-1.834285583E0,7.500901794E0,7.841826908E0
1.242610325E1,-1.677411804E0,-1.863175507E0,7.673941956E0,8.073073669E0
1.243604225E1,-1.889969788E0,-1.856589203E0,7.699389038E0,8.142450542E0
1.244598125E1,-1.973047028E0,-1.843117218E0,7.599396973E0,8.064789520E0
1.245592025E1,-2.187101898E0,-1.900597687E0,7.604486389E0,8.137806801E0
1.246586025E1,-2.288590851E0,-1.881138153E0,7.643405457E0,8.197437149E0
1.247579925E1,-2.288890228E0,-1.894011383E0,7.489375763E0,8.057111574E0
1.248573825E1,-2.277064819E0,-1.864073639E0,7.613916779E0,8.162813451E0
1.249567725E1,-2.439926147E0,-1.946103058E0,7.768245850E0,8.371750133E0
1.250561725E1,-2.609673157E0,-2.063009949E0,7.997119904E0,8.661427757E0
1.251555625E1,-2.857258301E0,-2.189197540E0,8.540789337E0,9.268311247E0
1.252549525E1,-3.028053131E0,-2.047741699E0,9.273964691E0,9.968388682E0
1.253543425E1,-3.373534698E0,-2.015858002E0,9.987680511E0,1.073304159E1
1.254537425E1,-3.574566650E0,-1.632355499E0,1.066936295E1,1.137002273E1
1.255531325E1,-3.798650665E0,-1.137185211E0,1.124746078E1,1.192595116E1
1.256525225E1,-3.907474365E0,-6.378236389E-1,1.152902527E1,1.218989740E1
1.257519125E1,-3.882626038E0,-5.884263611E-1,1.145103745E1,1.210567177E1
1.258513125E1,-3.687431946E0,-1.054107971E0,1.137649246E1,1.200553534E1
1.259507025E1,-3.594774628E0,-1.899400177E0,1.147214355E1,1.217128602E1
1.260500925E1,-3.504512329E0,-2.508483582E0,1.201177139E1,1.276153394E1
1.261494825E1,-3.460653534E0,-2.650238800E0,1.304686890E1,1.375575067E1
1.262488825E1,-3.257825317E0,-2.500699768E0,1.422042847E1,1.480160501E1
1.263482725E1,-2.561024323E0,-2.281555481E0,1.503353760E1,1.541984415E1
1.264476625E1,-1.468596039E0,-2.057621155E0,1.551373901E1,1.571835479E1
1.265470525E1,2.375559998E-1,-1.728006592E0,1.553843765E1,1.563603160E1
1.266464525E1,1.291214905E0,-1.541045380E0,1.409618683E1,1.423883913E1
1.267458425E1,3.529660034E0,-2.222877502E0,1.301318893E1,1.366538586E1
1.268452325E1,5.112019501E0,-2.997217255E0,1.210113556E1,1.347418036E1
1.269446325E1,6.239624634E0,-3.754492493E0,1.063179108E1,1.288658647E1
1.270440225E1,5.073848877E0,-3.208727417E0,1.091021210E1,1.245281503E1
1.271434125E1,2.955005035E0,-1.834584961E0,1.114672028E1,1.167677737E1
1.272428025E1,8.833131409E-1,-8.634045410E-1,1.154474258E1,1.161063266E1
1.273422100E1,-2.634521484E-2,-2.237846375E-1,1.140313705E1,1.140536314E1
1.274416000E1,-3.683839417E-1,3.547622681E-2,1.094104797E1,1.094730542E1
1.275409900E1,-6.349795532E-1,5.298980713E-2,1.065484314E1,1.067387883E1
1.276403800E1,-5.574407959E-1,-1.727407837E-1,1.048764084E1,1.050386548E1
1.277397800E1,-5.285508728E-1,-6.399192810E-1,1.049961594E1,1.053236904E1
1.278391700E1,-3.080593872E-1,-1.018332367E0,1.023496628E1,1.029011351E1
1.279385600E1,-3.576063538E-1,-1.088237000E0,9.917476501E0,9.983410351E0
1.280379500E1,-1.438508606E-1,-1.296004944E0,9.517657928E0,9.606567250E0
1.281373500E1,-1.422042847E-1,-1.444346466E0,9.252858582E0,9.365989040E0
1.282367400E1,-6.834786987E-1,-1.291813660E0,8.815168762E0,8.935498082E0
1.283361300E1,-1.259181519E0,-1.086141357E0,8.300538940E0,8.465470326E0
1.284355200E1,-1.626218262E0,-9.502239990E-1,7.684420166E0,7.911878713E0
1.285349200E1,-1.545236664E0,-6.316864014E-1,7.039561157E0,7.234791313E0
1.286343100E1,-1.383123779E0,-3.661386108E-1,6.702462158E0,6.853472686E0
1.287337000E1,-1.086590424E0,-3.384461975E-1,6.382727051E0,6.483396423E0
1.288330900E1,-6.905140686E-1,-1.122665405E-2,6.223308563E0,6.261509817E0
1.289324900E1,-3.490740967E-1,2.474354553E-1,6.178102570E0,6.192901452E0
1.290318800E1,-1.953437805E-1,2.868035889E-1,6.239774323E0,6.249415900E0
1.291312700E1,-7.229965210E-2,3.067121887E-1,6.520590363E0,6.528200233E0
1.292306600E1,-2.332150269E-1,2.395019531E-1,6.735842743E0,6.744132849E0
1.293300600E1,-5.855822754E-1,2.647993469E-1,7.128476257E0,7.157387725E0
1.294294500E1,-1.052760773E0,2.097138977E-1,7.377109222E0,7.454798833E0
1.295288400E1,-1.386117554E0,2.067201233E-1,7.746690674E0,7.872437455E0
1.296282300E1,-1.726809082E0,3.592529297E-3,7.900870056E0,8.087374738E0
1.297276300E1,-1.818568268E0,-9.759704590E-2,8.020022278E0,8.224200451E0
1.298270200E1,-1.957030334E0,-8.592132568E-2,7.985743561E0,8.222496605E0
1.299264100E1,-2.017504578E0,1.227447510E-2,7.913743286E0,8.166872607E0
1.300258000E1,-2.104174347E0,1.047821045E-2,7.939340057E0,8.213451164E0
1.301252000E1,-2.174228668E0,-8.981323242E-4,7.933801575E0,8.226328375E0
1.302245900E1,-2.277064819E0,1.197509766E-3,8.107590179E0,8.421285184E0
1.303239800E1,-2.438878326E0,2.709365845E-2,8.331973572E0,8.681626873E0
1.304233700E1,-2.566562805E0,-1.032852173E-2,8.719517670E0,9.089408105E0
1.305227700E1,-2.701282654E0,5.897735596E-2,9.354796600E0,9.737177504E0
1.306221600E1,-2.748434601E0,9.834548950E-2,1.009186386E1,1.045988914E1
1.307215500E1,-2.858306122E0,-8.966354370E-2,1.068732559E1,1.106331242E1
1.308209400E1,-3.017874298E0,-6.251000977E-1,1.135164413E1,1.176257370E1
1.309203400E1,-3.243155823E0,-1.560953979E0,1.141286682E1,1.196696144E1
1.310197300E1,-3.333567810E0,-2.417023773E0,1.120809265E1,1.194052005E1
1.311191200E1,-3.296445007E0,-2.856210480E0,1.111199249E1,1.193737262E1
1.312185200E1,-3.094514923E0,-2.442021790E0,1.108070755E1,1.176101921E1
1.313179100E1,-2.953208771E0,-1.461860046E0,1.123234222E1,1.170572461E1
1.314173000E1,-3.064876556E0,-8.391549683E-1,1.160686340E1,1.203399050E1
1.315166900E1,-3.531007233E0,-6.453080750E-1,1.205518112E1,1.257822827E1
1.316160900E1,-4.226610718E0,-8.786727905E-1,1.274015671E1,1.345168751E1
1.317154800E1,-4.759801941E0,-1.639241180E0,1.352781876E1,1.443415070E1
1.318148700E1,-4.679119720E0,-2.488574982E0,1.414618286E1,1.510634490E1
1.319142600E1,-3.502716064E0,-3.139122162E0,1.432521057E1,1.507762467E1
1.320136600E1,-1.674717407E0,-3.257376251E0,1.417881500E1,1.464424711E1
1.321130500E1,8.048762512E-1,-2.923720093E0,1.368678818E1,1.401870663E1
1.322124400E1,2.906505890E0,-2.270927582E0,1.308354263E1,1.359352700E1
1.323118300E1,4.081412659E0,-1.504072266E0,1.253014343E1,1.326365927E1
1.324112300E1,6.002667389E0,-1.093625793E0,1.170176605E1,1.319694517E1
1.325106200E1,6.067183228E0,-7.481442261E-1,1.217163895E1,1.362054429E1
1.326100100E1,4.626878357E0,-4.138893127E-1,1.246158600E1,1.329926439E1
1.327094000E1,2.799628143E0,-5.523513794E-1,1.223480759E1,1.256318138E1
1.328088000E1,6.421646118E-1,-1.133442993E0,1.237641312E1,1.244478485E1
1.329081900E1,-7.574249268E-2,-1.727707214E0,1.233060837E1,1.245128957E1
1.330075800E1,-3.171903992E-1,-1.913919983E0,1.138382721E1,1.154795313E1
1.331069700E1,-3.947291565E-1,-1.972897339E0,1.045006897E1,1.064199589E1
1.332063700E1,-2.383044434E-1,-2.282004547E0,9.932145996E0,1.019371659E1
1.333057600E1,1.122665405E-2,-2.456541595E0,9.556726685E0,9.867408351E0
1.334051500E1,1.766326904E-1,-2.376009064E0,9.189839630E0,9.493670028E0
1.335045400E1,-3.132984924E-1,-2.793790283E0,9.271569672E0,9.688417016E0
1.336039400E1,-5.718109131E-1,-2.421963501E0,8.834927673E0,9.178715701E0
1.337033300E1,-9.419911194E-1,-2.333347778E0,8.475525055E0,8.841175492E0
1.338027200E1,-1.454525299E0,-2.156266022E0,8.111182709E0,8.518005162E0
1.339021100E1,-2.004631348E0,-1.763033752E0,7.956853638E0,8.392756083E0
1.340015100E1,-2.149530029E0,-1.533111877E0,7.460635529E0,7.914037773E0
1.341009000E1,-2.217638397E0,-1.497785339E0,6.895859985E0,7.396902454E0
1.342002900E1,-2.026485901E0,-1.349294128E0,6.863826599E0,7.282812323E0
1.342996800E1,-1.712588654E0,-1.244961090E0,6.739435272E0,7.064196756E0
1.343990800E1,-1.360071716E0,-1.272204437E0,6.520590363E0,6.781327147E0
1.344984700E1,-1.012494507E0,-1.432970123E0,6.333928528E0,6.572457615E0
1.345978600E1,-8.110134888E-1,-1.573378143E0,6.280639343E0,6.525311657E0
1.346972500E1,-7.723937988E-1,-1.804198151E0,6.484066315E0,6.774572984E0
1.347966500E1,-7.249424744E-1,-1.996548157E0,6.756499786E0,7.082516184E0
1.348960400E1,-8.729846191E-1,-1.888622589E0,7.101532288E0,7.400051234E0
1.349954300E1,-1.058748322E0,-1.883233795E0,7.406897278E0,7.715545659E0
1.350948300E1,-1.242117004E0,-1.974843292E0,7.649243317E0,7.997110978E0
1.351942200E1,-1.500928802E0,-1.925146637E0,7.879614258E0,8.249078597E0
1.352936100E1,-1.772613831E0,-2.037562866E0,7.848029938E0,8.299722654E0
1.353930000E1,-1.892664185E0,-2.086211700E0,8.022417297E0,8.502566452E0
1.354924000E1,-2.095043335E0,-2.138153687E0,7.949219513E0,8.494174394E0
1.355917900E1,-2.235451355E0,-2.227368164E0,8.067922668E0,8.663128066E0
1.356911800E1,-2.381846924E0,-2.275418243E0,8.078400879E0,8.724178111E0
1.357905700E1,-2.522554321E0,-2.452649689E0,8.173902283E0,8.898957766E0
1.358899700E1,-2.663411407E0,-2.648741913E0,8.295150146E0,9.105993081E0
1.359893600E1,-2.879711609E0,-2.706072693E0,8.525072021E0,9.396404703E0
1.360887500E1,-3.077749786E0,-2.644101562E0,8.882678375E0,9.765541047E0
1.361881400E1,-3.156336365E0,-2.447709961E0,9.344019012E0,1.016191097E1
1.362875400E1,-3.311862946E0,-2.337089996E0,9.750573578E0,1.055955070E1
1.363869300E1,-3.572471008E0,-2.101479950E0,1.008228378E1,1.090097305E1
1.364863200E1,-3.695964203E0,-1.688339081E0,1.047686325E1,1.123722848E1
1.365857100E1,-3.808380432E0,-1.391057281E0,1.099164276E1,1.171558844E1
1.366851100E1,-3.864513702E0,-1.206191711E0,1.108474915E1,1.180089099E1
1.367845000E1,-3.814517670E0,-1.828747101E0,1.091874435E1,1.170956187E1
1.368838900E1,-3.630101166E0,-2.909499664E0,1.098969681E1,1.193382833E1
1.369832800E1,-3.539090424E0,-3.512146454E0,1.191147995E1,1.291292718E1
1.370826800E1,-3.245401154E0,-3.415447540E0,1.337109467E1,1.417688552E1
1.371820700E1,-2.522404633E0,-2.940335541E0,1.467129089E1,1.517415153E1
1.372814600E1,-1.444496155E0,-2.313738556E0,1.551328995E1,1.575125774E1
1.373808487E1,-4.743635559E-1,-1.471440125E0,1.616308868E1,1.623685908E1
1.374802488E1,1.086590424E0,-7.418572998E-1,1.530881516E1,1.536524821E1
1.375796387E1,2.809956665E0,-5.041516113E-1,1.425859909E1,1.454158428E1
1.376790287E1,4.708907776E0,-1.270108795E0,1.254975266E1,1.346414797E1
1.377784188E1,5.212760010E0,-2.195035400E0,1.226534409E1,1.350665439E1
1.378778187E1,4.207450562E0,-2.201322327E0,1.207973007E1,1.297953539E1
1.379772088E1,2.163002014E0,-1.387614441E0,1.130404312E1,1.159247353E1
1.380765987E1,5.054988098E-1,-8.343649292E-1,1.116752701E1,1.121005590E1
1.381759888E1,-4.939727783E-3,-2.085163879E-1,1.093850327E1,1.094049163E1
1.382753887E1,-9.684860229E-2,4.700225830E-2,1.058793228E1,1.058847953E1
1.383747788E1,-2.835104370E-1,-6.601272583E-2,1.034109558E1,1.034519181E1
1.384741688E1,-3.879931641E-1,-1.737886047E-1,1.051817734E1,1.052676568E1
1.385735687E1,-4.120930481E-1,-4.477189636E-1,1.059900925E1,1.061646222E1
1.386729588E1,-5.493576050E-1,-7.011419678E-1,1.052356613E1,1.056119491E1
1.387723487E1,-4.064048767E-1,-1.037642212E0,1.027059219E1,1.033087268E1
1.388717388E1,-3.529660034E-1,-1.275198212E0,9.908944244E0,9.996894094E0
1.389711288E1,-5.411247253E-1,-1.127754822E0,9.553134155E0,9.634677945E0
1.390705288E1,-7.325765991E-1,-8.536747742E-1,9.216633911E0,9.285029335E0
1.391699188E1,-1.174008636E0,-5.791456604E-1,8.779991913E0,8.877047030E0
1.392693087E1,-1.431922302E0,-3.170407104E-1,8.006101227E0,8.139322647E0
1.393687088E1,-1.531764679E0,-3.695814514E-1,7.411687317E0,7.577334780E0
1.394680987E1,-1.357227631E0,-4.406835938E-1,6.897057495E0,7.043129344E0
1.395674888E1,-1.066532135E0,-4.254153442E-1,6.592890015E0,6.692134768E0
1.396668788E1,-7.346722412E-1,-3.531156921E-1,6.394552460E0,6.446296235E0
1.397662788E1,-4.384382629E-1,-2.025288391E-1,6.250252533E0,6.268883694E0
1.398656688E1,-4.101470947E-1,-2.378553772E-1,6.350543976E0,6.368218323E0
1.399650587E1,-3.555107117E-1,-1.904040527E-1,6.417903900E0,6.430562343E0
1.400644488E1,-4.634362793E-1,-4.864883423E-2,6.703060913E0,6.719238461E0
1.401638487E1,-6.770420837E-1,-7.514373779E-2,6.972949677E0,7.006144429E0
1.402632388E1,-9.078620911E-1,-3.150947571E-1,7.190746765E0,7.254676928E0
1.403626288E1,-1.181343384E0,-4.839436340E-1,7.490124207E0,7.598140184E0
1.404620187E1,-1.407223663E0,-5.388793945E-1,7.570956116E0,7.719458915E0
1.405614188E1,-1.544488220E0,-6.533912659E-1,7.666607208E0,7.847880612E0
1.406608087E1,-1.732646942E0,-5.580395508E-1,7.478298798E0,7.696650341E0
1.407601988E1,-1.796264648E0,-7.062313843E-1,7.438182220E0,7.684522379E0
1.408595888E1,-2.091301117E0,-4.234693909E-1,7.700287170E0,7.990449874E0
1.409589888E1,-2.489622803E0,-3.370989990E-1,7.507039032E0,7.916280216E0
1.410583788E1,-2.587818604E0,-3.362008667E-1,7.662415924E0,8.094594118E0
1.411577687E1,-2.849773865E0,-1.669029236E-1,7.880362701E0,8.381478627E0
1.412571588E1,-2.851121063E0,-2.198927307E-1,8.371641083E0,8.846559701E0
1.413565587E1,-2.974314880E0,-1.767823792E-1,8.978928223E0,9.460388631E0
1.414559488E1,-2.886597290E0,-1.249900818E-1,9.561965790E0,9.988956712E0
1.415553387E1,-2.793640594E0,-1.228944397E-1,1.033645523E1,1.070802678E1
1.416547287E1,-2.826123047E0,-3.044668579E-1,1.100945572E1,1.137047874E1
1.417541287E1,-2.962339783E0,-7.912545776E-1,1.149848877E1,1.190028507E1
1.418535187E1,-3.175945587E0,-1.529519348E0,1.160147461E1,1.212519167E1
1.419529088E1,-3.314707031E0,-2.186203766E0,1.148561554E1,1.215261840E1
1.420522987E1,-3.289559326E0,-2.173031158E0,1.149280060E1,1.215021525E1
1.421516988E1,-3.215613098E0,-1.755249939E0,1.142349472E1,1.199655374E1
1.422510887E1,-3.146606598E0,-1.430874481E0,1.136990616E1,1.188374103E1
1.423504788E1,-3.010988617E0,-8.535250854E-1,1.143232635E1,1.185295927E1
1.424498688E1,-3.376827850E0,-6.393205261E-1,1.177735886E1,1.226857281E1
1.425492688E1,-3.907773743E0,-9.482780457E-1,1.235560638E1,1.299349591E1
1.426486588E1,-4.257296906E0,-1.436712341E0,1.309716431E1,1.384645919E1
1.427480487E1,-3.874991913E0,-1.988914032E0,1.343561050E1,1.412398566E1
1.428474488E1,-2.615660706E0,-2.352208557E0,1.350985611E1,1.396032873E1
1.429468387E1,-6.979985046E-1,-2.193538513E0,1.368544098E1,1.387768381E1
1.430462288E1,1.487905884E0,-2.121687927E0,1.336854996E1,1.361739885E1
1.431456188E1,2.710263977E0,-2.224224701E0,1.274135422E1,1.321494660E1
1.432450188E1,3.820205841E0,-2.154170380E0,1.215696945E1,1.292386664E1
1.433444088E1,4.802463226E0,-2.023342438E0,1.207868225E1,1.315492807E1
1.434437987E1,3.597319336E0,-1.454525299E0,1.305899368E1,1.362327663E1
1.435431888E1,2.292033691E0,-9.809101868E-1,1.270483017E1,1.294713532E1
1.436425887E1,4.981640625E-1,-9.165440369E-1,1.258702515E1,1.263017903E1
1.437419788E1,-5.298980713E-2,-1.081201630E0,1.267653900E1,1.272267448E1
1.438413688E1,-1.793270874E-1,-1.362017670E0,1.186313049E1,1.194240828E1
1.439407587E1,-1.814227295E-1,-1.808090057E0,1.089539291E1,1.104589021E1
1.440401588E1,8.038284302E-2,-2.255809021E0,1.053853500E1,1.077756261E1
1.441395487E1,2.811154175E-1,-2.299218750E0,9.986333313E0,1.025145286E1
1.442389388E1,-6.286926270E-3,-2.580483856E0,9.861492920E0,1.019352633E1
1.443383288E1,-6.553372192E-1,-2.777324524E0,9.270222473E0,9.699485712E0
1.444377288E1,-1.062041473E0,-2.543660431E0,9.012458496E0,9.424571535E0
1.445371188E1,-1.473086700E0,-2.476599884E0,8.635991364E0,9.104058339E0
1.446365087E1,-1.631756744E0,-2.241438904E0,8.275391235E0,8.727472631E0
1.447358988E1,-1.625769196E0,-2.087858276E0,7.772586823E0,8.210687156E0
1.448352987E1,-1.573078766E0,-1.920356598E0,7.354955292E0,7.762584210E0
1.449346888E1,-1.454824677E0,-1.770817566E0,7.029382324E0,7.393546209E0
1.450340787E1,-1.214125214E0,-1.657054138E0,6.667285309E0,6.976576656E0
1.451334687E1,-9.069639587E-1,-1.670226746E0,6.431675262E0,6.706615218E0
1.452328688E1,-5.777984619E-1,-1.734742584E0,6.307283936E0,6.566963799E0
1.453322587E1,-4.890330505E-1,-1.731000366E0,6.279142456E0,6.531703114E0
1.454316488E1,-5.683680725E-1,-1.735491028E0,6.489305420E0,6.741369016E0
1.455310387E1,-7.372169495E-1,-1.804796906E0,6.742129669E0,7.018339774E0
1.456304388E1,-7.453001404E-1,-1.794618073E0,6.971752167E0,7.237503340E0
1.457298287E1,-9.036708069E-1,-1.765877838E0,7.181166687E0,7.450107412E0
1.458292188E1,-1.175355835E0,-1.741777954E0,7.420518951E0,7.712285867E0
1.459286088E1,-1.376238098E0,-1.835333405E0,7.501799927E0,7.844710457E0
1.460280087E1,-1.720821533E0,-1.839973755E0,7.577093353E0,7.984927918E0
1.461273988E1,-2.080224152E0,-1.861229553E0,7.596852264E0,8.093433900E0
1.462267887E1,-2.232607269E0,-1.947599945E0,7.637717285E0,8.192216189E0
1.463261888E1,-2.379451904E0,-1.989512787E0,7.577991486E0,8.188156535E0
1.464255787E1,-2.438878326E0,-1.941462708E0,7.581584015E0,8.197427713E0
1.465249688E1,-2.595452728E0,-2.058369598E0,7.714806976E0,8.395922043E0
1.466243588E1,-2.753524017E0,-2.117945709E0,7.951764221E0,8.677450246E0
1.467237588E1,-2.957549744E0,-2.184108124E0,8.229586487E0,9.013518876E0
1.468231488E1,-3.169958038E0,-2.297721863E0,8.443192291E0,9.306753236E0
1.469225387E1,-3.185974731E0,-2.347568207E0,8.895252228E0,9.735862759E0
1.470219288E1,-3.284170532E0,-2.346819763E0,9.319470062E0,1.015607509E1
1.471213287E1,-3.339555359E0,-2.323019257E0,9.781708832E0,1.059390750E1
1.472207188E1,-3.261268158E0,-2.004182281E0,1.016985168E1,1.086639314E1
1.473201088E1,-3.428620148E0,-1.734592896E0,1.049542465E1,1.117668051E1
1.474194937E1,-3.449875946E0,-1.376238098E0,1.076396622E1,1.138677496E1
1.475188938E1,-3.554358673E0,-1.096769257E0,1.094209579E1,1.155706835E1
1.476182837E1,-3.634142761E0,-1.029708710E0,1.097487762E1,1.160668913E1
1.477176738E1,-3.518283691E0,-1.262474670E0,1.105585922E1,1.167065489E1
1.478170638E1,-3.470682678E0,-1.728156281E0,1.154294632E1,1.217668970E1
1.479164638E1,-3.489094391E0,-1.959575043E0,1.261322067E1,1.323280204E1
1.480158538E1,-3.439098358E0,-1.675465851E0,1.395727570E1,1.447204644E1
1.481152437E1,-2.940485229E0,-1.185384979E0,1.535222488E1,1.567617300E1
1.482146338E1,-1.794318695E0,-5.063969421E-1,1.600860992E1,1.611681138E1
1.483140337E1,-4.519102478E-1,-4.282594299E-1,1.533710632E1,1.534973809E1
1.484134238E1,1.641935577E0,-1.040486298E0,1.419438263E1,1.432686506E1
1.485128138E1,4.459077301E0,-2.548300781E0,1.224798019E1,1.328119822E1
1.486122037E1,6.237828369E0,-4.217030640E0,1.153875504E1,1.377812462E1
1.487116038E1,5.818999329E0,-4.475393372E0,1.295930099E1,1.489407202E1
1.488109937E1,3.567830658E0,-3.463198242E0,1.194411209E1,1.293773440E1
1.489103838E1,8.628057861E-1,-1.911524963E0,1.192674820E1,1.210973510E1
1.490097837E1,-1.353186035E-1,-1.023122406E0,1.247341141E1,1.251603303E1
1.491091738E1,-3.393443298E-1,-3.565585327E-1,1.175340866E1,1.176371131E1
1.492085638E1,-2.486329651E-1,2.649490356E-2,1.103849533E1,1.104132689E1
1.493079537E1,-2.965333557E-1,7.858657837E-2,1.103205872E1,1.103632309E1
1.494073538E1,-1.787283325E-1,-1.919009399E-1,1.072444839E1,1.072765413E1
1.495067437E1,6.451583862E-2,-4.129911804E-1,1.043809387E1,1.044646006E1
1.496061338E1,1.094224548E-1,-8.373587036E-1,9.972112885E0,1.000780587E1
1.497055238E1,2.525248718E-1,-1.183888092E0,9.613458710E0,9.689372951E0
1.498049238E1,1.606159973E-1,-1.351539459E0,9.194929047E0,9.295115738E0
1.499043138E1,-2.478845215E-1,-1.397942963E0,8.923992462E0,9.036223366E0
1.500037037E1,-6.620732117E-1,-1.264420624E0,8.481213226E0,8.600469652E0
1.501030938E1,-1.006656647E0,-9.719288635E-1,7.985593872E0,8.107262967E0
1.502024937E1,-1.169667664E0,-7.631130981E-1,7.362589417E0,7.493876631E0
1.503018838E1,-1.195713501E0,-7.170089722E-1,6.845714264E0,6.986246233E0
1.504012737E1,-9.788145447E-1,-6.233038330E-1,6.522686005E0,6.625105154E0
1.505006637E1,-8.029302979E-1,-5.303471375E-1,6.373446350E0,6.445679446E0
1.506000638E1,-5.568420410E-1,-2.309696960E-1,6.111640778E0,6.141300599E0
1.506994537E1,-2.917433167E-1,-8.517288208E-2,6.282136230E0,6.289483620E0
1.507988438E1,-3.059637451E-1,2.426454163E-1,6.426286469E0,6.438140134E0
1.508982337E1,-4.861889648E-1,3.769161987E-1,6.511159973E0,6.540156705E0
1.509976338E1,-5.313949585E-1,5.846841431E-1,6.834487610E0,6.880004145E0
1.510970237E1,-1.145268402E0,5.336402893E-1,7.210505676E0,7.320369101E0
1.511964138E1,-1.326541443E0,3.927832031E-1,7.544161835E0,7.669965361E0
1.512958038E1,-1.672023010E0,4.438270569E-1,7.879913635E0,8.067569789E0
1.513952037E1,-2.081721039E0,2.119592285E-1,7.996670837E0,8.265907916E0
1.514945938E1,-2.114053802E0,2.859054565E-2,8.223598938E0,8.491031763E0
1.515939837E1,-2.311193848E0,-1.481918335E-1,8.160280609E0,8.482556068E0
1.516933738E1,-2.370021515E0,-2.118095398E-1,8.071814575E0,8.415227614E0
1.517927737E1,-2.422113190E0,-1.270857239E-1,7.968978424E0,8.329909976E0
1.518921638E1,-2.518363037E0,1.916015625E-2,8.091573486E0,8.474436912E0
1.519915538E1,-2.646197205E0,1.052311707E-1,8.261021118E0,8.675131305E0
1.520909437E1,-2.907853088E0,1.296304321E-1,8.450377350E0,8.937633411E0
1.521903438E1,-3.153342590E0,2.001338196E-1,8.827592926E0,9.376034338E0
1.522897337E1,-3.260220337E0,3.641926575E-1,9.374405823E0,9.931825485E0
1.523891238E1,-3.305725708E0,4.992118835E-1,9.950857086E0,1.049745644E1
1.524885237E1,-3.252137146E0,5.373825073E-1,1.066187851E1,1.115978626E1
1.525879138E1,-3.277434540E0,3.709286499E-1,1.126632156E1,1.173921491E1
1.526873038E1,-3.323089600E0,-9.639953613E-2,1.134161499E1,1.181881754E1
1.527866937E1,-3.428769836E0,-1.046324158E0,1.114237930E1,1.170486537E1
1.528860938E1,-3.313958588E0,-1.666484528E0,1.110450806E1,1.170767233E1
1.529854837E1,-3.225193176E0,-1.872905273E0,1.087817871E1,1.149975727E1
1.530848738E1,-2.932701416E0,-1.288071442E0,1.072369995E1,1.119185446E1
1.531842638E1,-2.891537018E0,-8.307723999E-1,1.100721039E1,1.141095306E1
1.532836638E1,-3.251388702E0,-6.902146912E-1,1.153396500E1,1.200334426E1
1.533830538E1,-3.853885803E0,-9.104067993E-1,1.219005066E1,1.281712181E1
1.534824437E1,-4.449946289E0,-1.654808807E0,1.316751801E1,1.399728347E1
1.535818338E1,-4.367018738E0,-2.459086304E0,1.382105896E1,1.470168796E1
1.536812337E1,-3.124901733E0,-2.913241882E0,1.422342224E1,1.485118613E1
1.537806238E1,-1.506167908E0,-2.999163208E0,1.428614182E1,1.467505944E1
1.538800138E1,9.669891357E-1,-3.384312286E0,1.318907318E1,1.365065160E1
1.539794037E1,3.577560425E0,-3.320095825E0,1.295256500E1,1.384163701E1
1.540788038E1,6.277944946E0,-2.948718109E0,1.189142166E1,1.376638807E1
1.541781937E1,6.721921692E0,-2.233954468E0,1.352332809E1,1.526614511E1
1.542775838E1,5.483696594E0,-1.198108521E0,1.362302078E1,1.473407912E1
1.543769737E1,3.433709564E0,-6.664141846E-1,1.327110260E1,1.372430812E1
1.544763738E1,1.236578522E0,-6.773414612E-1,1.364742004E1,1.372005801E1
1.545757637E1,1.483415222E-1,-9.174421692E-1,1.342872482E1,1.346084528E1
1.546751537E1,8.457412720E-2,-1.379531250E0,1.302740936E1,1.310052113E1
1.547745438E1,-5.822891235E-2,-1.885030060E0,1.161494659E1,1.176706052E1
1.548739437E1,-1.993853760E-1,-2.049537964E0,1.063852707E1,1.083598720E1
1.549733338E1,-3.838018799E-1,-2.929707642E0,9.678273926E0,1.011926267E1
1.550727237E1,-3.249742126E-1,-3.063529358E0,9.406588898E0,9.898218782E0
1.551721238E1,-5.580395508E-1,-3.034639435E0,9.165290680E0,9.670728922E0
1.552715137E1,-8.357121277E-1,-2.945125580E0,8.885073395E0,9.397696988E0
1.553709038E1,-1.133592682E0,-2.729274445E0,8.474776611E0,8.975288852E0
1.554702938E1,-1.303788757E0,-2.621348877E0,7.967032471E0,8.487929161E0
1.555696938E1,-1.347348175E0,-2.578388214E0,7.515122223E0,8.058566554E0
1.556690838E1,-1.744472351E0,-2.353855133E0,7.331454163E0,7.895190809E0
1.557684737E1,-2.019749908E0,-2.044298859E0,6.675817566E0,7.268086935E0
1.558678638E1,-2.038161621E0,-1.642983398E0,6.155649261E0,6.689208852E0
1.559672637E1,-1.871558075E0,-1.282383270E0,5.984405365E0,6.400026879E0
1.560666538E1,-1.739382935E0,-9.970765686E-1,5.767057343E0,6.105617501E0
1.561660438E1,-1.697919159E0,-9.056167603E-1,5.850583649E0,6.158928496E0
1.562654337E1,-1.593735809E0,-9.759704590E-1,5.824088745E0,6.116577628E0
1.563648338E1,-1.474284210E0,-1.031654663E0,6.056405640E0,6.318059397E0
1.564642237E1,-1.572480011E0,-1.070573730E0,6.167025604E0,6.453760632E0
1.565636138E1,-1.823507996E0,-1.208437042E0,6.583759003E0,6.937678582E0
1.566630038E1,-1.860481110E0,-1.320104828E0,7.032076721E0,7.392845848E0
1.567624038E1,-2.020198975E0,-1.642085266E0,7.290289764E0,7.741186780E0
1.568617938E1,-2.082319794E0,-1.747316437E0,7.538024597E0,8.013175730E0
1.569611837E1,-2.068847809E0,-1.846260681E0,7.714657288E0,8.197850134E0
1.570605738E1,-2.105222168E0,-2.066452789E0,7.895930328E0,8.428991829E0
1.571599737E1,-2.223775635E0,-2.204465790E0,7.960595856E0,8.554293300E0
1.572593638E1,-2.313588867E0,-2.153122559E0,8.105195160E0,8.699587276E0
1.573587579E1,-2.471510468E0,-2.108215942E0,8.043523407E0,8.674745371E0
1.574581479E1,-2.595303040E0,-2.053280182E0,8.108937378E0,8.758220297E0
1.575575479E1,-2.733465729E0,-2.145638123E0,8.183482361E0,8.890724458E0
1.576569379E1,-2.841241608E0,-2.276915131E0,8.511001282E0,9.257112898E0
1.577563279E1,-2.852617950E0,-2.450703735E0,9.051227875E0,9.801433773E0
1.578557179E1,-2.870580597E0,-2.450104980E0,9.491761780E0,1.021453812E1
1.579551179E1,-2.883902893E0,-2.644400940E0,1.002195923E1,1.075869039E1
1.580545079E1,-2.858755188E0,-2.424957275E0,1.079270645E1,1.142520948E1
1.581538979E1,-2.957400055E0,-2.070644073E0,1.121482864E1,1.178160275E1
1.582532979E1,-3.269950104E0,-1.560055847E0,1.160087585E1,1.215346323E1
1.583526879E1,-3.563789062E0,-1.392254791E0,1.172706345E1,1.233543607E1
1.584520779E1,-3.591780853E0,-1.689087524E0,1.180026123E1,1.244990247E1
1.585514679E1,-3.506607971E0,-2.242935791E0,1.151869675E1,1.224775225E1
1.586508679E1,-3.438948669E0,-2.903212738E0,1.149848877E1,1.234788468E1
1.587502579E1,-3.482508087E0,-3.108435974E0,1.219229599E1,1.305535592E1
1.588496479E1,-3.635040894E0,-2.842738495E0,1.307336380E1,1.386389287E1
1.589490379E1,-3.507805481E0,-2.405946808E0,1.391491379E1,1.455053625E1
1.590484379E1,-2.710862732E0,-2.013762360E0,1.469643860E1,1.507943378E1
1.591478279E1,-1.635199585E0,-1.539249115E0,1.486408997E1,1.503277539E1
1.592472179E1,-2.068698120E-1,-9.128018188E-1,1.426473633E1,1.429540852E1
1.593466079E1,2.188449097E0,-5.313949585E-1,1.291020309E1,1.310515296E1
1.594460079E1,3.758384399E0,-1.159788208E0,1.194785431E1,1.257862411E1
1.595453979E1,5.487887878E0,-2.023043060E0,1.059556641E1,1.210271226E1
1.596447879E1,4.790039062E0,-2.560425568E0,1.119836288E1,1.244602686E1
1.597441779E1,3.328927460E0,-2.188299408E0,1.147828079E1,1.214995236E1
1.598435779E1,9.562115479E-1,-1.422342224E0,1.136002670E1,1.148858584E1
1.599429679E1,-2.406994629E-1,-8.674461365E-1,1.202329742E1,1.205695152E1
1.600423579E1,-3.372486877E-1,-4.478686523E-1,1.181403259E1,1.182732806E1
1.601417479E1,-5.526507568E-1,-2.915936279E-1,1.130119904E1,1.131846056E1
1.602411479E1,-7.075785828E-1,-1.986369324E-1,1.102158051E1,1.104605635E1
1.603405379E1,-4.939727783E-1,-3.929328918E-1,1.086500610E1,1.088332500E1
1.604399279E1,-3.294648743E-1,-6.158193970E-1,1.064481400E1,1.066770105E1
1.605393179E1,-1.927990723E-1,-8.358618164E-1,1.007689499E1,1.011334015E1
1.606387179E1,-1.312770081E-1,-9.595046997E-1,9.673783264E0,9.722137911E0
1.607381079E1,-2.276765442E-1,-1.104702759E0,9.261989594E0,9.330415640E0
1.608374979E1,-6.623725891E-1,-9.653425598E-1,8.867110748E0,8.944063770E0
1.609368979E1,-1.246607666E0,-7.482939148E-1,8.376730499E0,8.501975554E0
1.610362879E1,-1.771266632E0,-7.512876892E-1,7.714357910E0,7.950668943E0
1.611356779E1,-1.921853485E0,-8.363108826E-1,7.085066528E0,7.388579324E0
1.612350679E1,-1.578317871E0,-6.283932495E-1,6.594985657E0,6.810271741E0
1.613344679E1,-1.079255676E0,-3.872447205E-1,6.273753662E0,6.377674835E0
1.614338579E1,-7.330256653E-1,-3.733236694E-1,6.131250000E0,6.186188144E0
1.615332479E1,-4.427792358E-1,-2.501298523E-1,6.132148132E0,6.153199096E0
1.616326379E1,-3.167413330E-1,-2.665956116E-1,6.110592957E0,6.124601585E0
1.617320379E1,-3.679348755E-1,-2.134561157E-1,6.105653229E0,6.120452674E0
1.618314279E1,-4.742138672E-1,-4.819976807E-2,6.350543976E0,6.368407242E0
1.619308179E1,-7.188052368E-1,4.266128540E-2,6.741979980E0,6.780324108E0
1.620302079E1,-1.084195404E0,3.652404785E-2,7.064559174E0,7.147363850E0
1.621296079E1,-1.516047363E0,-1.478924561E-1,7.369175720E0,7.524959972E0
1.622289979E1,-1.838925934E0,-1.987866211E-1,7.525750122E0,7.749714808E0
1.623283879E1,-1.839824066E0,-2.165995789E-1,7.691156158E0,7.911115663E0
1.624277779E1,-2.248474274E0,-2.215393066E-1,8.025411072E0,8.337382029E0
1.625271779E1,-2.541714478E0,-2.670446777E-1,7.991880798E0,8.390577098E0
1.626265679E1,-2.573897552E0,-3.535647583E-1,7.830216980E0,8.249985127E0
1.627259579E1,-2.745291138E0,-4.050576782E-1,8.023016052E0,8.489374637E0
1.628253479E1,-2.888243866E0,-3.137475586E-1,8.101902008E0,8.607043994E0
1.629247479E1,-3.050207062E0,-2.424957275E-1,8.297844543E0,8.844025744E0
1.630241379E1,-3.231779480E0,-1.616638184E-1,8.585246887E0,9.174802336E0
1.631235279E1,-3.373534698E0,-1.206491089E-1,9.033863983E0,9.643961377E0
1.632229179E1,-3.445085907E0,-1.080752563E-1,9.685908051E0,1.028091007E1
1.633223179E1,-3.513493652E0,-2.293231201E-1,1.034079620E1,1.092379480E1
1.634217079E1,-3.565585327E0,-5.481600952E-1,1.099523529E1,1.157190897E1
1.635210979E1,-3.661535797E0,-1.130748596E0,1.137903717E1,1.200699478E1
1.636204879E1,-3.687581635E0,-1.831142120E0,1.146435974E1,1.218125133E1
1.637198879E1,-3.574566650E0,-2.319277039E0,1.141840530E1,1.218755728E1
1.638192779E1,-3.439397736E0,-2.267784119E0,1.135119507E1,1.207567518E1
1.639186679E1,-3.287014618E0,-1.628463593E0,1.123144409E1,1.181531613E1
1.640180679E1,-3.185974731E0,-1.027014313E0,1.111004654E1,1.160337569E1
1.641174579E1,-3.333717499E0,-7.291337585E-1,1.139610168E1,1.189606834E1
1.642168479E1,-3.748355255E0,-6.313870239E-1,1.196671509E1,1.255591839E1
1.643162379E1,-4.291126556E0,-1.077609100E0,1.245470032E1,1.321720729E1
1.644156379E1,-4.474495239E0,-1.907932434E0,1.305001236E1,1.392710079E1
1.645150279E1,-3.736978912E0,-2.741848297E0,1.333921097E1,1.412151878E1
1.646144179E1,-2.149679718E0,-3.114722900E0,1.356793533E1,1.408586138E1
