"Time (s)","Acceleration x (m/s^2)","Acceleration y (m/s^2)","Acceleration z (m/s^2)","Absolute acceleration (m/s^2)"
1.701583333E-2,-9.801617432E-1,-5.923781433E0,-1.030008087E0,6.092029232E0
2.701983333E-2,-1.328337708E0,-5.742807770E0,-2.156415710E0,6.276499889E0
3.702383333E-2,-1.243913269E0,-5.167104950E0,-2.042951660E0,5.693851532E0
4.702783333E-2,-1.105750580E0,-4.848267975E0,-1.198707275E0,5.115201446E0
5.703183333E-2,-1.199605408E0,-4.673281860E0,-8.096662903E-1,4.892256737E0
6.703483333E-2,-1.143771515E0,-4.076921997E0,-3.137475586E-1,4.245932616E0
7.703883333E-2,-1.124012604E0,-4.343218231E0,4.161346436E-1,4.505565112E0
8.704283333E-2,-1.112037506E0,-5.232668610E0,1.147364044E0,5.471187480E0
9.704683333E-2,-2.803669739E-1,-2.681329147E1,1.469045105E0,2.685496786E1
1.070508333E-1,-1.660496979E0,-4.729639664E1,7.812254333E-1,4.733198388E1
1.170548333E-1,-1.023436752E1,-3.909674789E1,1.113384705E0,4.042941503E1
1.270588333E-1,-1.242805573E1,-3.056658646E1,4.067491608E0,3.324631205E1
1.370628333E-1,-4.421804810E0,-1.754800873E1,3.676654358E0,1.846625992E1
1.470658333E-1,-3.028202820E-1,-1.136017639E1,5.019062805E-1,1.137528978E1
1.570698333E-1,7.165599060E-1,-8.200397186E0,-2.349514160E0,8.560384857E0
1.670738333E-1,2.568658447E-1,-7.631280670E0,-3.430715790E0,8.370916053E0
1.770778333E-1,-1.061891785E0,-9.721683655E0,-3.148402863E0,1.027381077E1
1.870818333E-1,-4.071533203E-1,-1.152213959E1,-2.076481934E0,1.171483042E1
1.970858333E-1,1.038540344E0,-1.207763443E1,-1.681603088E0,1.223828454E1
2.070898333E-1,1.946402435E0,-1.157093811E1,-2.016456757E0,1.190551087E1
2.170938333E-1,1.943708038E0,-1.129955246E1,-1.900298309E0,1.162191982E1
2.270968333E-1,1.391206970E0,-1.141406433E1,-7.592211914E-1,1.152357315E1
2.371008333E-1,7.894583130E-1,-1.111678253E1,1.522334290E-1,1.114581865E1
2.471048333E-1,7.828720093E-1,-1.068987030E1,1.165925446E0,1.078172518E1
2.571088333E-1,1.521436157E0,-1.001686981E1,1.885479126E0,1.030570135E1
2.671128333E-1,2.125579834E0,-9.172326050E0,2.834505615E0,9.832806155E0
2.771168333E-1,2.646346893E0,-8.553961945E0,2.976260834E0,9.435652886E0
2.871208333E-1,2.383044434E0,-8.794811096E0,1.580114136E0,9.247938347E0
2.971248333E-1,1.347497864E0,-9.109756165E0,1.816622314E0,9.386347772E0
3.071288333E-1,6.840774536E-1,-9.469907227E0,2.030677185E0,9.709312781E0
3.171318333E-1,8.683442688E-1,-1.025442581E1,6.649172974E-1,1.031258384E1
3.271358333E-1,1.387315063E0,-1.111393845E1,-7.767347717E-1,1.122709169E1
3.371398333E-1,1.629960480E0,-1.180774567E1,-1.153201904E0,1.197537071E1
3.471438333E-1,1.327140198E0,-1.216969299E1,-1.004111938E0,1.228295443E1
3.571478333E-1,1.144819336E0,-1.217029175E1,-8.358618164E-1,1.225256208E1
3.671518333E-1,1.583107910E0,-1.196417038E1,-4.481680298E-1,1.207677350E1
3.771558333E-1,1.629062347E0,-1.112726074E1,-3.198847961E-1,1.125042675E1
3.871598333E-1,1.807940369E0,-9.967322845E0,-7.261399841E-1,1.015595650E1
3.971628333E-1,1.659598846E0,-9.117689667E0,-1.265019379E0,9.353438257E0
4.071668333E-1,1.275946655E0,-8.657696228E0,-1.925895081E0,8.960625855E0
4.171708333E-1,1.159339142E0,-8.619675293E0,-2.133962402E0,8.955259066E0
4.271748333E-1,1.324445801E0,-8.739725647E0,-2.035167847E0,9.070770046E0
4.371788333E-1,1.410965881E0,-8.773854675E0,-2.284998322E0,9.175650817E0
4.471828333E-1,1.666783905E0,-8.800948334E0,-2.407294006E0,9.275231781E0
4.571868333E-1,1.287772064E0,-8.992400208E0,-1.788181458E0,9.258467006E0
4.671908333E-1,8.650511169E-1,-9.266031189E0,-2.492915955E0,9.634431866E0
4.771938333E-1,5.372328186E-1,-9.341474304E0,-3.183280334E0,9.883573998E0
4.871978333E-1,3.363505554E-1,-8.904981995E0,-2.366129608E0,9.220108749E0
4.972018333E-1,5.845344543E-1,-8.070617065E0,-1.999541931E0,8.335148966E0
5.072058333E-1,1.672921143E0,-7.053182831E0,-2.107766876E0,7.549088316E0
5.172098333E-1,2.423610077E0,-6.262676697E0,-1.461111603E0,6.872397859E0
5.272138333E-1,2.999911652E0,-5.676046600E0,-1.146465912E0,6.521607088E0
5.372178333E-1,3.400328979E0,-4.958738251E0,-7.487429810E-1,6.059037734E0
5.472218333E-1,3.539090424E0,-4.559518433E0,-4.867877197E-1,5.792351133E0
5.572248333E-1,3.404969330E0,-4.119134216E0,-4.337979126E-1,5.361833964E0
5.672288333E-1,3.101101227E0,-3.774700470E0,-6.959028625E-1,4.934518543E0
5.772328333E-1,2.634820862E0,-3.738475800E0,-1.241218872E0,4.739103983E0
5.872368333E-1,2.203867035E0,-4.009861450E0,-2.035766602E0,5.008029993E0
5.972408333E-1,1.851350098E0,-4.450994110E0,-2.856809235E0,5.603588560E0
6.072448333E-1,1.523382111E0,-4.891977081E0,-3.498524780E0,6.204176695E0
6.172488333E-1,1.480720825E0,-5.323829041E0,-4.244423676E0,6.967842001E0
6.272528333E-1,1.560804291E0,-5.759872284E0,-4.937482452E0,7.745383898E0
6.372568333E-1,1.848955078E0,-6.377038879E0,-5.433401184E0,8.579458501E0
6.472598333E-1,2.042203217E0,-7.262747040E0,-5.779481506E0,9.503709540E0
6.572638333E-1,2.227068787E0,-8.305478668E0,-6.264173584E0,1.063864098E1
6.672678333E-1,2.439477081E0,-9.677375793E0,-7.128027191E0,1.226423346E1
6.772718333E-1,2.440973969E0,-1.135344040E1,-8.458310852E0,1.436669709E1
6.872758333E-1,2.056423645E0,-1.297786240E1,-1.032148636E1,1.670888600E1
6.972798333E-1,1.700613556E0,-1.472562790E1,-1.220741455E1,1.920305115E1
7.072838333E-1,1.566791840E0,-1.646516052E1,-1.319161789E1,2.115597150E1
7.172878333E-1,2.701432343E0,-1.701227280E1,-1.186313049E1,2.091528215E1
7.272908333E-1,4.570745087E0,-1.491378662E1,-9.601932678E0,1.831692805E1
7.372948333E-1,5.216053162E0,-1.101185074E1,-8.828790436E0,1.504711294E1
7.472987083E-1,4.383484497E0,-6.824009399E0,-8.671018524E0,1.187301996E1
7.573027083E-1,2.579436035E0,-3.213816833E0,-7.523953857E0,8.578577420E0
7.673067083E-1,2.136656799E0,-7.036866760E-1,-6.579418030E0,6.953360254E0
7.773107083E-1,2.585423584E0,2.140548706E-1,-4.358935547E0,5.072529320E0
7.873147083E-1,3.042273560E0,2.595602417E-1,-1.974992981E0,3.636398934E0
7.973187083E-1,4.291875000E0,-2.557431793E0,-3.993695068E-1,5.012000039E0
8.073227083E-1,6.292764130E0,-6.772366791E0,-4.662803650E-1,9.256416678E0
8.173257083E-1,8.641380157E0,-1.090617050E1,-7.316784668E-1,1.393389247E1
8.273297083E-1,9.582772522E0,-1.508997025E1,-1.456471252E0,1.793482756E1
8.373337083E-1,8.826694794E0,-1.892529465E1,-4.263583832E0,2.131326971E1
8.473377083E-1,7.315886536E0,-2.112362320E1,-9.543105011E0,2.430638818E1
8.573417083E-1,4.897665253E0,-1.917497543E1,-1.189037384E1,2.308782792E1
8.673457083E-1,-7.454498291E-1,-1.116692825E1,-2.512824554E0,1.147040842E1
8.773497083E-1,-2.480042725E0,-3.129392395E0,8.004155273E0,8.944842666E0
8.873537083E-1,3.688030701E0,-6.490502930E-1,5.858217773E0,6.952808944E0
8.973567083E-1,8.098309479E0,-1.228495331E0,1.479074249E0,8.323429451E0
9.073607083E-1,7.430997162E0,-3.696562958E0,-2.038311310E0,8.546286300E0
9.173647083E-1,2.863994293E0,-6.544390869E0,-2.503094788E0,7.569478098E0
9.273687083E-1,-1.299298096E-1,-8.858279114E0,1.264869690E-1,8.860134850E0
9.373727083E-1,3.248245239E-2,-1.073792038E1,1.456171875E0,1.083625515E1
9.473767083E-1,7.628137207E-1,-1.172481812E1,1.792821808E0,1.188559862E1
9.573807083E-1,1.826202393E0,-1.129850464E1,2.990181885E0,1.182930302E1
9.673847083E-1,2.867437134E0,-1.074794952E1,3.704496460E0,1.172450036E1
9.773887083E-1,2.903063049E0,-1.082893112E1,2.820734253E0,1.156071218E1
9.873917083E-1,1.318607941E0,-1.128578110E1,8.904981995E-1,1.139739308E1
9.973957083E-1,-9.157955933E-1,-1.215652039E1,-1.909579010E0,1.233961756E1
1.007399708E0,-2.367476807E0,-1.377121262E1,-3.504961395E0,1.440610974E1
1.017403708E0,-1.508413239E0,-1.404214920E1,-3.273542633E0,1.449735652E1
1.027407708E0,-5.269042969E-2,-1.290720932E1,-2.376757507E0,1.312432112E1
1.037411708E0,6.333329773E-1,-1.148591492E1,-1.435664520E0,1.159260474E1
1.047415708E0,1.269510040E0,-1.045171555E1,-2.957849121E-1,1.053268733E1
1.057419708E0,1.649120636E0,-9.795779572E0,1.148112488E-1,9.934287992E0
1.067423708E0,1.645228729E0,-9.321116638E0,4.716691589E-1,9.476943851E0
1.077426708E0,1.750908966E0,-8.362809448E0,-2.650987244E-1,8.548247856E0
1.087430708E0,1.422042847E0,-7.956853638E0,-9.580078125E-1,8.139502727E0
1.097434708E0,1.244811401E0,-7.714208221E0,-1.240769806E0,7.911894439E0
1.107438708E0,8.219407654E-1,-7.879314880E0,-1.693278809E0,8.101011216E0
1.117442708E0,3.833528137E-1,-8.188721466E0,-2.032323761E0,8.445854516E0
1.127446708E0,-3.278182983E-2,-8.620274048E0,-1.955533447E0,8.839361423E0
1.137450708E0,-5.146298218E-1,-8.839867401E0,-1.758842468E0,9.027825117E0
1.147454708E0,-8.346643066E-1,-8.864116974E0,-1.537602539E0,9.035123452E0
1.157458708E0,-7.539820862E-1,-8.881181488E0,-1.303788757E0,9.007981946E0
1.167461708E0,-2.110610962E-1,-8.913065186E0,-1.143921204E0,8.988650261E0
1.177465708E0,7.095245361E-1,-8.858728180E0,-1.214574280E0,8.969709065E0
1.187469708E0,1.031654663E0,-8.565188599E0,-1.243613892E0,8.716268845E0
1.197473708E0,1.117575989E0,-8.225993958E0,-8.831634521E-1,8.348408852E0
1.207477708E0,1.195414124E0,-8.069569244E0,-5.854325867E-1,8.178611987E0
1.217481708E0,1.131946106E0,-8.207881622E0,-7.095245361E-1,8.315891280E0
1.227485708E0,9.380992126E-1,-8.584797821E0,-8.632548523E-1,8.678939607E0
1.237489708E0,7.159611511E-1,-8.919052734E0,-1.079704742E0,9.012650242E0
1.247493708E0,5.149291992E-1,-9.094188538E0,-1.365310822E0,9.210509805E0
1.257496708E0,4.879852295E-1,-9.250164185E0,-1.565444641E0,9.394375123E0
1.267500708E0,7.292834473E-1,-9.421258392E0,-1.895807648E0,9.637740953E0
1.277504708E0,8.890013123E-1,-9.736353149E0,-2.198029175E0,1.002088959E1
1.287508708E0,9.451345825E-1,-1.011237122E1,-2.306852875E0,1.041512848E1
1.297512708E0,8.981323242E-1,-1.034304153E1,-2.061962128E0,1.058474552E1
1.307516708E0,3.353027344E-1,-1.053524185E1,-1.541045380E0,1.065263205E1
1.317520708E0,-4.240681458E-1,-1.051623138E1,-9.877958679E-1,1.057103103E1
1.327524708E0,-1.129102020E0,-1.036998550E1,-6.345304871E-1,1.045055499E1
1.337528708E0,-1.844015350E0,-1.031504974E1,-5.322930908E-1,1.049209130E1
1.347531708E0,-2.029629364E0,-1.025532394E1,-4.465214539E-1,1.046376825E1
1.357535708E0,-2.170935516E0,-1.039797729E1,-4.302053833E-1,1.063089693E1
1.367539708E0,-2.425406342E0,-1.073103470E1,-4.215234375E-1,1.100978581E1
1.377543708E0,-2.301613770E0,-1.103250778E1,-3.082090759E-1,1.127424706E1
1.387547708E0,-1.822011108E0,-1.117171829E1,-3.520678711E-1,1.132479430E1
1.397551708E0,-1.318607941E0,-1.125374771E1,-5.936654663E-1,1.134627706E1
1.407555708E0,-4.351451111E-1,-1.144190643E1,-1.052162018E0,1.149841811E1
1.417559708E0,6.268963623E-1,-1.185190384E1,-1.848056946E0,1.201149192E1
1.427563708E0,1.603315887E0,-1.248119522E1,-2.653981018E0,1.286057818E1
1.437566708E0,1.456920319E0,-1.275811935E1,-3.914060669E0,1.342430993E1
1.447570708E0,3.345542908E-1,-1.262040573E1,-4.527035980E0,1.341195818E1
1.457574708E0,-1.453178101E0,-1.293086014E1,-3.095413055E0,1.337536738E1
1.467578708E0,-3.525618439E0,-1.359697495E1,-9.310638428E-1,1.407744980E1
1.477582708E0,-4.516857147E0,-1.392479324E1,8.021818542E-1,1.466101501E1
1.487586708E0,-3.657643890E0,-1.396296387E1,1.774260406E0,1.454272047E1
1.497590708E0,-1.412612457E0,-1.365041382E1,1.525328064E0,1.380782014E1
1.507594708E0,1.412313080E0,-1.298609528E1,-1.472937012E-1,1.306349854E1
1.517598708E0,4.637655945E0,-1.226878693E1,-1.668580170E0,1.322176785E1
1.527602708E0,6.160888367E0,-1.116588043E1,-1.602268066E0,1.285304222E1
1.537605708E0,5.243296509E0,-9.839488678E0,1.685494995E-1,1.115061006E1
1.547609708E0,3.060535583E0,-9.291627960E0,3.056194611E0,1.024897818E1
1.557613708E0,1.755848694E0,-1.083267334E1,4.769531708E0,1.196571139E1
1.567617708E0,2.900668030E0,-1.215562225E1,2.802771606E0,1.280736335E1
1.577621708E0,4.431235199E0,-1.225217148E1,9.000782776E-1,1.305992696E1
1.587625708E0,4.691094818E0,-1.233345245E1,1.863624573E-1,1.319678563E1
1.597629708E0,3.804039459E0,-1.191806625E1,1.522334290E-1,1.251136261E1
1.607633708E0,3.398233337E0,-1.149444717E1,-9.400451660E-2,1.198662348E1
1.617637708E0,3.530408478E0,-1.137439682E1,-6.500981140E-1,1.192741861E1
1.627640708E0,3.779789886E0,-1.127904510E1,-8.140072632E-1,1.192335011E1
1.637644708E0,3.829486542E0,-1.116588043E1,-1.185534668E0,1.186369864E1
1.647648708E0,3.396886139E0,-1.076022400E1,-1.770069122E0,1.142166365E1
1.657652708E0,2.657274170E0,-1.030921188E1,-2.059417419E0,1.084353060E1
1.667656708E0,1.863025818E0,-9.732461243E0,-2.048041077E0,1.011860362E1
1.677660708E0,5.944139099E-1,-9.164542236E0,-1.931283875E0,9.384669398E0
1.687664708E0,-2.203417969E-1,-8.522527313E0,-1.802850952E0,8.713913809E0
1.697668708E0,-5.519023132E-1,-7.981103210E0,-1.639540558E0,8.166437281E0
1.707672708E0,-1.333127747E0,-8.034242706E0,-1.625619507E0,8.304753111E0
1.717675708E0,-8.726852417E-1,-8.161328430E0,-1.591789856E0,8.360780838E0
1.727679708E0,-2.820135498E-1,-8.465196533E0,-1.629062347E0,8.625133513E0
1.737683708E0,6.140231323E-1,-8.501870270E0,-1.900298309E0,8.733267210E0
1.747687708E0,1.524878998E0,-8.105644226E0,-2.239642639E0,8.546503579E0
1.757691708E0,1.436113586E0,-7.799231415E0,-6.640191650E-1,7.958099921E0
1.767695708E0,1.573378143E0,-7.091203766E0,3.385958862E-1,7.271542945E0
1.777699708E0,1.915117493E0,-6.493796082E0,6.252497864E-1,6.799117579E0
1.787703708E0,2.345322876E0,-5.870492249E0,1.002165985E0,6.400590230E0
1.797707708E0,2.860701141E0,-5.398224335E0,1.249002686E0,6.235739306E0
1.807711708E0,2.801424408E0,-5.314398651E0,1.705553284E0,6.244975880E0
1.817714708E0,2.843037872E0,-5.041366425E0,1.030906219E0,5.878861063E0
1.827718708E0,2.423310699E0,-4.710554352E0,6.032455444E-1,5.331572210E0
1.837722708E0,2.259401550E0,-4.423301697E0,3.300636292E-1,4.977894662E0
1.847726708E0,2.248474274E0,-4.298161926E0,-1.419049072E-1,4.852831082E0
1.857730708E0,2.152074738E0,-4.084256744E0,-8.587641907E-1,4.695748584E0
1.867734708E0,2.184856567E0,-4.027824097E0,-1.902244263E0,4.961400851E0
1.877738708E0,2.100282440E0,-3.989803162E0,-2.921175385E0,5.372427871E0
1.887742708E0,1.938319244E0,-4.100572815E0,-3.844455414E0,5.945722524E0
1.897746708E0,2.017205200E0,-4.387077026E0,-4.743336182E0,6.768663072E0
1.907749708E0,1.935774536E0,-5.067861328E0,-5.353168030E0,7.621472919E0
1.917753708E0,1.969155121E0,-6.060297546E0,-5.727389832E0,8.567833596E0
1.927757708E0,2.574795685E0,-7.415878601E0,-6.475384369E0,1.017621889E1
1.937761708E0,3.277584229E0,-9.031468964E0,-7.380402374E0,1.211529320E1
1.947765708E0,4.181554413E0,-1.106828339E1,-8.345744934E0,1.447907984E1
1.957769708E0,4.571792908E0,-1.373109604E1,-1.034648438E1,1.779027902E1
1.967773708E0,3.986809387E0,-1.675031754E1,-1.346914078E1,2.186059331E1
1.977777708E0,3.169958038E0,-1.909040131E1,-1.577689178E1,2.496802696E1
1.987781708E0,2.782264252E0,-1.899340302E1,-1.397359177E1,2.374345424E1
1.997785708E0,3.624263306E0,-1.640902725E1,-1.062789917E1,1.988325176E1
2.007788708E0,4.679119720E0,-1.193378357E1,-9.425898743E0,1.591090565E1
2.017792708E0,4.091292114E0,-7.451504517E0,-9.347761230E0,1.263503980E1
2.027796708E0,2.842139740E0,-4.121529236E0,-9.015901337E0,1.031267368E1
2.037800708E0,1.419647827E0,-1.682201843E0,-7.396868134E0,7.717438771E0
2.047804708E0,1.087787933E0,-3.555107117E-1,-4.639901276E0,4.778949079E0
2.057808708E0,2.300565948E0,-1.134790192E0,-1.498683472E0,2.970926558E0
2.067812708E0,4.112248535E0,-3.947141876E0,-1.556762695E-1,5.702170824E0
2.077816708E0,5.944588165E0,-8.070916443E0,-4.586462402E-1,1.003434986E1
2.087820708E0,6.788682861E0,-1.266606079E1,-5.391787720E-1,1.438075188E1
2.097823708E0,6.064788208E0,-1.628792908E1,-1.805844727E0,1.747396248E1
2.107827708E0,5.450914764E0,-1.805859695E1,-6.080355835E0,1.981908481E1
2.117831708E0,6.737639008E0,-1.785561905E1,-1.078821579E1,2.192269397E1
2.127835708E0,5.254972229E0,-1.420516022E1,-6.178851013E0,1.635785774E1
2.137839708E0,1.278940430E0,-5.663323059E0,9.371711426E0,1.102442251E1
2.147843708E0,3.629053345E0,-9.578581238E-1,1.005099884E1,1.072893741E1
2.157847708E0,8.519832916E0,-1.964814148E0,2.575095062E0,9.114777130E0
2.167851708E0,7.319628754E0,-4.157753906E0,-3.378025360E0,9.070553344E0
2.177855708E0,2.779719543E0,-7.139253845E0,-4.730912018E0,9.004294238E0
2.187858708E0,-1.975891113E-1,-9.613159332E0,-7.979905701E-1,9.648246616E0
2.197862708E0,-2.992277527E-1,-1.094703552E1,1.989662476E0,1.113040344E1
2.207866708E0,3.794609070E-1,-1.119611755E1,3.771257629E0,1.182029708E1
2.217870708E0,1.713786163E0,-1.024679169E1,4.736899567E0,1.141805677E1
2.227874708E0,2.592309265E0,-9.852810974E0,4.055965576E0,1.096580176E1
2.237878708E0,2.819836121E0,-1.013602203E1,2.488275604E0,1.081119484E1
2.247882708E0,1.332678680E0,-1.087458618E1,-2.314187622E-1,1.095838545E1
2.257886708E0,-1.116827545E0,-1.221205490E1,-3.500470734E0,1.275283827E1
2.267890708E0,-2.397414551E0,-1.381731674E1,-3.876638489E0,1.454971355E1
2.277893708E0,-6.286926270E-1,-1.397748367E1,-3.613036652E0,1.445058262E1
2.287897708E0,6.692582703E-1,-1.319461166E1,-2.983894958E0,1.354434615E1
2.297901708E0,1.005159760E0,-1.162153290E1,-1.610650635E0,1.177559207E1
2.307905708E0,1.108295288E0,-1.058883041E1,-4.486170959E-1,1.065612055E1
2.317909708E0,1.175954590E0,-9.872569885E0,6.451583862E-2,9.942568462E0
2.327913708E0,1.247805176E0,-8.972042542E0,-1.426533508E-1,9.059520688E0
2.337917708E0,1.429527283E0,-7.984246674E0,-7.366181946E-1,8.144590202E0
2.347921708E0,1.263073425E0,-7.599696350E0,-5.909710693E-1,7.726576596E0
2.357925708E0,1.492845612E0,-7.700287170E0,-8.997789001E-1,7.895100544E0
2.367929708E0,1.248703308E0,-7.998766479E0,-1.544338531E0,8.241632523E0
2.377932708E0,6.926097107E-1,-8.451874237E0,-1.748513947E0,8.658590379E0
2.387936708E0,8.367599487E-2,-8.602910156E0,-1.741328888E0,8.777772561E0
2.397940708E0,-3.998185730E-1,-8.393345947E0,-1.661844177E0,8.565619484E0
2.407944708E0,-6.851252747E-1,-8.369096375E0,-1.419947205E0,8.516303237E0
2.417948708E0,-5.849835205E-1,-8.161328430E0,-9.318122864E-1,8.235154012E0
2.427952708E0,-1.580712891E-1,-8.163873138E0,-8.117619324E-1,8.205654671E0
2.437956708E0,1.035845947E-1,-8.154442749E0,-7.943980408E-1,8.193700908E0
2.447960708E0,4.902305603E-1,-8.054151306E0,-8.425978088E-1,8.112931057E0
2.457964708E0,9.322613525E-1,-8.161178741E0,-8.725355530E-1,8.260464150E0
2.467967708E0,8.711883545E-1,-8.107141113E0,-8.919950867E-1,8.202460693E0
2.477971708E0,7.388635254E-1,-8.110883331E0,-8.478369141E-1,8.188478195E0
2.487975708E0,7.699987793E-1,-8.283324738E0,-9.012757874E-1,8.367715630E0
2.497979708E0,7.125183105E-1,-8.596772919E0,-1.035546570E0,8.688184140E0
2.507983708E0,7.664062500E-1,-8.989705811E0,-1.177451477E0,9.098823060E0
2.517987708E0,1.049766998E0,-9.349707184E0,-1.084045715E0,9.470701679E0
2.527991708E0,1.283730469E0,-9.730215912E0,-9.785151672E-1,9.863192056E0
2.537995708E0,1.111139374E0,-1.020323227E1,-1.202748871E0,1.033378848E1
2.547999708E0,6.376739502E-1,-1.081051941E1,-1.459165649E0,1.092717358E1
2.558002708E0,-1.098715210E-1,-1.146525787E1,-1.724414063E0,1.159473215E1
2.568006708E0,-9.566606140E-1,-1.176762909E1,-2.017953644E0,1.197766383E1
2.578010708E0,-1.594484253E0,-1.161973663E1,-2.142794037E0,1.192276083E1
2.588014708E0,-1.801054688E0,-1.142259659E1,-1.943708038E0,1.172593330E1
2.598018708E0,-1.571282501E0,-1.127440475E1,-1.573827209E0,1.149165190E1
2.608022708E0,-1.197060699E0,-1.118713623E1,-1.213526459E0,1.131625458E1
2.618026708E0,-1.156345367E0,-1.100481537E1,-8.771759033E-1,1.110011412E1
2.628030708E0,-1.632505188E0,-1.079944244E1,-4.912783813E-1,1.093317816E1
2.638034708E0,-2.330952759E0,-1.039812698E1,-6.286926270E-2,1.065637547E1
2.648038708E0,-1.781894531E0,-1.002016296E1,7.869136047E-1,1.020774446E1
2.658041708E0,3.303630066E-1,-1.009979736E1,1.253343658E0,1.018262819E1
2.668045708E0,1.788630524E0,-1.067759583E1,-8.946894836E-1,1.086327396E1
2.678049708E0,2.801125031E0,-1.172137527E1,-3.658542023E0,1.259451744E1
2.688053708E0,2.603386230E0,-1.291244843E1,-6.345753937E0,1.462113324E1
2.698057708E0,1.131946106E0,-1.328637085E1,-7.315736847E0,1.520950223E1
2.708061708E0,-1.291514282E0,-1.385399048E1,-4.631818085E0,1.466474685E1
2.718065708E0,-3.421584778E0,-1.429093185E1,-1.659898224E0,1.478828042E1
2.728069708E0,-4.419110413E0,-1.401789963E1,-4.760101318E-2,1.469803771E1
2.738073708E0,-3.877686310E0,-1.302157150E1,7.351213074E-1,1.360654912E1
2.748077083E0,-2.579136658E0,-1.249332001E1,1.609303436E0,1.285787106E1
2.758081083E0,-9.669891357E-2,-1.256202713E1,1.649420013E0,1.267021952E1
2.768085083E0,3.355871429E0,-1.210353058E1,1.254840546E0,1.262267604E1
2.778089083E0,5.396727448E0,-1.071846085E1,2.551144867E0,1.226859447E1
2.788093083E0,5.237758026E0,-1.012509476E1,4.087100830E0,1.211016293E1
2.798097083E0,4.507127380E0,-1.082024918E1,3.582649841E0,1.225672751E1
2.808101083E0,4.170926514E0,-1.186208267E1,2.850372620E0,1.289303135E1
2.818105083E0,5.122348022E0,-1.301109329E1,2.512076111E0,1.420695338E1
2.828109083E0,6.320157166E0,-1.385683456E1,1.450932770E0,1.529906718E1
2.838112083E0,5.631139984E0,-1.355341553E1,1.161584473E-1,1.467713537E1
2.848116083E0,4.631668396E0,-1.242102036E1,-5.990542603E-1,1.327000244E1
2.858120083E0,4.597988434E0,-1.146720383E1,-1.361718292E0,1.242950272E1
2.868124083E0,4.527634735E0,-1.128682892E1,-2.382146301E0,1.239219933E1
2.878128083E0,3.972588959E0,-1.154743698E1,-2.853216705E0,1.254055858E1
2.888132083E0,3.778143311E0,-1.140059235E1,-2.662363586E0,1.230187191E1
2.898136083E0,3.613635406E0,-1.085752167E1,-2.624791718E0,1.174025848E1
2.908140083E0,3.498824158E0,-1.011581406E1,-2.387235718E0,1.096678435E1
2.918144083E0,2.624791718E0,-9.218280487E0,-1.660946045E0,9.727536608E0
2.928148083E0,1.355880432E0,-8.408015442E0,-1.326541443E0,8.619329882E0
2.938151083E0,1.737886047E-1,-7.716154175E0,-1.563648376E0,7.874911680E0
2.948155083E0,-1.325343933E0,-7.578739929E0,-1.403631134E0,7.820742664E0
2.958159083E0,-1.682501221E0,-7.890990601E0,-6.306385803E-1,8.092975228E0
2.968163083E0,-1.565444641E0,-8.174351349E0,-4.348457336E-1,8.334250279E0
2.978167083E0,-9.587562561E-1,-8.379574585E0,-7.421566772E-1,8.466834138E0
2.988171083E0,1.462458801E-1,-8.094267883E0,-1.299896851E0,8.199286081E0
2.998175083E0,1.283431091E0,-7.006180573E0,-1.466350708E0,7.272134898E0
3.008179083E0,1.772015076E0,-5.890550537E0,-9.053173828E-1,6.217573693E0
3.018183083E0,1.978435822E0,-5.103337555E0,-2.125579834E-2,5.473455427E0
3.028186083E0,2.461181946E0,-4.413122864E0,7.267387390E-1,5.105019018E0
3.038190083E0,2.787353668E0,-3.952830048E0,1.547631683E0,5.078323511E0
3.048194083E0,2.982547760E0,-3.667523346E0,1.849703522E0,5.076191658E0
3.058198083E0,2.994073792E0,-3.187022552E0,1.443747711E0,4.604997076E0
3.068202083E0,2.619103546E0,-3.109034729E0,1.273551636E0,4.260015739E0
3.078206083E0,2.213147736E0,-3.295097809E0,8.574169922E-1,4.060893543E0
3.088210083E0,1.873653717E0,-3.433859253E0,1.820214844E-1,3.916005547E0
3.098214083E0,1.506317596E0,-3.530707855E0,-5.304968262E-1,3.875089359E0
3.108218083E0,1.231788483E0,-3.838018799E0,-1.167122955E0,4.196411224E0
3.118221083E0,8.692424011E-1,-4.248465271E0,-1.939217377E0,4.750326678E0
3.128225083E0,6.086343384E-1,-4.996908875E0,-2.956352234E0,5.837769487E0
3.138229083E0,6.483018494E-1,-6.038442993E0,-4.490062866E0,7.552731533E0
3.148233083E0,1.010997620E0,-7.166946259E0,-6.541397095E0,9.755875707E0
3.158237083E0,1.184786224E0,-8.179590454E0,-8.936266937E0,1.217235742E1
3.168241083E0,1.606459351E0,-9.809251556E0,-1.063224014E1,1.455495305E1
3.178245083E0,3.181035004E0,-1.253717880E1,-1.206161774E1,1.768565686E1
3.188249083E0,4.580774231E0,-1.580937424E1,-1.431667831E1,2.181483633E1
3.198253083E0,4.905299377E0,-1.959185852E1,-1.677247147E1,2.625297471E1
3.208256083E0,4.031865692E0,-2.184197937E1,-1.474673401E1,2.666072332E1
3.218260083E0,4.407883759E0,-2.043745010E1,-1.000489471E1,2.317793615E1
3.228264083E0,5.433700562E0,-1.588661362E1,-8.131240997E0,1.865547304E1
3.238268083E0,4.788392487E0,-1.041204803E1,-8.007149048E0,1.398048221E1
3.248272083E0,3.029550018E0,-5.684129791E0,-8.674012299E0,1.080398048E1
3.258276083E0,1.437311096E0,-1.610201569E0,-8.118367767E0,8.400387341E0
3.268280083E0,9.560618591E-1,7.229965210E-1,-5.940995636E0,6.060710139E0
3.278284083E0,2.305056610E0,2.920426941E-1,-2.523901520E0,3.430547156E0
3.288288083E0,4.920417938E0,-1.900298309E0,-7.259902954E-2,5.275122460E0
3.298291083E0,8.030051422E0,-6.159241791E0,-3.963757324E-1,1.012793656E1
3.308295083E0,1.064885559E1,-1.190534271E1,-2.977907410E0,1.624817661E1
3.318299083E0,1.054811508E1,-1.702858887E1,-4.020938416E0,2.043045561E1
3.328303083E0,6.383475494E0,-1.942271027E1,-4.893923035E0,2.102239083E1
3.338307083E0,4.505480804E0,-1.703472610E1,-7.939489746E0,1.932658139E1
3.348311083E0,3.043920135E0,-1.079495178E1,-3.743116150E0,1.182401591E1
3.358315083E0,-6.093827820E-1,-2.855012970E0,9.413025513E0,9.855328292E0
3.368319083E0,3.353925476E0,2.278262329E-1,9.721533966E0,1.028634743E1
3.378323083E0,8.219108276E0,-7.677534485E-1,3.242557068E0,8.868898610E0
3.388326083E0,6.716981964E0,-2.590513000E0,-4.496798859E0,8.488215613E0
3.398330083E0,2.385738831E0,-6.493047638E0,-6.918313293E0,9.783377547E0
3.408334083E0,-1.420246582E0,-1.064720901E1,-7.563771057E-1,1.076811341E1
3.418338083E0,-1.806892548E0,-1.361613510E1,2.820434875E0,1.402208432E1
3.428342083E0,-1.072220306E0,-1.476020599E1,3.095413055E0,1.511935578E1
3.438346083E0,8.870553589E-1,-1.357167755E1,3.595223694E0,1.406779770E1
3.448350083E0,2.690205688E0,-1.226654160E1,3.224295044E0,1.296538962E1
3.458354083E0,2.785557404E0,-1.157198593E1,1.043031006E0,1.194814220E1
3.468358083E0,1.200204163E0,-1.155896301E1,-1.028511200E0,1.166653124E1
3.478361083E0,-9.225315857E-1,-1.206685684E1,-2.842139740E0,1.243132563E1
3.488365083E0,-1.607806549E0,-1.189770859E1,-3.597319336E0,1.253320462E1
3.498369083E0,-1.178050232E-1,-1.182900146E1,-2.886597290E0,1.217668254E1
3.508373083E0,1.710493011E0,-1.188363785E1,-2.412982178E0,1.224618789E1
3.518377083E0,3.132535858E0,-1.102008362E1,-1.851948853E0,1.160537541E1
3.528381083E0,3.071163483E0,-1.033810181E1,-7.108717346E-1,1.080804019E1
3.538385083E0,2.527793427E0,-9.651479645E0,-1.496887207E-4,9.977013529E0
3.548389083E0,2.245181122E0,-8.950487366E0,1.682501221E-1,9.229321235E0
3.558393083E0,1.659000092E0,-8.683891754E0,-4.846920776E-1,8.854218413E0
3.568396083E0,9.342073059E-1,-8.231532440E0,-5.108876038E-1,8.300112996E0
3.578400083E0,6.788383484E-1,-8.002808075E0,-7.435038757E-1,8.065888457E0
3.588404083E0,3.586541748E-1,-8.074958038E0,-1.171763306E0,8.167411425E0
3.598408083E0,4.147874451E-1,-8.043523407E0,-1.364412689E0,8.168961954E0
3.608412083E0,4.619393921E-1,-8.012238464E0,-1.563648376E0,8.176450908E0
3.618416083E0,-4.101470947E-2,-7.887098694E0,-1.486708374E0,8.026101781E0
3.628420083E0,-1.239422607E-1,-8.068371735E0,-1.385518799E0,8.187407799E0
3.638424083E0,1.728904724E-1,-8.397088165E0,-1.568887482E0,8.544143532E0
3.648428083E0,5.195695496E-1,-8.637787628E0,-1.765129395E0,8.831591556E0
3.658432083E0,4.948709106E-1,-8.661887512E0,-1.794019318E0,8.859554041E0
3.668435083E0,6.189628601E-1,-8.726553040E0,-1.712738342E0,8.914556388E0
3.678439083E0,5.454656982E-1,-8.596922607E0,-1.485361176E0,8.741333363E0
3.688443083E0,4.343966675E-1,-8.362959137E0,-1.006956024E0,8.434556682E0
3.698447083E0,5.170248413E-1,-8.168812866E0,-5.164260864E-1,8.201433669E0
3.708451083E0,5.860313416E-1,-8.146509247E0,-3.058140564E-1,8.173283788E0
3.718455083E0,5.680686951E-1,-8.155939636E0,-2.106120300E-1,8.178411265E0
3.728459083E0,4.495152283E-1,-8.256380768E0,-2.721340942E-1,8.273085536E0
3.738463083E0,4.263134766E-1,-8.731343079E0,-4.864883423E-1,8.755270758E0
3.748466500E0,6.387217712E-1,-9.288783875E0,-8.449928284E-1,9.348983060E0
3.758469500E0,7.632627869E-1,-9.974358215E0,-1.411265259E0,1.010257697E1
3.768473500E0,4.951702881E-1,-1.080258591E1,-2.140698395E0,1.102377637E1
3.778477500E0,-8.068222046E-2,-1.167721710E1,-3.007845154E0,1.205865006E1
3.788481500E0,-6.448590088E-1,-1.217148926E1,-3.555107117E0,1.269644755E1
3.798485500E0,-9.207353210E-1,-1.195129715E1,-3.469335480E0,1.247868366E1
3.808489500E0,-1.027762756E0,-1.129296616E1,-3.185974731E0,1.177870179E1
3.818493500E0,-1.205143890E0,-1.073777069E1,-2.548899536E0,1.110175572E1
3.828497500E0,-1.885928192E0,-1.076905563E1,-1.574875031E0,1.104579177E1
3.838501500E0,-2.840193787E0,-1.083177521E1,-7.978408813E-1,1.122633533E1
3.848504500E0,-3.469185791E0,-1.072579559E1,-5.852828979E-2,1.127303716E1
3.858508500E0,-3.410058746E0,-1.082219513E1,9.255253601E-1,1.138441941E1
3.868512500E0,-2.752625885E0,-1.095646591E1,1.832040253E0,1.144453870E1
3.878516500E0,-7.885601807E-1,-1.195459030E1,1.343007202E0,1.205560968E1
3.888520500E0,8.292755127E-1,-1.325418777E1,-1.430275726E0,1.335690384E1
3.898524500E0,1.422342224E0,-1.419483170E1,-3.692221985E0,1.473596985E1
3.908528500E0,1.050365753E0,-1.426533508E1,-4.955744476E0,1.513811271E1
3.918532500E0,-2.999761963E-1,-1.396191605E1,-5.156327362E0,1.488666508E1
3.928536500E0,-1.937121735E0,-1.397254395E1,-3.080144806E0,1.443854968E1
3.938540500E0,-1.490450592E0,-1.386132523E1,-7.378157043E-1,1.396073608E1
3.948543500E0,-4.712200928E-1,-1.342857513E1,3.165916443E-1,1.344056951E1
3.958547500E0,1.141226807E0,-1.293145889E1,6.891668701E-1,1.299999918E1
3.968551500E0,4.644691315E0,-1.176418625E1,1.448986816E-1,1.264872449E1
3.978555500E0,6.391259308E0,-1.047686325E1,3.722758484E-1,1.227808814E1
3.988559500E0,5.085674286E0,-9.835896149E0,2.040556641E0,1.125934312E1
3.998563500E0,2.951262817E0,-9.743987274E0,4.432283020E0,1.110407011E1
4.008567500E0,1.595831451E0,-1.134670441E1,5.079986115E0,1.253397933E1
4.018571500E0,3.634891205E0,-1.267369492E1,3.581302643E0,1.366238286E1
4.028575500E0,6.779402161E0,-1.322200470E1,1.435814209E0,1.492793570E1
4.038579500E0,6.868317261E0,-1.334624634E1,-2.421963501E-1,1.501181976E1
4.048582500E0,4.822222137E0,-1.257295441E1,-9.650431824E-1,1.350053026E1
4.058586500E0,4.480183411E0,-1.169742508E1,-1.483415222E0,1.261357672E1
4.068590500E0,4.457580414E0,-1.161180313E1,-1.766027527E0,1.256275640E1
4.078594500E0,3.806733856E0,-1.184412003E1,-1.815574493E0,1.257261757E1
4.088598500E0,3.343297577E0,-1.158875107E1,-2.064506836E0,1.223678792E1
4.098602500E0,2.964734802E0,-1.088820786E1,-2.420466614E0,1.154129028E1
4.108606500E0,2.832559662E0,-1.004411316E1,-2.377356262E0,1.070324372E1
4.118610500E0,2.281256104E0,-9.068741455E0,-2.049388275E0,9.573201831E0
4.128614500E0,9.231303406E-1,-8.228388977E0,-1.410367126E0,8.399267243E0
4.138617500E0,-2.383044434E-1,-7.920030212E0,-9.211843872E-1,7.976982402E0
4.148621500E0,-8.427474976E-1,-7.903714142E0,-1.516197052E0,8.091833790E0
4.158625500E0,-8.505313110E-1,-7.864495697E0,-1.755998383E0,8.102914685E0
4.168629500E0,-5.999523926E-1,-7.962392120E0,-1.090781708E0,8.059121285E0
4.178633500E0,-3.983216858E-1,-8.261619873E0,-5.210664368E-1,8.287613247E0
4.188637500E0,5.200186157E-1,-8.301287384E0,3.736230469E-1,8.325946539E0
4.198641500E0,1.504521332E0,-7.721692657E0,-5.182223511E-1,7.883950554E0
4.208645500E0,1.986968079E0,-6.588399353E0,-6.652166748E-1,6.913578046E0
4.218649500E0,2.767594757E0,-5.454058228E0,1.706451416E-2,6.116095412E0
4.228653500E0,3.043471069E0,-4.865781555E0,2.215393066E-2,5.739254053E0
4.238656500E0,3.150348816E0,-4.454137573E0,6.930587769E-1,5.499488126E0
4.248660500E0,3.241658936E0,-4.136647797E0,1.310674438E0,5.416463342E0
4.258664500E0,3.240012360E0,-3.847149811E0,1.591490479E0,5.275517387E0
4.268668500E0,3.096311188E0,-3.702400818E0,1.615440674E0,5.089652577E0
4.278672500E0,2.773582306E0,-3.711831207E0,1.422641602E0,4.847097982E0
4.288676500E0,2.320175171E0,-3.774850159E0,8.848100281E-1,4.518362018E0
4.298680500E0,1.905537415E0,-3.793112183E0,-1.172062683E-1,4.246470320E0
4.308684500E0,1.491199036E0,-3.802841949E0,-1.105600891E0,4.231741342E0
4.318688500E0,1.199904785E0,-3.969595184E0,-1.749561768E0,4.500935880E0
4.328692500E0,1.152154083E0,-4.303700409E0,-2.474204865E0,5.096173658E0
4.338695500E0,1.258283386E0,-4.916076965E0,-3.513643341E0,6.172258852E0
4.348699500E0,1.200952606E0,-5.780080261E0,-4.997208252E0,7.734578547E0
4.358703500E0,1.372645569E0,-6.917714539E0,-6.898105316E0,9.865231231E0
4.368707500E0,1.904938660E0,-8.256680145E0,-8.808732147E0,1.222273784E1
4.378711500E0,2.978805542E0,-9.871522064E0,-1.097921860E1,1.506198763E1
4.388715500E0,4.669839020E0,-1.234153564E1,-1.360835129E1,1.895542464E1
4.398719500E0,6.087840271E0,-1.623763367E1,-1.679507446E1,2.414119037E1
4.408723500E0,6.189179535E0,-2.046080154E1,-1.839584564E1,2.820208290E1
4.418727500E0,5.615422668E0,-2.166804108E1,-1.397134644E1,2.638627479E1
4.428730500E0,5.155129852E0,-1.878069534E1,-9.259594574E0,2.156455362E1
4.438734500E0,4.615951080E0,-1.411025757E1,-7.900121613E0,1.681720234E1
4.448738500E0,3.908522186E0,-8.516689453E0,-7.803871765E0,1.219471031E1
4.458742500E0,3.159779205E0,-3.577410736E0,-8.878337402E0,1.008002714E1
4.468746500E0,1.583556976E0,-4.405339050E-1,-8.794811096E0,8.947090311E0
4.478750500E0,1.016685791E0,5.655239868E-1,-5.620063019E0,5.739213858E0
4.488754500E0,2.583178253E0,-6.512956238E-1,-1.595831451E0,3.105426524E0
4.498758500E0,5.657634888E0,-3.343746643E0,6.053411865E-1,6.599690302E0
4.508762500E0,9.279203796E0,-6.974446564E0,-9.056167603E-2,1.160839047E1
4.518766500E0,1.116049164E1,-1.173559570E1,-8.048762512E-1,1.621507342E1
4.528769500E0,9.321116638E0,-1.623074799E1,-1.633553009E0,1.878799859E1
4.538773500E0,5.831722870E0,-1.828507599E1,-4.751718750E0,1.977199602E1
4.548777500E0,5.157824249E0,-1.706316696E1,-9.007518768E0,1.997223603E1
4.558781500E0,2.235301666E0,-1.197449890E1,-2.189197540E0,1.237650126E1
4.568785500E0,-5.412744141E-1,-4.591402130E0,1.154249725E1,1.243395329E1
4.578789500E0,3.898792419E0,-1.300046539E0,8.879834290E0,9.784792299E0
4.588793500E0,7.764503632E0,-3.051404572E0,3.647914124E-1,8.350548442E0
4.598797500E0,4.534520416E0,-5.933960266E0,-5.336851959E0,9.179093021E0
4.608801500E0,1.113684082E0,-8.931177521E0,-2.530787201E0,9.349390782E0
4.618805500E0,1.025667114E0,-1.064960403E1,2.661315765E0,1.102491092E1
4.628808500E0,1.397194519E0,-1.149085464E1,3.928580475E0,1.222397798E1
4.638812500E0,2.230661316E0,-1.180520096E1,3.629502411E0,1.255037479E1
4.648816500E0,3.054997101E0,-1.155641830E1,3.333268433E0,1.240945163E1
4.658820500E0,3.268303528E0,-1.125928619E1,2.932551727E0,1.208524692E1
4.668824500E0,2.170187073E0,-1.145852188E1,1.986369324E0,1.183017746E1
4.678828500E0,-4.764591980E-1,-1.228585144E1,-6.765930176E-1,1.231368901E1
4.688832500E0,-3.246748352E0,-1.371313339E1,-4.060605927E0,1.466560339E1
4.698836500E0,-4.367168427E0,-1.529130157E1,-4.026776276E0,1.640460274E1
4.708840500E0,-1.896556091E0,-1.337663315E1,-2.997516632E0,1.383894307E1
4.718843500E0,2.490820312E-1,-1.093341385E1,-2.623594208E0,1.124654733E1
4.728847500E0,1.176703033E0,-1.008437943E1,-1.919308777E0,1.033262235E1
4.738851500E0,1.393901367E0,-9.624086609E0,-9.970765686E-1,9.775488006E0
4.748855333E0,1.087338867E0,-8.887318726E0,-1.097218323E-1,8.954260373E0
4.758859333E0,9.845027161E-1,-7.980205078E0,3.261717224E-1,8.047316738E0
4.768863333E0,1.141376495E0,-7.164102173E0,-3.727249146E-1,7.264022585E0
4.778867333E0,1.386117554E0,-6.347849579E0,-9.674382019E-1,6.569052658E0
4.788871333E0,1.693578186E0,-5.937253418E0,-1.396595764E0,6.330060422E0
4.798875333E0,1.273551636E0,-6.753356323E0,-1.622625732E0,7.061350414E0
4.808879333E0,9.304650879E-1,-7.936495972E0,-1.581311646E0,8.145813655E0
4.818882333E0,2.981799316E-1,-8.885971527E0,-1.557062073E0,9.026286255E0
4.828886333E0,-2.005828857E-1,-9.408235474E0,-1.485660553E0,9.526925816E0
4.838890333E0,-3.478765869E-1,-9.419911194E0,-1.561103668E0,9.554726039E0
4.848894333E0,-4.053570557E-1,-9.117689667E0,-1.913620605E0,9.325155389E0
4.858898333E0,9.729766846E-3,-8.584498444E0,-2.216740265E0,8.866095285E0
4.868902333E0,3.402424622E-1,-8.413853302E0,-2.236199799E0,8.712593291E0
4.878906333E0,5.328918457E-1,-8.389454041E0,-2.084116058E0,8.660857496E0
4.888910333E0,5.755531311E-1,-8.296048279E0,-1.725611572E0,8.493139216E0
4.898914333E0,5.980064392E-1,-8.142317963E0,-1.377285919E0,8.279605668E0
4.908918333E0,6.080355835E-1,-8.056246948E0,-1.125659180E0,8.157201159E0
4.918921333E0,4.260140991E-1,-8.149503021E0,-9.846524048E-1,8.219819211E0
4.928925333E0,3.342549133E-1,-8.483757935E0,-8.500822449E-1,8.532790567E0
4.938929333E0,4.053570557E-1,-9.196875000E0,-6.783892822E-1,9.230765739E0
4.948933333E0,5.770500183E-1,-1.008273285E1,-8.402027893E-1,1.013412202E1
4.958937333E0,6.135740662E-1,-1.084973785E1,-1.150357819E0,1.092779062E1
4.968941333E0,2.523751831E-1,-1.155881332E1,-1.640738068E0,1.167740896E1
4.978945333E0,-2.896476746E-1,-1.194291458E1,-2.126178589E0,1.213415592E1
4.988949333E0,-4.939727783E-1,-1.185549637E1,-2.354902954E0,1.209720510E1
4.998953333E0,-2.327659607E-1,-1.114806747E1,-2.353705444E0,1.139620629E1
5.008957333E0,-1.314266968E-1,-1.062221100E1,-2.087259521E0,1.082613928E1
5.018960333E0,-1.104702759E0,-1.089419540E1,-1.498533783E0,1.105212492E1
5.028964333E0,-2.543660431E0,-1.090257797E1,-5.176235962E-1,1.120733461E1
5.038968333E0,-3.650159454E0,-1.049437683E1,2.707868958E-1,1.111435714E1
5.048972333E0,-3.812571716E0,-1.016027161E1,9.659413147E-1,1.089494676E1
5.058976333E0,-2.139051819E0,-1.012314880E1,1.409618683E0,1.044225594E1
5.068980333E0,4.321513367E-1,-1.116962265E1,3.180885315E-1,1.118250443E1
5.078984333E0,1.644480286E0,-1.291649002E1,-2.623444519E0,1.328241285E1
5.088988333E0,2.144290924E0,-1.423973831E1,-5.106181641E0,1.527878338E1
5.098992333E0,1.756746826E0,-1.460512848E1,-6.464606781E0,1.606820084E1
5.108996333E0,2.767744446E-1,-1.447639618E1,-6.058800659E0,1.569559543E1
5.118999333E0,-2.105371857E0,-1.432446213E1,-3.357368317E0,1.486252764E1
5.129003333E0,-3.727398834E0,-1.406026154E1,-8.548722839E-1,1.457104194E1
5.139007333E0,-3.581003265E0,-1.343037140E1,6.427633667E-1,1.391443873E1
5.149011333E0,-2.548749847E0,-1.284673508E1,1.552421722E0,1.318881121E1
5.159015333E0,2.067201233E-1,-1.221669525E1,1.165925446E0,1.227394632E1
5.169019333E0,4.173022156E0,-1.079525116E1,1.061442719E0,1.162231570E1
5.179023333E0,5.874084778E0,-8.999884644E0,2.884651337E0,1.112762369E1
5.189027333E0,5.048850861E0,-8.862021332E0,4.030368805E0,1.096677664E1
5.199031333E0,3.530707855E0,-1.005339386E1,3.415447540E0,1.118936584E1
5.209035333E0,2.873873749E0,-1.163485519E1,3.289409637E0,1.242776011E1
5.219038333E0,4.674629059E0,-1.320015015E1,2.690056000E0,1.425947131E1
5.229042333E0,6.914421387E0,-1.418644913E1,1.520538025E0,1.585486039E1
5.239046333E0,6.685846710E0,-1.391087219E1,2.927911377E-1,1.543692450E1
5.249050333E0,5.150190125E0,-1.291858566E1,-8.048762512E-1,1.393061878E1
5.259054333E0,5.033432922E0,-1.214229996E1,-1.501527557E0,1.322971958E1
5.269058333E0,4.747377777E0,-1.214709000E1,-2.379152527E0,1.325706445E1
5.279062333E0,4.003724213E0,-1.223151443E1,-2.632725220E0,1.313662799E1
5.289066333E0,3.711232452E0,-1.184112625E1,-2.502795410E0,1.265896923E1
5.299070333E0,3.362158356E0,-1.127814697E1,-2.680026855E0,1.206993173E1
5.309074333E0,2.995720367E0,-1.044647644E1,-2.582729187E0,1.117021489E1
5.319077333E0,2.169139252E0,-9.445208588E0,-2.013013916E0,9.897947029E0
5.329081333E0,7.060816956E-1,-8.593928833E0,-1.739832001E0,8.796657293E0
5.339085333E0,-7.322772217E-1,-8.120164032E0,-1.585802307E0,8.305905296E0
5.349089333E0,-1.438209229E0,-7.862250366E0,-1.467099152E0,8.126241845E0
5.359093333E0,-1.781295776E0,-7.448211365E0,-1.546284485E0,7.812801219E0
5.369097333E0,-1.729653168E0,-7.360942841E0,-1.213077393E0,7.658115718E0
5.379101333E0,-9.370513916E-1,-7.646698608E0,-2.951861572E-1,7.709552502E0
5.389105333E0,-5.126838684E-1,-7.774083710E0,6.481521606E-1,7.817884848E0
5.399109333E0,4.206253052E-1,-7.294181671E0,-3.511697388E-1,7.314733904E0
5.409113333E0,1.429078217E0,-6.425987091E0,-2.749781799E-1,6.588716692E0
5.419116333E0,1.685494995E0,-5.331014099E0,2.389031982E-1,5.596220103E0
5.429120333E0,2.101330261E0,-4.501738586E0,7.057823181E-1,5.017904727E0
5.439124333E0,2.507585449E0,-3.896996155E0,1.623673553E0,4.910283049E0
5.449128333E0,2.832409973E0,-3.161575470E0,2.160307617E0,4.762880925E0
5.459132333E0,2.953807526E0,-2.534978485E0,2.016905823E0,4.383948439E0
5.469136333E0,2.619103546E0,-2.395618286E0,1.652114410E0,3.915120992E0
5.479140333E0,2.046993256E0,-2.505040741E0,1.105900269E0,3.418833998E0
5.489144333E0,1.572779388E0,-2.738106079E0,3.852987671E-1,3.181087085E0
5.499148333E0,1.277293854E0,-3.094963989E0,-4.077520752E-1,3.372913198E0
5.509152333E0,1.202449493E0,-3.738026733E0,-1.147513733E0,4.090906551E0
5.519156333E0,1.357077942E0,-4.469705200E0,-2.230212250E0,5.176270066E0
5.529159333E0,1.468296661E0,-5.244643707E0,-3.642076263E0,6.551862499E0
5.539163333E0,1.714085541E0,-6.132447510E0,-5.459297333E0,8.387426844E0
5.549167333E0,2.081421661E0,-7.066205750E0,-7.671247559E0,1.063539463E1
5.559171333E0,2.435136108E0,-8.281827850E0,-1.030067963E1,1.343958932E1
5.569175333E0,3.190914459E0,-1.007135651E1,-1.314641190E1,1.686541736E1
5.579179333E0,4.882247314E0,-1.319161789E1,-1.554562271E1,2.096476823E1
5.589183333E0,6.305936737E0,-1.778840881E1,-1.765069519E1,2.584065338E1
5.599187333E0,6.520290985E0,-2.199705688E1,-1.690599380E1,2.849907600E1
5.609191333E0,6.129603424E0,-2.250360352E1,-1.179322586E1,2.613550048E1
5.619195333E0,5.044509888E0,-1.918874680E1,-8.461903381E0,2.156986074E1
5.629198333E0,3.780688019E0,-1.361029724E1,-8.491541748E0,1.648150704E1
5.639202333E0,2.948119354E0,-7.170089722E0,-8.540639648E0,1.153447528E1
5.649206333E0,2.073188782E0,-2.021246796E0,-9.455387421E0,9.888776548E0
5.659210333E0,1.277593231E0,1.062640228E0,-7.941286011E0,8.113289852E0
5.669214333E0,9.951306152E-1,2.559377747E0,-4.115691376E0,4.947687833E0
5.679218333E0,2.386187897E0,1.887874146E0,-9.297166443E-1,3.181561646E0
5.689222333E0,5.247637482E0,-1.706152039E0,-5.418731689E-2,5.518295949E0
5.699226333E0,8.350085907E0,-6.239474945E0,-1.044228516E0,1.047594365E1
5.709230333E0,1.104747665E1,-1.163141235E1,-1.229393463E0,1.608875079E1
5.719234333E0,1.067220703E1,-1.701391937E1,-1.861229553E0,2.017011727E1
5.729237333E0,6.488556976E0,-2.072709778E1,-4.081562347E0,2.209916526E1
5.739241333E0,4.413272552E0,-2.120520355E1,-9.920170898E0,2.382325383E1
5.749245750E0,2.269430695E0,-1.663520691E1,-8.199349365E0,1.868447898E1
5.759249750E0,-1.412612457E0,-6.863676910E0,1.128263763E1,1.328169593E1
5.769253750E0,3.164868622E0,-2.010319519E-1,1.309012894E1,1.346878921E1
5.779257750E0,9.542506256E0,1.667532349E-1,3.157533875E0,1.005272363E1
5.789261750E0,9.065747681E0,-2.467618561E0,-5.682333527E0,1.098024757E1
5.799265750E0,4.215982819E0,-6.145021362E0,-6.568041687E0,9.933527585E0
5.809269750E0,3.237767029E-1,-9.271569672E0,-2.719844055E-1,9.281207413E0
5.819273750E0,-4.484674072E-1,-1.138936569E1,2.811004486E0,1.173969847E1
5.829276750E0,-4.694238281E-1,-1.314955536E1,2.862497406E0,1.346569925E1
5.839280750E0,1.064137115E0,-1.283191589E1,3.913312225E0,1.345750593E1
5.849284750E0,2.648143158E0,-1.203078186E1,4.478985901E0,1.310777209E1
5.859288750E0,2.787503357E0,-1.182495987E1,3.691772919E0,1.269759970E1
5.869292750E0,1.006357269E0,-1.193288544E1,2.248324585E0,1.218447673E1
5.879296750E0,-2.158810730E0,-1.278820679E1,-2.884950714E0,1.328614456E1
5.889300750E0,-3.959566040E0,-1.403646103E1,-5.732179871E0,1.567029953E1
5.899304750E0,-1.805245972E0,-1.366717896E1,-3.955225067E0,1.434205351E1
5.909308750E0,1.642085266E-1,-1.180759598E1,-3.589385834E0,1.234220312E1
5.919312750E0,1.543290710E0,-1.029783554E1,-2.653981018E0,1.074573303E1
5.929316750E0,2.253563690E0,-9.859546967E0,-1.620530090E0,1.024281863E1
5.939319750E0,2.054926758E0,-9.125024414E0,-7.102729797E-1,9.380473455E0
5.949323750E0,1.891915741E0,-8.052804108E0,-2.058219910E-1,8.274621554E0
5.959327750E0,1.989363098E0,-7.157216492E0,-1.766326904E-1,7.430646846E0
5.969331750E0,2.151326294E0,-6.356980591E0,-6.227050781E-2,6.711429406E0
5.979335750E0,2.508932648E0,-5.804928589E0,-5.634283447E-1,6.348967668E0
5.989339750E0,1.231638794E0,-6.366710358E0,-6.905140686E-1,6.521406641E0
5.999343750E0,6.357279968E-1,-7.676336975E0,-9.096583557E-1,7.756144517E0
6.009347750E0,8.132588196E-1,-8.540190582E0,-1.119971008E0,8.651622978E0
6.019351750E0,4.156855774E-1,-8.722661133E0,-1.299896851E0,8.828779279E0
6.029355750E0,-7.185058594E-3,-8.807983704E0,-1.676214294E0,8.966065074E0
6.039358750E0,-2.664459229E-2,-9.079519043E0,-2.309846649E0,9.368765529E0
6.049362750E0,-4.101470947E-2,-9.030421143E0,-2.864892426E0,9.474059153E0
6.059366750E0,-1.116677856E-1,-8.677305450E0,-2.683469696E0,9.083452493E0
6.069370750E0,1.715432739E-1,-8.366401978E0,-2.326312408E0,8.685495873E0
6.079374750E0,3.260220337E-1,-8.262967072E0,-2.077829132E0,8.526446452E0
6.089378750E0,2.740800476E-1,-8.281079407E0,-1.703307953E0,8.458880186E0
6.099382750E0,3.092568970E-1,-8.256380768E0,-1.144370270E0,8.341045889E0
6.109386750E0,3.855981445E-1,-8.134085083E0,-4.439767456E-1,8.155313692E0
6.119390750E0,2.950364685E-1,-8.202193451E0,-2.258802795E-1,8.210605692E0
6.129394750E0,2.543211365E-1,-8.801547089E0,-2.671943665E-1,8.809273706E0
6.139397750E0,3.341052246E-1,-9.555978241E0,-5.071453857E-1,9.575256805E0
6.149401750E0,3.073109436E-1,-1.037282959E1,-1.235530701E0,1.045067318E1
6.159405750E0,1.466949463E-1,-1.114941467E1,-2.238744507E0,1.137290394E1
6.169409750E0,-1.504371643E-1,-1.186223236E1,-3.197051697E0,1.228642859E1
6.179413750E0,-4.426295471E-1,-1.202329742E1,-3.701802063E0,1.258804752E1
6.189417750E0,-5.858816528E-1,-1.149848877E1,-3.624862061E0,1.207054789E1
6.199421750E0,-8.289761353E-1,-1.086231171E1,-3.034938812E0,1.130875195E1
6.209425750E0,-1.355131989E0,-1.065005310E1,-2.053729248E0,1.093059091E1
6.219429750E0,-2.050585785E0,-1.087428680E1,-7.714956665E-1,1.109280042E1
6.229433750E0,-2.895129547E0,-1.114941467E1,-1.930984497E-2,1.151918380E1
6.239436750E0,-3.716321869E0,-1.132934052E1,2.092648315E-1,1.192513298E1
6.249440750E0,-3.664080505E0,-1.148411865E1,6.712042236E-1,1.207315130E1
6.259444750E0,-2.327210541E0,-1.188977509E1,3.736230469E-1,1.212114907E1
6.269448750E0,-1.154100037E-1,-1.312500641E1,-1.122066650E0,1.317338781E1
6.279452750E0,2.316582642E0,-1.416249893E1,-2.691403198E0,1.460091032E1
6.289456750E0,3.059787140E0,-1.471529938E1,-5.167554016E0,1.589358196E1
6.299460750E0,1.757944336E0,-1.440364746E1,-5.800288239E0,1.562686060E1
6.309464750E0,-8.015830994E-1,-1.431069077E1,-3.191812592E0,1.468421170E1
6.319468750E0,-2.042053528E0,-1.415351761E1,-1.260528717E0,1.435552075E1
6.329472750E0,-1.431772614E0,-1.372136627E1,-2.972817993E-1,1.379906670E1
6.339475750E0,1.222956848E-1,-1.297965866E1,2.176473999E-1,1.298205937E1
6.349479750E0,2.643652496E0,-1.131107849E1,9.204359436E-1,1.165232155E1
6.359483750E0,4.526287537E0,-9.129814453E0,2.423310699E0,1.047440812E1
6.369487750E0,4.157454529E0,-8.759185181E0,3.650758209E0,1.036029868E1
6.379491750E0,2.863395538E0,-9.622290344E0,3.320844269E0,1.057428542E1
6.389495750E0,1.946252747E0,-1.161644348E1,2.750230865E0,1.209518205E1
6.399499750E0,4.320016479E0,-1.370879242E1,2.480641479E0,1.458585322E1
6.409503750E0,7.705077209E0,-1.445499069E1,1.191971283E0,1.642363438E1
6.419507750E0,7.526797943E0,-1.421279434E1,-3.969744873E-1,1.608769092E1
6.429511750E0,5.652844849E0,-1.315644104E1,-1.218316498E0,1.437118265E1
6.439514750E0,5.040019226E0,-1.201042419E1,-1.654509430E0,1.312971761E1
6.449518750E0,4.163442078E0,-1.127290787E1,-2.336790619E0,1.224227479E1
6.459522750E0,3.460354156E0,-1.081486038E1,-2.583028564E0,1.164505442E1
6.469526750E0,2.770139465E0,-1.032298325E1,-2.756517792E0,1.103793668E1
6.479530750E0,2.542313232E0,-1.001567230E1,-2.692900085E0,1.067842494E1
6.489534750E0,2.072739716E0,-9.606573029E0,-2.552342377E0,1.015366667E1
6.499538750E0,1.720522156E0,-9.015901337E0,-2.455344086E0,9.501336116E0
6.509542750E0,1.142424316E0,-8.510701904E0,-2.039658508E0,8.825949640E0
6.519546750E0,2.454895020E-1,-8.223149872E0,-1.508562927E0,8.363983561E0
6.529550750E0,-8.101153564E-1,-7.999215546E0,-1.200952606E0,8.129331055E0
6.539553750E0,-1.229842529E0,-7.877817993E0,-9.627978516E-1,8.031158614E0
6.549557750E0,-6.325845337E-1,-8.086184692E0,-6.065386963E-1,8.133537684E0
6.559561750E0,2.728825378E-1,-8.221503296E0,-8.006849670E-1,8.264906396E0
6.569565750E0,4.638853455E-1,-8.060887299E0,-5.745053101E-1,8.094637114E0
6.579569750E0,7.951464844E-1,-7.344626770E0,-1.646575928E-3,7.387543775E0
6.589573750E0,1.541195068E0,-6.472091217E0,6.111790466E-1,6.681076769E0
6.599577750E0,2.360291748E0,-5.629792786E0,5.029541016E-2,6.104758273E0
6.609581750E0,2.343077545E0,-4.941673737E0,9.485774231E-1,5.550671205E0
6.619585750E0,2.650538177E0,-4.316573639E0,1.597478027E0,5.311317789E0
6.629589750E0,3.103047180E0,-3.522175598E0,1.765428772E0,5.015113308E0
6.639592750E0,3.348237305E0,-2.941533051E0,1.905238037E0,4.846982743E0
6.649596750E0,3.160677338E0,-2.866239624E0,1.724863129E0,4.602212906E0
6.659600750E0,2.697091370E0,-3.055446167E0,1.344055023E0,4.291449294E0
6.669604750E0,2.189796295E0,-3.328478394E0,5.406756592E-1,4.020734560E0
6.679608750E0,1.769021301E0,-3.653302917E0,-3.640429688E-1,4.075363279E0
6.689612750E0,1.413660278E0,-4.054468689E0,-1.144220581E0,4.443691311E0
6.699616750E0,1.111438751E0,-4.496050415E0,-2.124382324E0,5.095367081E0
6.709620750E0,9.891430664E-1,-4.906796265E0,-3.475472717E0,6.093764370E0
6.719624750E0,1.219514008E0,-5.663023682E0,-5.145998840E0,7.748442147E0
6.729628750E0,1.141376495E0,-6.726412354E0,-7.261699219E0,9.963916850E0
6.739631750E0,1.531614990E0,-7.927065582E0,-9.314979401E0,1.232692397E1
6.749635500E0,2.763852539E0,-9.883946228E0,-1.135344040E1,1.530463599E1
6.759639500E0,4.977599030E0,-1.304222855E1,-1.417986282E1,1.989835991E1
6.769643500E0,6.432723083E0,-1.734278549E1,-1.735505997E1,2.536434981E1
6.779647500E0,6.457421722E0,-2.087933121E1,-1.718426514E1,2.780186568E1
6.789651500E0,5.706134033E0,-2.045795746E1,-1.298744247E1,2.489501257E1
6.799655500E0,4.481979675E0,-1.690704163E1,-9.980495453E0,2.013818482E1
6.809659500E0,3.575913849E0,-1.197225357E1,-8.756341095E0,1.525763824E1
6.819663500E0,2.875520325E0,-7.376061401E0,-8.289012909E0,1.146222640E1
6.829667500E0,2.271676025E0,-3.899840240E0,-8.415350189E0,9.549208589E0
6.839670500E0,1.400787048E0,-1.397942963E0,-7.222929840E0,7.489136423E0
6.849674500E0,1.761985931E0,-1.021775208E0,-4.064647522E0,4.546424801E0
6.859678500E0,3.886068878E0,-2.540367279E0,-1.167871399E0,4.787370974E0
6.869682500E0,6.592590637E0,-6.088439026E0,-1.093925171E0,9.040354714E0
6.879686500E0,9.437873840E0,-1.092997101E1,-2.323318634E0,1.462653542E1
6.889690500E0,1.003468277E1,-1.610351257E1,-2.489922180E0,1.913681499E1
6.899694500E0,6.828949127E0,-1.889086624E1,-3.016227722E0,2.031248393E1
6.909698500E0,5.266198883E0,-1.733575012E1,-6.659651184E0,1.930316132E1
6.919702500E0,4.696782990E0,-1.219783447E1,-4.794529724E0,1.392244417E1
6.929705500E0,1.839674377E0,-4.099075928E0,9.362879791E0,1.038510199E1
6.939709500E0,4.605622559E0,1.157243500E0,1.099583405E1,1.197745123E1
6.949713500E0,9.248517609E0,5.352868652E-1,2.868934021E0,9.698061270E0
6.959717500E0,7.838000793E0,-3.220852203E0,-5.295388184E0,9.992461227E0
6.969721500E0,2.523602142E0,-7.827223206E0,-6.105503540E0,1.024261511E1
6.979725500E0,-1.186732178E0,-1.171433990E1,-2.814147949E-2,1.177433160E1
6.989729500E0,-1.335373077E0,-1.380414413E1,3.337759094E0,1.426458034E1
6.999733500E0,-4.463717651E-1,-1.436981781E1,3.509452057E0,1.479889068E1
7.009737500E0,1.086590424E0,-1.337304062E1,3.466341705E0,1.385764839E1
7.019741500E0,2.332449646E0,-1.220082825E1,3.045716400E0,1.278971930E1
7.029744500E0,2.076931000E0,-1.172900940E1,1.013692017E0,1.195453367E1
7.039748500E0,5.783972168E-1,-1.187600372E1,-1.940564575E0,1.204739800E1
7.049752500E0,-1.467248840E0,-1.226549377E1,-3.221900024E0,1.276619742E1
7.059756500E0,-2.588716736E0,-1.218570969E1,-3.492387543E0,1.293791891E1
7.069760500E0,-1.238524475E0,-1.242341537E1,-4.264781342E0,1.319331468E1
7.079764500E0,9.160949707E-1,-1.152333710E1,-3.396137695E0,1.204824797E1
7.089768500E0,1.964814148E0,-1.037297928E1,-2.143093414E0,1.077274539E1
7.099772500E0,2.128274231E0,-9.956994324E0,-1.189576263E0,1.025116476E1
7.109776500E0,2.118843842E0,-9.409732361E0,-7.482939148E-1,9.674321997E0
7.119780500E0,1.912423096E0,-8.640482025E0,-6.580316162E-1,8.874023740E0
7.129783500E0,1.576671295E0,-7.535330200E0,-4.399351501E-1,7.711072334E0
7.139787500E0,1.496438141E0,-6.644233246E0,-2.456391907E-1,6.815093627E0
7.149791500E0,1.504820709E0,-6.100563812E0,-5.819897461E-1,6.310315068E0
7.159795500E0,7.711962891E-1,-6.719975739E0,-1.096320190E0,6.852352560E0
7.169799500E0,1.285826111E-1,-7.820038147E0,-1.056652679E0,7.892150847E0
7.179803500E0,2.592608643E-1,-8.321046295E0,-1.206341400E0,8.412032288E0
7.189807500E0,2.791694641E-1,-8.656947784E0,-1.616937561E0,8.811082091E0
7.199811500E0,1.245410156E-1,-8.878636780E0,-1.900747375E0,9.080668594E0
7.209815500E0,3.263214111E-2,-8.812174988E0,-2.091450806E0,9.057022653E0
7.219818500E0,5.104385376E-2,-8.745713196E0,-2.129920807E0,9.001481402E0
7.229822500E0,2.793191528E-1,-8.668174438E0,-2.141746216E0,8.933215778E0
7.239826500E0,4.819976807E-1,-8.546627197E0,-1.965412903E0,8.782938352E0
7.249830500E0,6.283932495E-1,-8.460705872E0,-1.719773712E0,8.656560723E0
7.259834500E0,6.903643799E-1,-8.415200500E0,-1.404229889E0,8.559442974E0
7.269838500E0,6.249504089E-1,-8.196654968E0,-1.038540344E0,8.285787937E0
7.279842500E0,5.289999390E-1,-7.989036713E0,-7.289840698E-1,8.039649638E0
7.289846500E0,5.159770203E-1,-7.931256866E0,-5.053491211E-1,7.964072168E0
7.299850500E0,6.978488159E-1,-8.101153564E0,-2.439926147E-2,8.131191633E0
7.309854500E0,8.755293274E-1,-8.542136536E0,2.457888794E-1,8.590405134E0
7.319857500E0,8.791218567E-1,-9.522298279E0,-3.339555359E-1,9.568622997E0
7.329861500E0,7.798782349E-1,-1.065738785E1,-1.185834045E0,1.075148028E1
7.339865500E0,3.972738647E-1,-1.161330002E1,-2.070045319E0,1.180303569E1
7.349869500E0,1.886077881E-2,-1.217583023E1,-2.922073517E0,1.252156984E1
7.359873500E0,-1.585203552E-1,-1.192405380E1,-3.267555084E0,1.236467161E1
7.369877500E0,-2.713856506E-1,-1.118953125E1,-3.190465393E0,1.163865667E1
7.379881500E0,-1.043929138E0,-1.078552139E1,-2.875819702E0,1.121104807E1
7.389885500E0,-2.262095947E0,-1.093401260E1,-1.824106750E0,1.131357924E1
7.399889500E0,-3.373983765E0,-1.107651627E1,-6.938072205E-1,1.159975635E1
7.409893500E0,-3.985911255E0,-1.096140564E1,-1.938468933E-1,1.166522519E1
7.419896500E0,-3.932322693E0,-1.097742233E1,3.436853027E-1,1.166555110E1
7.429900500E0,-2.728376312E0,-1.112486572E1,1.248254242E0,1.152236145E1
7.439904500E0,-8.104147339E-1,-1.189681046E1,-1.957928467E-1,1.192598868E1
7.449908500E0,1.216669922E0,-1.343022171E1,-2.579585724E0,1.372972700E1
7.459912500E0,2.370021515E0,-1.424318115E1,-5.250331879E0,1.536395770E1
7.469916500E0,2.321372681E0,-1.380144974E1,-7.120393066E0,1.570250883E1
7.479920500E0,5.766009521E-1,-1.359712463E1,-6.567293243E0,1.511104257E1
7.489924500E0,-1.778302002E0,-1.393108017E1,-3.713328094E0,1.452673942E1
7.499928500E0,-3.170556793E0,-1.380459320E1,-1.090182953E0,1.420590450E1
7.509931500E0,-2.848576355E0,-1.317904404E1,3.603007507E-1,1.348819505E1
7.519935500E0,-1.917063446E0,-1.259016861E1,1.488504639E0,1.282197816E1
7.529939500E0,3.218307495E-1,-1.199560501E1,2.499352570E0,1.225744173E1
7.539943500E0,4.233646088E0,-1.047581543E1,3.783831482E0,1.191569758E1
7.549947500E0,5.859415283E0,-9.541608124E0,3.959865417E0,1.187668166E1
7.559951500E0,4.813689880E0,-9.429341583E0,2.913241882E0,1.098048593E1
7.569955500E0,3.535348206E0,-1.021969803E1,2.651735687E0,1.113429912E1
7.579959500E0,3.959116974E0,-1.246308289E1,1.997895355E0,1.322855351E1
7.589963500E0,5.962850189E0,-1.418734726E1,1.419647827E0,1.545483111E1
7.599967500E0,7.320676575E0,-1.467982315E1,6.128256226E-1,1.641539121E1
7.609970500E0,5.886359253E0,-1.449046692E1,-4.885839844E-1,1.564805327E1
7.619974500E0,4.711602173E0,-1.367975281E1,-1.723665619E0,1.457071910E1
7.629978500E0,4.578379211E0,-1.289807831E1,-2.695594482E0,1.394948780E1
7.639982500E0,3.914210358E0,-1.234782257E1,-2.872975616E0,1.326814809E1
7.649986500E0,2.909050598E0,-1.168919220E1,-2.778222656E0,1.236197034E1
7.659990500E0,2.752326508E0,-1.102232895E1,-2.807112579E0,1.170243213E1
7.669994500E0,3.057392120E0,-1.029379395E1,-2.596350861E0,1.104766392E1
7.679998500E0,3.065774689E0,-9.385333099E0,-2.256856842E0,1.012802323E1
7.690002500E0,2.266287231E0,-8.547375641E0,-1.866169281E0,9.037492791E0
7.700005500E0,8.375083923E-1,-7.826923828E0,-1.433568878E0,8.001079718E0
7.710009500E0,-2.574645996E-1,-7.332052917E0,-1.050066376E0,7.411337760E0
7.720013500E0,-9.286688232E-1,-7.038064270E0,-1.065184937E0,7.178536996E0
7.730017500E0,-1.138532410E0,-7.068151703E0,-1.425785065E0,7.299855313E0
7.740021500E0,-1.104702759E0,-7.581284637E0,-6.821315002E-1,7.691654459E0
7.750025458E0,-1.587448883E0,-8.450676727E0,1.177601166E0,8.678748505E0
7.760029458E0,-9.424401855E-1,-8.098758545E0,-2.227368164E-1,8.156451138E0
7.770033458E0,1.499880981E-1,-6.761289825E0,-4.971162415E-1,6.781199089E0
7.780037458E0,1.171613617E0,-5.567073212E0,2.041754150E-1,5.692685677E0
7.790041458E0,1.909279633E0,-4.697381744E0,4.087998962E-1,5.087028732E0
7.800044458E0,2.396366730E0,-4.087549896E0,1.387614441E0,4.937216979E0
7.810048458E0,3.085084534E0,-3.459456024E0,2.379302216E0,5.210245829E0
7.820052458E0,3.362457733E0,-2.994971924E0,2.390678558E0,5.098168573E0
7.830056458E0,3.004252625E0,-2.802921295E0,1.972148895E0,4.557551194E0
7.840060458E0,2.397564240E0,-2.865042114E0,1.361119537E0,3.976107015E0
7.850064458E0,1.963616638E0,-2.864143982E0,5.457650757E-1,3.515248294E0
7.860068458E0,1.760938110E0,-2.786605225E0,-2.044747925E-1,3.302708229E0
7.870072458E0,1.541793823E0,-3.068918152E0,-9.358538818E-1,3.559664212E0
7.880076458E0,1.352736969E0,-3.689677277E0,-2.063758392E0,4.438773977E0
7.890079458E0,1.345102844E0,-4.456382904E0,-3.612886963E0,5.892503921E0
7.900083458E0,1.531914368E0,-5.350473633E0,-5.012177124E0,7.489742936E0
7.910087458E0,1.562899933E0,-6.337670746E0,-6.441854095E0,9.170943837E0
7.920091458E0,2.287393341E0,-7.435787201E0,-8.245303802E0,1.133614284E1
7.930095458E0,2.904859314E0,-9.031169586E0,-1.016446289E1,1.390383176E1
7.940099458E0,3.876189423E0,-1.154429352E1,-1.256247620E1,1.749603856E1
7.950103458E0,5.151687012E0,-1.577734085E1,-1.572659637E1,2.286460577E1
7.960107458E0,5.775439911E0,-2.127795227E1,-1.848865265E1,2.877389852E1
7.970111458E0,5.807473297E0,-2.412458267E1,-1.560609695E1,2.931335016E1
7.980115458E0,5.629942474E0,-2.143722107E1,-1.011491592E1,2.436313247E1
7.990118458E0,4.967569885E0,-1.591655136E1,-8.751251678E0,1.883076641E1
8.000122458E0,3.477268982E0,-9.580078125E0,-9.384135590E0,1.385392714E1
8.010126458E0,1.990111542E0,-3.897894287E0,-9.369466095E0,1.034122907E1
8.020130458E0,8.114625549E-1,-3.074606323E-1,-8.426277466E0,8.470841484E0
8.030134458E0,1.077758789E-2,1.492995300E0,-5.898783417E0,6.084800483E0
8.040138458E0,5.740562439E-1,1.649569702E0,-2.432441711E0,2.994560644E0
8.050142458E0,2.899620209E0,-7.497908020E-1,1.492396545E-1,2.998709068E0
8.060146458E0,6.508465576E0,-4.618196411E0,-1.077758789E-2,7.980474823E0
8.070150458E0,1.007180557E1,-9.445208588E0,1.715432739E-1,1.380878922E1
8.080153458E0,1.166359543E1,-1.445424225E1,-2.233355713E-1,1.857456476E1
8.090157458E0,1.090332642E1,-1.847338440E1,-2.853815460E0,2.164007211E1
8.100161458E0,1.041608963E1,-2.017010605E1,-7.485334167E0,2.390310291E1
8.110165458E0,8.090825043E0,-1.715777023E1,-8.717122650E0,2.087675158E1
8.120169458E0,5.504054260E-1,-8.656648407E0,6.358028412E0,1.075476792E1
8.130173458E0,-7.963439941E-2,-1.272354126E0,1.127096191E1,1.134283074E1
8.140177458E0,5.886359253E0,-7.027885437E-1,3.754642181E0,7.017155756E0
8.150181458E0,6.308032379E0,-3.977678375E0,-3.722758484E0,8.334994210E0
8.160185458E0,1.937271423E0,-7.300917664E0,-5.584586792E0,9.393829301E0
8.170188458E0,-1.414558411E-1,-9.591604156E0,-5.990542603E-1,9.611334250E0
8.180192458E0,-2.769241333E-2,-1.127635071E1,2.585573273E0,1.156901211E1
8.190196458E0,6.032455444E-1,-1.247625549E1,2.686014404E0,1.277636606E1
8.200200458E0,1.949845276E0,-1.281634827E1,1.946103058E0,1.310908069E1
8.210204458E0,2.994073792E0,-1.222462875E1,1.850002899E0,1.272118457E1
8.220208458E0,3.117267609E0,-1.170356232E1,1.476828918E0,1.220130124E1
8.230212458E0,2.019300842E0,-1.172347092E1,2.585124207E-1,1.189891486E1
8.240216458E0,2.799179077E-1,-1.190354645E1,-1.689536591E0,1.202610934E1
8.250220458E0,-8.898994446E-1,-1.238359818E1,-2.985541534E0,1.276945116E1
8.260224458E0,-8.069718933E-1,-1.254137009E1,-3.270997925E0,1.298601535E1
8.270227458E0,-1.062789917E-2,-1.221055801E1,-2.687211914E0,1.250275761E1
8.280231458E0,3.832031250E-1,-1.165476379E1,-1.776954803E0,1.179567430E1
8.290235458E0,1.244961090E0,-1.072923843E1,-1.733245697E0,1.093940703E1
8.300239458E0,1.915416870E0,-9.901609497E0,-1.462758179E0,1.019069938E1
8.310243458E0,1.933978271E0,-9.024732971E0,-8.298742676E-1,9.266864003E0
8.320247458E0,1.463656311E0,-8.065827026E0,-2.671943665E-1,8.201905160E0
8.330251458E0,1.255439301E0,-7.358248444E0,-1.805245972E-1,7.466762158E0
8.340255458E0,1.086291046E0,-6.793472900E0,-4.626878357E-1,6.895315969E0
8.350259458E0,7.309300232E-1,-6.820716248E0,-8.205935669E-1,6.908675896E0
8.360262458E0,1.050515442E0,-7.222630463E0,-1.716330872E0,7.497717330E0
8.370266458E0,3.365002441E-1,-7.860603790E0,-1.800605621E0,8.071214590E0
8.380270458E0,8.232879639E-2,-8.357121277E0,-1.730251923E0,8.534753997E0
8.390274458E0,-3.041674805E-1,-8.916807404E0,-1.773212585E0,9.096496853E0
8.400278458E0,-9.253756714E-1,-9.049581299E0,-1.778451691E0,9.268987660E0
8.410282458E0,-9.077124023E-1,-8.922196198E0,-1.890418854E0,9.165326521E0
8.420286458E0,-5.586383057E-1,-8.675509186E0,-2.057770844E0,8.933697848E0
8.430290458E0,-2.957849121E-1,-8.319848785E0,-1.853595428E0,8.528961750E0
8.440294458E0,-8.831634521E-3,-8.200397186E0,-1.666634216E0,8.368050049E0
8.450297458E0,6.855743408E-2,-8.338859253E0,-1.537003784E0,8.479602255E0
8.460301458E0,1.371148682E-1,-8.404722290E0,-1.562899933E0,8.549901371E0
8.470305458E0,1.242416382E-1,-8.461604004E0,-1.547631683E0,8.602868250E0
8.480309458E0,7.783813477E-3,-8.520281982E0,-1.381177826E0,8.631507275E0
8.490313458E0,-9.280700684E-2,-8.647367706E0,-1.164278870E0,8.725888303E0
8.500317458E0,-7.828720093E-2,-9.033115540E0,-9.642947388E-1,9.084776804E0
8.510321458E0,-1.251397705E-1,-9.591304779E0,-1.031055908E0,9.647375996E0
8.520325458E0,-2.014810181E-1,-1.006297394E1,-1.634451141E0,1.019683625E1
8.530329458E0,-2.646496582E-1,-1.067969147E1,-2.501597900E0,1.097195704E1
8.540333458E0,-4.787045288E-1,-1.120764359E1,-3.145558777E0,1.165053530E1
8.550336458E0,-7.792794800E-1,-1.145193558E1,-3.123255157E0,1.189574831E1
8.560340458E0,-8.192463684E-1,-1.110854965E1,-2.716101837E0,1.146508828E1
8.570344458E0,-8.840615845E-1,-1.053389465E1,-2.097588043E0,1.077703007E1
8.580348458E0,-1.446891174E0,-1.055979080E1,-1.177301788E0,1.072327913E1
8.590352458E0,-2.305805054E0,-1.100137253E1,-5.222639465E-1,1.125254167E1
8.600356458E0,-2.842139740E0,-1.117770584E1,-1.833686829E-1,1.153483811E1
8.610360458E0,-2.913241882E0,-1.105600891E1,1.068777466E-1,1.143388535E1
8.620364458E0,-1.922452240E0,-1.095437027E1,1.120270386E0,1.117806139E1
8.630368458E0,-8.367599487E-1,-1.122111557E1,2.514770508E-2,1.125229907E1
8.640371458E0,1.257534943E0,-1.229213837E1,-1.857637024E0,1.249515406E1
8.650375458E0,2.619253235E0,-1.346494949E1,-3.808979187E0,1.423635047E1
8.660379458E0,2.409539337E0,-1.386237305E1,-6.327641602E0,1.542758291E1
8.670383458E0,9.669891357E-1,-1.373154510E1,-6.505920868E0,1.522555107E1
8.680387458E0,-1.687740326E0,-1.394425278E1,-3.755839691E0,1.453949740E1
8.690391458E0,-3.576662292E0,-1.379501312E1,-9.419911194E-1,1.428223538E1
8.700395458E0,-3.175795898E0,-1.331855392E1,1.360670471E-1,1.369262840E1
8.710399458E0,-1.938019867E0,-1.325044556E1,7.578739929E-1,1.341285210E1
8.720403458E0,1.281335449E-1,-1.315853668E1,9.740245056E-1,1.319515932E1
8.730406458E0,3.276237030E0,-1.231788483E1,8.948391724E-1,1.277750965E1
8.740410458E0,5.317392426E0,-1.029843430E1,2.350412292E0,1.182610879E1
8.750414958E0,5.351222076E0,-9.643396454E0,3.368744659E0,1.153165701E1
8.760418958E0,3.954476624E0,-1.002974304E1,2.975063324E0,1.118412413E1
8.770422958E0,2.939287720E0,-1.139146133E1,3.015179901E0,1.214479779E1
8.780426958E0,4.643643494E0,-1.305465271E1,2.304906921E0,1.404635106E1
8.790430958E0,6.851402435E0,-1.342363541E1,1.426832886E0,1.513841322E1
8.800434958E0,6.570436707E0,-1.308189606E1,7.065307617E-1,1.465625562E1
8.810438958E0,4.662055206E0,-1.231339417E1,-2.601589966E-1,1.316898315E1
8.820441958E0,4.437522125E0,-1.167302582E1,-1.349743195E0,1.256076992E1
8.830445958E0,4.543501740E0,-1.164039368E1,-2.124232635E0,1.267495709E1
8.840449958E0,3.988905029E0,-1.172092621E1,-2.350262604E0,1.260219064E1
8.850453958E0,3.744912415E0,-1.144879211E1,-2.394720154E0,1.228144513E1
8.860457958E0,3.362757111E0,-1.088760910E1,-2.170636139E0,1.159999261E1
8.870461958E0,3.035088501E0,-1.019200562E1,-2.187700653E0,1.085701500E1
8.880465958E0,2.661465454E0,-9.453441467E0,-1.909878387E0,1.000492826E1
8.890469958E0,1.762434998E0,-8.695866852E0,-1.386865997E0,8.980405042E0
8.900473958E0,3.896397400E-1,-8.167166290E0,-8.411009216E-1,8.219603099E0
8.910477958E0,-8.036787415E-1,-7.713160400E0,-1.037791901E0,7.824049777E0
8.920480958E0,-1.322499847E0,-7.330406342E0,-1.539698181E0,7.606216764E0
8.930484958E0,-1.337169342E0,-7.216493225E0,-1.900597687E0,7.581429145E0
8.940488958E0,-1.582808533E0,-7.817942505E0,-6.710545349E-1,8.004737475E0
8.950492958E0,-1.233435059E0,-8.413853302E0,1.109193420E-1,8.504504250E0
8.960496958E0,-2.432441711E-1,-8.051905975E0,-1.128203888E0,8.134199504E0
8.970500958E0,4.218228149E-1,-6.926695862E0,-3.839515686E-1,6.950141643E0
8.980504958E0,1.033151550E0,-5.834417267E0,5.911207581E-1,5.954599123E0
8.990508958E0,2.078128510E0,-5.173840942E0,9.523196411E-1,5.656338117E0
9.000512958E0,2.775079193E0,-4.701573029E0,1.700912933E0,5.718300296E0
9.010515958E0,3.281176758E0,-4.195475464E0,2.223775635E0,5.771768651E0
9.020519958E0,3.467838593E0,-3.649261322E0,2.467468872E0,5.606372743E0
9.030523958E0,3.126099243E0,-3.495081940E0,2.172282715E0,5.167872525E0
9.040527958E0,2.628833313E0,-3.503464508E0,1.403631134E0,4.599479156E0
9.050531958E0,2.281854858E0,-3.312012634E0,6.177653503E-1,4.069142823E0
9.060535958E0,1.957629089E0,-3.270249481E0,-2.600093079E-1,3.820268074E0
9.070539958E0,1.703757019E0,-3.186274109E0,-1.022074585E0,3.754965664E0
9.080543958E0,1.426234131E0,-3.466042328E0,-2.238894196E0,4.365803527E0
9.090547958E0,1.316961365E0,-4.315974884E0,-3.600313110E0,5.772718677E0
9.100550958E0,1.529369659E0,-5.237009583E0,-5.101541290E0,7.469334941E0
9.110554958E0,1.762584686E0,-6.276148682E0,-6.892117767E0,9.486729382E0
9.120558958E0,2.267335052E0,-7.773484955E0,-8.813522186E0,1.196854419E1
9.130562958E0,3.313659210E0,-9.731263733E0,-1.051802765E1,1.470737015E1
9.140566958E0,4.824168091E0,-1.248059647E1,-1.248658401E1,1.830171211E1
9.150570958E0,6.018235016E0,-1.632071091E1,-1.601310059E1,2.364326855E1
9.160574958E0,6.079457703E0,-2.126163620E1,-1.902004761E1,2.916811943E1
9.170578958E0,6.019881592E0,-2.348855530E1,-1.591206070E1,2.900249782E1
9.180582958E0,5.876180420E0,-2.066228256E1,-1.080034058E1,2.404385106E1
9.190585958E0,4.610412598E0,-1.534638702E1,-9.087302856E0,1.842136184E1
9.200589958E0,2.857407990E0,-9.256750488E0,-9.018296356E0,1.323562916E1
9.210593958E0,1.575024719E0,-3.570075989E0,-9.040599976E0,9.846755473E0
9.220597958E0,6.484515381E-1,5.436694336E-1,-7.741900635E0,7.788009456E0
9.230601958E0,-4.760101318E-2,2.379751282E0,-4.512366486E0,5.101659859E0
9.240605958E0,4.104464722E-1,1.953138428E0,-8.011340332E-1,2.150588702E0
9.250609958E0,2.572250977E0,-8.348139954E-1,8.354127502E-1,2.830424695E0
9.260613958E0,5.960305481E0,-5.269342346E0,7.390132141E-1,7.989827953E0
9.270617958E0,8.782386932E0,-1.076022400E1,1.002764740E0,1.392545431E1
9.280621958E0,9.543105011E0,-1.592493393E1,-2.963836670E-1,1.856777362E1
9.290624958E0,7.676486664E0,-2.046065186E1,-4.803211670E0,2.237493160E1
9.300628958E0,6.234984283E0,-2.311328568E1,-1.170281387E1,2.664685453E1
9.310632958E0,3.562741241E0,-1.985950195E1,-1.089314758E1,2.292931764E1
9.320636958E0,-5.623805237E-1,-8.688532104E0,1.138876694E1,1.433565047E1
9.330640958E0,2.195783844E0,-6.718029785E-1,1.542317734E1,1.559317752E1
9.340644958E0,8.178093567E0,7.366181946E-1,5.533692627E0,9.901796546E0
9.350648958E0,8.397537231E0,-1.883982239E0,-4.858895874E0,9.883161930E0
9.360652958E0,4.301305389E0,-5.883066101E0,-7.257507935E0,1.028509194E1
9.370655958E0,1.738634491E0,-9.039402466E0,-0.000000000E0,9.205088095E0
9.380659958E0,1.439107361E0,-1.064780777E1,4.130510559E0,1.151121009E1
9.390663958E0,1.879341888E0,-1.151375702E1,4.354893951E0,1.245245470E1
9.400667958E0,2.278861084E0,-1.218346436E1,4.094734955E0,1.305361505E1
9.410671958E0,2.987337799E0,-1.254241791E1,3.642824707E0,1.339800754E1
9.420675958E0,3.004701691E0,-1.246847168E1,3.446283417E0,1.328035721E1
9.430679958E0,1.546434174E0,-1.235006790E1,2.719245300E0,1.274009148E1
9.440683958E0,-1.227746887E0,-1.315389633E1,-4.546046448E-1,1.321888863E1
9.450687958E0,-4.774471436E0,-1.476649292E1,-7.963589630E0,1.744315483E1
9.460690958E0,-2.794239349E0,-1.408825333E1,-6.267915802E0,1.567078249E1
9.470694958E0,-5.704637146E-1,-1.164263901E1,-2.474803619E0,1.191642249E1
9.480698958E0,8.087681580E-1,-1.005204666E1,-2.319426727E0,1.034782530E1
9.490702958E0,1.661844177E0,-9.562115479E0,-1.742676086E0,9.860664199E0
9.500706958E0,1.697919159E0,-9.094787292E0,-4.348457336E-1,9.262136696E0
9.510710958E0,1.552721100E0,-8.076305237E0,2.285746765E-1,8.227386917E0
9.520714958E0,1.447938995E0,-7.028933258E0,1.065783691E-1,7.177310710E0
9.530718958E0,1.793869629E0,-6.194867706E0,-4.448748779E-1,6.464693945E0
9.540722958E0,1.777104492E0,-5.585185547E0,-1.179996185E0,5.978694587E0
9.550726958E0,1.095272369E0,-6.762337646E0,-1.322649536E0,6.976978845E0
9.560729958E0,1.156944122E0,-7.935747528E0,-1.507814484E0,8.160153984E0
9.570733958E0,3.185375977E-1,-8.462502136E0,-1.389710083E0,8.581765711E0
9.580737958E0,-2.119592285E-1,-8.968599701E0,-1.566492462E0,9.106843907E0
9.590741958E0,1.140628052E-1,-9.072932739E0,-2.216889954E0,9.340541734E0
9.600745958E0,2.335144043E-2,-9.018745422E0,-2.631976776E0,9.394978235E0
9.610749958E0,1.285826111E-1,-8.989705811E0,-2.912044373E0,9.450468056E0
9.620753958E0,2.905458069E-1,-8.895551605E0,-2.911295929E0,9.364341900E0
9.630757958E0,1.480421448E-1,-8.865015106E0,-2.541265411E0,9.223255347E0
9.640761958E0,7.918533325E-2,-8.777596893E0,-1.910327454E0,8.983419645E0
9.650764958E0,2.201921082E-1,-8.726553040E0,-1.191222839E0,8.810234070E0
9.660768958E0,2.303709412E-1,-8.439001007E0,-7.159611511E-1,8.472450008E0
9.670772958E0,2.103126526E-1,-8.156987457E0,-3.347039795E-1,8.166560019E0
9.680776958E0,1.796264648E-1,-7.977360992E0,-1.034349060E-1,7.980053437E0
9.690780958E0,3.694317627E-1,-8.150999908E0,-6.915618896E-2,8.159660649E0
9.700784958E0,6.150709534E-1,-8.763675842E0,-2.856060791E-1,8.789874708E0
9.710788958E0,8.006849670E-1,-9.537566528E0,-9.669891357E-1,9.619840939E0
9.720792958E0,7.469467163E-1,-1.035531601E1,-1.745819550E0,1.052798105E1
9.730796958E0,4.819976807E-1,-1.124671234E1,-2.335293732E0,1.149671506E1
9.740799958E0,6.975494385E-2,-1.193707672E1,-3.018622742E0,1.231303170E1
9.750803958E0,-5.049000549E-1,-1.187690186E1,-2.731669464E0,1.219744809E1
9.760807958E0,-7.497908020E-1,-1.140508301E1,-1.958527222E0,1.159628965E1
9.770811958E0,-1.225351868E0,-1.101439545E1,-1.337618408E0,1.116277821E1
9.780815958E0,-2.050286407E0,-1.094673615E1,-6.292913818E-1,1.115485160E1
9.790819958E0,-2.817740479E0,-1.116273697E1,1.755848694E-1,1.151421678E1
9.800823958E0,-3.220852203E0,-1.142050095E1,3.031196594E-1,1.186986151E1
9.810827958E0,-2.949915619E0,-1.140538239E1,-2.574645996E-2,1.178072207E1
9.820831958E0,-1.754950562E0,-1.133742371E1,-3.281176758E-1,1.147713766E1
9.830834958E0,9.894424438E-2,-1.136077515E1,-7.306306458E-1,1.138467492E1
9.840838958E0,1.704056396E0,-1.215038315E1,-2.557731171E0,1.253306058E1
9.850842958E0,2.628084869E0,-1.283401154E1,-4.343068542E0,1.380148277E1
9.860846958E0,2.537223816E0,-1.295466064E1,-6.301296387E0,1.462761338E1
9.870850958E0,1.271605682E0,-1.294208679E1,-6.401288452E0,1.449451915E1
9.880854958E0,-1.258882141E0,-1.356194778E1,-4.057163086E0,1.421167774E1
9.890858958E0,-3.478616180E0,-1.392179947E1,-1.799108734E0,1.446215970E1
9.900862958E0,-3.450025635E0,-1.411878983E1,-5.307962036E-1,1.454388695E1
9.910866958E0,-2.219284973E0,-1.451621338E1,4.932243347E-1,1.469315987E1
9.920869958E0,-5.373825073E-1,-1.394739624E1,1.210233307E0,1.401011444E1
9.930873958E0,2.969225464E0,-1.252759872E1,1.028062134E0,1.291564715E1
9.940877958E0,5.772446136E0,-1.004052063E1,1.869013367E0,1.173142787E1
9.950881958E0,5.880371704E0,-9.044042816E0,2.869532776E0,1.116278192E1
9.960885958E0,4.478836212E0,-9.639953613E0,2.621049500E0,1.094799434E1
9.970889958E0,3.557352448E0,-1.089120163E1,3.088527374E0,1.186642451E1
9.980893958E0,4.789889374E0,-1.255304581E1,3.034340057E0,1.377422298E1
9.990897958E0,6.417903900E0,-1.372450974E1,1.709594879E0,1.524711030E1
1.000090196E1,6.230044556E0,-1.361853012E1,1.646575928E-1,1.497681308E1
1.001090596E1,4.542753296E0,-1.236144424E1,-1.086590424E0,1.321448410E1
1.002090896E1,3.900888062E0,-1.140418488E1,-1.534758453E0,1.215021991E1
1.003091296E1,4.061504059E0,-1.110241241E1,-1.770967255E0,1.195389901E1
1.004091696E1,3.659589844E0,-1.130179779E1,-1.930834808E0,1.203542081E1
1.005092096E1,3.330274658E0,-1.153815628E1,-1.795216827E0,1.214259376E1
1.006092496E1,3.321293335E0,-1.143546982E1,-1.905537415E0,1.205952040E1
1.007092896E1,3.319347382E0,-1.095676529E1,-2.263592834E0,1.167015960E1
1.008093296E1,3.031196594E0,-1.012943573E1,-2.378703461E0,1.083752053E1
1.009093696E1,2.400558014E0,-9.038654022E0,-2.058668976E0,9.575910571E0
1.010094096E1,1.542691956E0,-7.793992310E0,-1.234033813E0,8.040463547E0
1.011094396E1,3.197351074E-1,-7.664361877E0,-2.030976563E0,7.935334859E0
1.012094796E1,-2.573149109E-1,-7.417824554E0,-1.908680878E0,7.663771576E0
1.013095196E1,-6.837780762E-1,-7.577093353E0,-7.949967957E-1,7.649308207E0
1.014095596E1,-2.275268555E-1,-8.190368042E0,1.004710693E0,8.254897983E0
1.015095996E1,-3.839515686E-1,-8.120164032E0,4.062551880E-1,8.139381180E0
1.016096396E1,-1.624122620E-1,-7.287595367E0,-7.289840698E-1,7.325765609E0
1.017096796E1,5.189707947E-1,-6.193969574E0,-4.052073669E-1,6.228866894E0
1.018097196E1,1.059945831E0,-5.193001099E0,-6.286926270E-1,5.337227744E0
1.019097496E1,1.874102783E0,-4.369713135E0,1.197509766E-3,4.754645681E0
1.020097896E1,2.434537354E0,-3.769461365E0,6.289920044E-1,4.531163432E0
1.021098296E1,2.787353668E0,-2.942880249E0,1.432371368E0,4.299019931E0
1.022098696E1,2.931204529E0,-2.622396698E0,1.969304810E0,4.398532240E0
1.023099096E1,2.833008728E0,-2.675835571E0,2.145937500E0,4.448716917E0
1.024099496E1,2.530038757E0,-2.814297638E0,1.880389709E0,4.225781912E0
1.025099896E1,2.223775635E0,-2.952909393E0,1.167871399E0,3.876696476E0
1.026100296E1,1.984573059E0,-2.872227173E0,2.785707092E-1,3.502259385E0
1.027100696E1,1.816772003E0,-2.789299622E0,-5.420228577E-1,3.372631268E0
1.028100996E1,1.762434998E0,-3.054997101E0,-1.428629150E0,3.805281285E0
1.029101396E1,1.729653168E0,-3.826792145E0,-2.490071869E0,4.882263421E0
1.030101796E1,1.998194733E0,-5.033881989E0,-3.772155762E0,6.600144631E0
1.031102196E1,2.286794586E0,-6.577921143E0,-5.442681885E0,8.838623317E0
1.032102596E1,2.253863068E0,-8.545130310E0,-7.791297913E0,1.178148861E1
1.033102996E1,2.715802460E0,-1.103086121E1,-1.160806091E1,1.624199988E1
1.034103396E1,4.602179718E0,-1.446232544E1,-1.700673431E1,2.279403271E1
1.035103796E1,5.987698517E0,-1.945938400E1,-2.174108917E1,2.978582075E1
1.036104196E1,6.501879272E0,-2.280747162E1,-1.977852036E1,3.088114414E1
1.037104596E1,7.079378357E0,-2.029030609E1,-1.452175186E1,2.593637207E1
1.038104896E1,5.461842041E0,-1.586401062E1,-1.205323517E1,2.065863087E1
1.039105296E1,2.362836456E0,-1.091380463E1,-9.929301910E0,1.494272947E1
1.040105696E1,1.391506348E0,-6.647227020E0,-9.394164734E0,1.159190442E1
1.041106096E1,2.286195831E0,-4.937033386E0,-9.373058624E0,1.083767586E1
1.042106496E1,3.195105743E0,-4.629572754E0,-6.389013977E0,8.512411186E0
1.043106896E1,4.496499481E0,-5.445226593E0,-1.536704407E0,7.227064457E0
1.044107296E1,6.501729584E0,-7.332052917E0,1.309027863E0,9.886609202E0
1.045107696E1,9.295519867E0,-1.117067047E1,-3.423381042E-1,1.453642885E1
1.046107996E1,8.942703552E0,-1.568827606E1,-3.161126404E0,1.833266682E1
1.047108396E1,3.909869385E0,-1.776176422E1,-4.264481964E0,1.868028783E1
1.048108796E1,-1.258882141E-1,-1.467338654E1,-6.027665405E0,1.586369662E1
1.049109196E1,1.724563751E0,-7.068151703E0,-4.583468628E-1,7.289922529E0
1.050109596E1,3.840713196E0,1.315314789E0,1.244302460E1,1.308854430E1
1.051109996E1,8.345295868E0,3.317850494E0,1.079809525E1,1.404460594E1
1.052110396E1,1.105421265E1,1.301693115E0,2.292632446E0,1.136425034E1
1.053110796E1,8.920848999E0,-1.992955627E0,-6.931635590E0,1.147174751E1
1.054111196E1,2.931653595E0,-7.838749237E0,-8.486901398E0,1.191923142E1
1.055111596E1,-1.494941254E0,-1.319865326E1,-9.729766846E-2,1.328340183E1
1.056111896E1,-2.679278412E0,-1.580353638E1,3.611988831E0,1.643096948E1
1.057112296E1,-2.472857666E-1,-1.549457886E1,3.867956543E0,1.597198209E1
1.058112696E1,2.222727814E0,-1.335986801E1,4.693340149E0,1.433366785E1
1.059113096E1,2.682870941E0,-1.204215820E1,3.423530731E0,1.280359064E1
1.060113496E1,9.981243896E-1,-1.135493729E1,-1.329235840E0,1.147596275E1
1.061113896E1,-1.579365692E0,-1.198333054E1,-5.558091888E0,1.330364582E1
1.062114296E1,-2.694995728E0,-1.230426315E1,-4.908742218E0,1.351864061E1
1.063114696E1,-1.130898285E0,-1.205817490E1,-4.434079285E0,1.289726994E1
1.064114996E1,7.933502197E-3,-1.280332535E1,-3.568429413E0,1.329130887E1
1.065115396E1,9.785151672E-1,-1.181852325E1,-1.403182068E0,1.194168764E1
1.066115796E1,1.476679230E0,-1.051398605E1,-6.825805664E-1,1.063909773E1
1.067116196E1,1.472937012E0,-9.743089142E0,-6.369255066E-1,9.874360919E0
1.068116596E1,1.695524139E0,-8.912316742E0,-6.325845337E-1,9.094193478E0
1.069116996E1,1.678759003E0,-7.960595856E0,-9.129515076E-1,8.186745301E0
1.070117396E1,1.447190552E0,-7.319329376E0,-1.307231598E0,7.574681344E0
1.071117796E1,1.039588165E0,-7.066654816E0,-1.270408173E0,7.254811559E0
1.072118196E1,6.831793213E-1,-6.983876953E0,-1.106648712E0,7.103938531E0
1.073118496E1,1.287322998E-1,-7.398514709E0,-1.140927429E0,7.487076019E0
1.074118896E1,-1.508862305E-1,-8.058791656E0,-1.519490204E0,8.202178985E0
1.075119300E1,-4.321513367E-1,-8.527317352E0,-1.655108185E0,8.697199498E0
1.076119700E1,3.387455750E-1,-8.933572540E0,-1.991458740E0,9.159114303E0
1.077120100E1,8.831634521E-1,-8.802445221E0,-2.262844391E0,9.131455760E0
1.078120500E1,1.121916962E0,-8.575816498E0,-2.534978485E0,9.012737775E0
1.079120900E1,1.428479462E0,-8.397836609E0,-2.410138092E0,8.852851456E0
1.080121300E1,1.662442932E0,-8.298293610E0,-2.170935516E0,8.737182289E0
1.081121700E1,1.832639008E0,-8.265511780E0,-2.026485901E0,8.705394639E0
1.082122100E1,1.761686554E0,-8.148455200E0,-1.690734100E0,8.506435415E0
1.083122400E1,1.494342499E0,-7.900870056E0,-1.275946655E0,8.141550652E0
1.084122800E1,1.398541718E0,-7.707322540E0,-1.020877075E0,7.899425908E0
1.085123200E1,1.233584747E0,-7.827223206E0,-9.360035706E-1,7.978925813E0
1.086123600E1,8.921447754E-1,-8.202642517E0,-8.484356689E-1,8.294522870E0
1.087124000E1,4.442761230E-1,-8.752598877E0,-7.797285461E-1,8.798485380E0
1.088124400E1,2.915936279E-1,-9.390721893E0,-9.283694458E-1,9.441003885E0
1.089124800E1,1.037342834E-1,-1.013647110E1,-1.501976624E0,1.024767002E1
1.090125200E1,-3.224295044E-1,-1.082638641E1,-2.285148010E0,1.106962082E1
1.091125600E1,-5.969586182E-1,-1.114761841E1,-2.459535370E0,1.143131970E1
1.092125900E1,-5.469625854E-1,-1.120958954E1,-1.870210876E0,1.137768669E1
1.093126300E1,-6.252497864E-1,-1.089015381E1,-1.448388062E0,1.100382730E1
1.094126700E1,-1.097966766E0,-1.057760376E1,-1.237776031E0,1.070622818E1
1.095127100E1,-2.338736572E0,-1.058419006E1,-7.006929016E-1,1.086212404E1
1.096127500E1,-3.518134003E0,-1.084554657E1,-5.448669434E-2,1.140202245E1
1.097127900E1,-3.957620087E0,-1.120300323E1,1.682501221E-1,1.188269104E1
1.098128300E1,-3.581152954E0,-1.144879211E1,-1.293310547E-1,1.199650882E1
1.099128700E1,-2.619253235E0,-1.156435181E1,-8.303233337E-1,1.188630124E1
1.100129100E1,-7.575746155E-1,-1.180085999E1,-2.274370422E0,1.204188426E1
1.101129400E1,1.849703522E0,-1.254705826E1,-4.129762115E0,1.333810366E1
1.102129800E1,3.268004150E0,-1.332274521E1,-7.429200897E0,1.560026977E1
1.103130200E1,2.868035889E0,-1.335507797E1,-8.723110199E0,1.620729432E1
1.104130600E1,4.305047607E-1,-1.367630997E1,-5.024601288E0,1.457646757E1
1.105131000E1,-1.667981415E0,-1.413226181E1,-1.626367950E0,1.432299056E1
1.106131400E1,-2.549797668E0,-1.408585831E1,-7.050338745E-2,1.431495173E1
1.107131800E1,-2.000889130E0,-1.365460510E1,3.953279114E-1,1.380608858E1
1.108132200E1,-8.891510010E-1,-1.333217560E1,4.305047607E-1,1.336872582E1
1.109132600E1,4.463717651E-1,-1.306498123E1,4.478686523E-1,1.308027403E1
1.110133000E1,2.092199249E0,-1.208706482E1,1.539249115E0,1.236299808E1
1.111133300E1,4.700375519E0,-1.067594925E1,3.095263367E0,1.206855740E1
1.112133700E1,5.451363831E0,-9.746382294E0,2.728825378E0,1.149590463E1
1.113134100E1,4.478087769E0,-9.941875763E0,2.504441986E0,1.118777875E1
1.114134500E1,4.474195862E0,-1.147109573E1,1.678609314E0,1.242667273E1
1.115134900E1,5.685177612E0,-1.303579193E1,1.178499298E0,1.427031802E1
1.116135300E1,7.085216217E0,-1.376881760E1,9.346563721E-1,1.551303353E1
1.117135700E1,6.589896240E0,-1.349818039E1,8.023315430E-2,1.502111992E1
1.118136100E1,5.295537872E0,-1.254316635E1,-1.055754547E0,1.365607415E1
1.119136500E1,4.766238556E0,-1.173065598E1,-2.203567657E0,1.285227723E1
1.120136900E1,4.167333984E0,-1.142499161E1,-2.923420715E0,1.250773738E1
1.121137200E1,3.315305786E0,-1.094059891E1,-3.037184143E0,1.182845909E1
1.122137600E1,2.583777008E0,-1.022837997E1,-2.743345184E0,1.090053225E1
1.123138000E1,2.061662750E0,-9.767189026E0,-2.476450195E0,1.028500075E1
1.124138400E1,2.329455872E0,-9.452243958E0,-1.979034576E0,9.934176279E0
1.125138800E1,2.218237152E0,-8.893905029E0,-1.161734161E0,9.239683382E0
1.126139200E1,5.839356995E-1,-8.418793030E0,-1.509910126E0,8.573032460E0
1.127139600E1,-2.037263489E-1,-8.227341156E0,-1.097218323E0,8.302682396E0
1.128140000E1,-4.227209473E-1,-7.973169708E0,-1.171164551E0,8.069805115E0
1.129140400E1,-7.394622803E-1,-7.573351135E0,-1.279090118E0,7.716121008E0
1.130140700E1,-7.203021240E-1,-7.576344910E0,-6.167175293E-1,7.635455314E0
1.131141100E1,5.298980713E-2,-7.920179901E0,6.758445740E-1,7.949139795E0
1.132141500E1,7.634124756E-2,-7.892936554E0,9.699829102E-1,7.952681452E0
1.133141900E1,5.493576050E-1,-6.945706329E0,-1.184337158E0,7.067339294E0
1.134142300E1,1.288221130E0,-6.026467896E0,-5.581892395E-1,6.187843259E0
1.135142700E1,2.130070496E0,-5.339396667E0,-3.921844482E-1,5.761958498E0
1.136143100E1,2.338137817E0,-4.810696106E0,3.118016052E-1,5.357882578E0
1.137143500E1,2.680625610E0,-4.242328033E0,1.251547394E0,5.171989142E0
1.138143900E1,3.078947296E0,-3.526067505E0,1.945055237E0,5.069152629E0
1.139144300E1,3.127895508E0,-3.104394379E0,2.125729523E0,4.892823394E0
1.140144600E1,2.984793091E0,-2.938239899E0,1.897903290E0,4.598291030E0
1.141145000E1,2.632276154E0,-2.936443634E0,1.316661987E0,4.157544678E0
1.142145400E1,2.093097382E0,-3.075354767E0,4.424798584E-1,3.746285095E0
1.143145800E1,1.628014526E0,-3.350782013E0,-4.110452271E-1,3.747950050E0
1.144146200E1,1.168619843E0,-3.647465057E0,-1.314716034E0,4.049463166E0
1.145146600E1,9.199868774E-1,-4.181853790E0,-2.562221832E0,4.989915600E0
1.146147000E1,8.572673035E-1,-5.062472534E0,-3.976181488E0,6.494116923E0
1.147147400E1,1.168170776E0,-6.176156616E0,-5.905070343E0,8.624348629E0
1.148147800E1,1.632056122E0,-7.437882843E0,-8.036488037E0,1.107117195E1
1.149148200E1,2.091301117E0,-9.135951691E0,-1.004366409E1,1.373733388E1
1.150148500E1,3.429069214E0,-1.157318344E1,-1.236847961E1,1.728225618E1
1.151148900E1,5.314548340E0,-1.530073196E1,-1.603675140E1,2.279329327E1
1.152149300E1,6.161187744E0,-2.007460464E1,-1.914159485E1,2.841391630E1
1.153149700E1,6.670728149E0,-2.267619461E1,-1.678624283E1,2.899114286E1
1.154150100E1,6.156098328E0,-2.043984512E1,-1.210487778E1,2.454002611E1
1.155150500E1,4.895270233E0,-1.624466904E1,-9.771679688E0,1.957903641E1
1.156150900E1,3.887416077E0,-1.101738922E1,-8.033494263E0,1.417857183E1
1.157151300E1,3.888912964E0,-5.952671356E0,-7.793992310E0,1.055008324E1
1.158151700E1,3.627855835E0,-2.298919373E0,-8.020770721E0,9.098303754E0
1.159152100E1,2.904559937E0,-7.274871826E-1,-5.134023743E0,5.943391777E0
1.160152400E1,2.704575806E0,-1.011746063E0,-4.300556946E-1,2.919470549E0
1.161152800E1,3.764371948E0,-2.882256317E0,7.828720093E-1,4.805287320E0
1.162153200E1,6.428980865E0,-6.859635315E0,-2.049837341E0,9.622277524E0
1.163153600E1,7.818990326E0,-1.189127197E1,-3.724255371E0,1.471084759E1
1.164154000E1,6.732549591E0,-1.601310059E1,-3.673810272E0,1.775509775E1
1.165154400E1,4.807253265E0,-1.678250061E1,-5.319039001E0,1.824977223E1
1.166154800E1,4.971910858E0,-1.439257050E1,-7.331154785E0,1.690005365E1
1.167155200E1,4.054468689E0,-9.741891632E0,-1.233285370E0,1.062375460E1
1.168155600E1,2.286195831E0,-3.686084747E0,1.142753632E1,1.222303147E1
1.169156000E1,5.738317108E0,-6.535409546E-1,9.339378662E0,1.098086485E1
1.170156400E1,8.947194214E0,-1.139280853E0,1.245110779E0,9.104973697E0
1.171156700E1,7.203320618E0,-4.587959290E0,-5.926326141E0,1.039512097E1
1.172157100E1,2.546205139E0,-9.118138733E0,-5.262905731E0,1.083151842E1
1.173157500E1,1.272354126E-1,-1.164473465E1,5.773493958E-1,1.165973268E1
1.174157900E1,-7.035369873E-1,-1.312440765E1,2.668800201E0,1.341147028E1
1.175158246E1,1.606159973E-1,-1.336854996E1,3.389701080E0,1.379253417E1
1.176158646E1,2.178569641E0,-1.223959763E1,3.942950592E0,1.304226879E1
1.177159046E1,2.805316315E0,-1.103879471E1,3.863615570E0,1.202714902E1
1.178159446E1,1.484612732E0,-1.091859467E1,2.663112030E0,1.133631113E1
1.179159846E1,-1.774709473E0,-1.194456116E1,-3.542533264E0,1.258458092E1
1.180160246E1,-3.213816833E0,-1.306962158E1,-6.885681152E0,1.511807633E1
1.181160646E1,-1.289867706E0,-1.365385666E1,-3.802243195E0,1.423195748E1
1.182160946E1,-5.547463989E-1,-1.329325653E1,-3.223396912E0,1.368972974E1
1.183161346E1,3.448828125E-1,-1.151705017E1,-2.504441986E0,1.179125178E1
1.184161746E1,1.388063507E0,-9.882299652E0,-1.181792450E0,1.004903976E1
1.185162146E1,1.381626892E0,-9.576036530E0,-4.251159668E-1,9.684528490E0
1.186162546E1,1.351240082E0,-8.551566925E0,-1.496887207E-1,8.658957983E0
1.187162946E1,1.436113586E0,-7.400011597E0,-2.200424194E-1,7.541287193E0
1.188163346E1,1.883084106E0,-6.611900482E0,-5.328918457E-1,6.895448314E0
1.189163746E1,2.165995789E0,-5.842350769E0,-1.097368011E0,6.326833080E0
1.190164146E1,1.201701050E0,-6.390211487E0,-1.419198761E0,6.655299646E0
1.191164546E1,8.361611938E-1,-7.471413116E0,-1.736688538E0,7.716039565E0
1.192164946E1,-1.213975525E-1,-8.068970490E0,-1.357676697E0,8.183294455E0
1.193165346E1,-3.999682617E-1,-8.587043152E0,-1.007854156E0,8.655232793E0
1.194165646E1,3.302133179E-1,-8.816366272E0,-1.474284210E0,8.944879485E0
1.195166046E1,3.091072083E-1,-8.914861450E0,-1.897603912E0,9.119824700E0
1.196166446E1,5.221142578E-1,-8.711584167E0,-1.970053253E0,8.946810148E0
1.197166846E1,1.029259644E0,-8.635093231E0,-2.187401276E0,8.967102925E0
1.198167246E1,1.257984009E0,-8.613987122E0,-2.230212250E0,8.986497904E0
1.199167646E1,1.045126648E0,-8.432265015E0,-2.058668976E0,8.742625518E0
1.200168046E1,6.806346130E-1,-8.141120453E0,-1.887275391E0,8.384683304E0
1.201168446E1,4.942721558E-1,-7.976612549E0,-1.590592346E0,8.148658585E0
1.202168846E1,3.694317627E-1,-7.930358734E0,-1.270258484E0,8.039939434E0
1.203169246E1,3.514691162E-1,-8.189769287E0,-8.750802612E-1,8.243883610E0
1.204169646E1,5.233117676E-1,-8.559949493E0,-5.628295898E-1,8.594380006E0
1.205170046E1,7.509883118E-1,-9.172475739E0,-5.008584595E-1,9.216786523E0
1.206170346E1,8.021818542E-1,-9.814490662E0,-7.159611511E-1,9.873212397E0
1.207170746E1,5.789959717E-1,-1.047970734E1,-1.128952332E0,1.055623207E1
1.208171146E1,4.236190796E-1,-1.106738525E1,-1.542841644E0,1.118243398E1
1.209171546E1,3.463796997E-1,-1.138607254E1,-1.840273132E0,1.153903081E1
1.210171946E1,5.807922363E-1,-1.111363907E1,-1.818568268E0,1.127641271E1
1.211172346E1,3.890409851E-1,-1.076561279E1,-1.480720825E0,1.087392780E1
1.212172746E1,-1.407373352E0,-1.123413849E1,-9.789642334E-1,1.136419545E1
1.213173146E1,-3.521127777E0,-1.169009033E1,-4.834945679E-2,1.220896762E1
1.214173546E1,-5.279521179E0,-1.207508972E1,8.458909607E-1,1.320593303E1
1.215173946E1,-5.906417542E0,-1.227806763E1,7.417076111E-1,1.364502997E1
1.216174346E1,-4.757406921E0,-1.211086533E1,-3.323089600E-1,1.301600587E1
1.217174746E1,-2.053429871E0,-1.192255692E1,-1.972597961E0,1.225785790E1
1.218175146E1,8.830137634E-1,-1.240769806E1,-3.869303741E0,1.302697954E1
1.219175446E1,2.923720093E0,-1.341989319E1,-6.185437317E0,1.506324358E1
1.220175846E1,3.080593872E0,-1.368259689E1,-8.088579712E0,1.619038721E1
1.221176246E1,1.440753937E0,-1.397733398E1,-6.816225586E0,1.561738033E1
1.222176646E1,-2.597099304E-1,-1.400053574E1,-2.708168335E0,1.426242006E1
1.223177046E1,-1.937121735E0,-1.334579727E1,8.337661743E-2,1.348590735E1
1.224177446E1,-2.961291962E0,-1.303564224E1,1.366807709E0,1.343746189E1
1.225177846E1,-2.301314392E0,-1.323951828E1,2.229613495E0,1.362174983E1
1.226178246E1,5.536985779E-1,-1.323727295E1,2.284249878E0,1.344432128E1
1.227178646E1,3.332220612E0,-1.200892731E1,2.732717285E0,1.275875280E1
1.228179046E1,4.854255524E0,-1.002510269E1,4.893174591E0,1.216592118E1
1.229179446E1,5.204826508E0,-9.738149414E0,4.171824646E0,1.180363901E1
1.230179846E1,4.252656555E0,-9.804311829E0,2.213746490E0,1.091376616E1
1.231180146E1,3.727698212E0,-1.102247864E1,1.568288727E0,1.174096669E1
1.232180546E1,5.148992615E0,-1.269599854E1,1.060843964E0,1.374139344E1
1.233180946E1,6.924151154E0,-1.346629669E1,1.096918945E0,1.518183938E1
1.234181346E1,6.944957886E0,-1.354787704E1,4.555027771E-1,1.523105037E1
1.235181746E1,5.910608826E0,-1.316497330E1,-1.099912720E0,1.447278918E1
1.236182146E1,5.510341187E0,-1.249302063E1,-2.326312408E0,1.385103440E1
1.237182546E1,4.776118011E0,-1.198662369E1,-2.775827637E0,1.319832072E1
1.238182946E1,4.013903046E0,-1.137364838E1,-2.196831665E0,1.225958255E1
1.239183346E1,3.632496185E0,-1.064182022E1,-1.904938660E0,1.140491813E1
1.240183746E1,3.256178741E0,-9.975555725E0,-1.905387726E0,1.066512608E1
1.241184146E1,2.823578339E0,-9.514514465E0,-1.885179749E0,1.010210289E1
1.242184546E1,2.084864502E0,-9.008117523E0,-1.463656311E0,9.361363741E0
1.243184846E1,8.440946960E-1,-8.430468750E0,-1.051862640E0,8.537664447E0
1.244185246E1,-1.824705505E-1,-7.857610016E0,-1.245260468E0,7.957763775E0
1.245185646E1,-7.369175720E-1,-7.543862457E0,-1.889071655E0,7.811625951E0
1.246186046E1,-1.062789917E0,-7.341932373E0,-1.953288116E0,7.671298967E0
1.247186446E1,-1.441203003E0,-7.476801910E0,-1.879641266E0,7.843002243E0
1.248186846E1,-1.108444977E0,-8.068072357E0,-1.307381287E0,8.248132374E0
1.249187246E1,1.743873596E-1,-7.790250092E0,-5.462141418E-1,7.811322380E0
1.250187646E1,3.975732422E-1,-7.169940033E0,-5.873785400E-1,7.204937065E0
1.251188046E1,9.141490173E-1,-6.460116119E0,-9.794132996E-1,6.597576761E0
1.252188446E1,2.019151154E0,-5.480253754E0,3.803590393E-1,5.852762218E0
1.253188846E1,2.895428925E0,-4.576283569E0,2.336191864E0,5.897768425E0
1.254189246E1,3.723506927E0,-3.718118134E0,2.372566223E0,5.772172622E0
1.255189646E1,4.084107056E0,-2.875670013E0,2.152074738E0,5.438826541E0
1.256189946E1,3.912563782E0,-2.356100464E0,2.026036835E0,4.996417716E0
1.257190346E1,3.365002441E0,-2.272424469E0,1.612746277E0,4.368993586E0
1.258190746E1,2.602488098E0,-2.709814911E0,1.130299530E0,3.923470171E0
1.259191146E1,1.767524414E0,-3.266357574E0,3.833528137E-1,3.733656885E0
1.260191546E1,1.126407623E0,-3.653751984E0,-5.990542603E-1,3.870085748E0
1.261191946E1,5.539979553E-1,-4.159999237E0,-1.746268616E0,4.545543033E0
1.262192346E1,4.950205994E-1,-4.774770813E0,-3.142565002E0,5.737525294E0
1.263192746E1,5.833369446E-1,-5.618266754E0,-4.722080383E0,7.362285410E0
1.264193146E1,6.381230164E-1,-6.513255615E0,-6.447991333E0,9.187289694E0
1.265193546E1,1.099164276E0,-7.457941132E0,-8.190068665E0,1.113131945E1
1.266193946E1,2.374362488E0,-8.798403625E0,-9.693392487E0,1.330456168E1
1.267194346E1,3.934118958E0,-1.101289856E1,-1.087413712E1,1.596897256E1
1.268194646E1,5.669310608E0,-1.424752213E1,-1.305629929E1,2.013951143E1
1.269195046E1,6.324348450E0,-1.824136688E1,-1.632250717E1,2.528179364E1
1.270195446E1,6.233038330E0,-2.104892853E1,-1.693922470E1,2.772806327E1
1.271195846E1,5.435646515E0,-2.022923309E1,-1.385758301E1,2.511574668E1
1.272196246E1,4.672683105E0,-1.684432205E1,-1.057715469E1,2.043138160E1
1.273196646E1,4.362827454E0,-1.212134354E1,-9.129664764E0,1.578961720E1
1.274197046E1,3.650458832E0,-7.301815796E0,-8.573870544E0,1.183864940E1
1.275197437E1,2.954705658E0,-3.186573486E0,-8.434510345E0,9.488176900E0
1.276197837E1,2.497705994E0,-4.448748779E-1,-7.303462372E0,7.731559448E0
1.277198238E1,2.258204041E0,5.828878784E-1,-3.992946625E0,4.624161169E0
1.278198637E1,3.406765594E0,-5.312452698E-1,-1.050665131E0,3.604465365E0
1.279199038E1,5.460943909E0,-3.584296417E0,-8.467890930E-1,6.586815691E0
1.280199437E1,7.501051483E0,-7.480095062E0,-1.354982300E0,1.067958672E1
1.281199737E1,8.209677887E0,-1.134041748E1,-4.981640625E-1,1.400899879E1
1.282200137E1,7.758815460E0,-1.429751816E1,1.601669312E-2,1.626709868E1
1.283200537E1,7.318880310E0,-1.669807617E1,-2.243085480E0,1.836908243E1
1.284200937E1,7.337741089E0,-1.775098663E1,-8.615034943E0,2.105133720E1
1.285201337E1,3.826941833E0,-1.488384888E1,-6.447991333E0,1.666586432E1
1.286201737E1,2.511776733E-1,-7.595654755E0,8.781937866E0,1.161376313E1
1.287202137E1,2.687361603E0,-2.681374054E0,8.415350189E0,9.231998592E0
1.288202537E1,6.208938446E0,-2.536625061E0,1.795965271E0,6.943405114E0
1.289202937E1,4.214635620E0,-5.363197174E0,-3.883973236E0,7.849349364E0
1.290203338E1,8.256829834E-1,-7.886499939E0,-3.588787079E0,8.703908684E0
1.291203737E1,3.963757324E-1,-9.452393646E0,1.359772339E0,9.557920285E0
1.292204138E1,1.145867157E0,-1.036265076E1,2.735561371E0,1.077872155E1
1.293204437E1,2.161954193E0,-1.076830719E1,2.849474487E0,1.134680530E1
1.294204838E1,2.960244141E0,-1.052790710E1,3.585344238E0,1.150889077E1
1.295205237E1,3.122057648E0,-1.049078430E1,3.915557556E0,1.162477485E1
1.296205637E1,2.480192413E0,-1.119072876E1,3.285368042E0,1.192381683E1
1.297206037E1,2.134561157E-1,-1.247011826E1,8.261320496E-1,1.249927626E1
1.298206437E1,-3.462898865E0,-1.452579346E1,-5.561085663E0,1.593474248E1
1.299206837E1,-4.096381531E0,-1.652578445E1,-5.927074585E0,1.802809215E1
1.300207237E1,-2.029779053E0,-1.516391647E1,-2.462978210E0,1.549614880E1
1.301207637E1,-9.894424438E-2,-1.185444855E1,-2.233655090E0,1.206345537E1
1.302208037E1,1.102457428E0,-1.039603134E1,-2.132615204E0,1.066962641E1
1.303208437E1,1.429676971E0,-9.614656219E0,-6.553372192E-1,9.742435903E0
1.304208737E1,1.151405640E0,-8.493936768E0,3.255729675E-1,8.577802429E0
1.305209138E1,1.347348175E0,-7.520960083E0,3.161425781E-1,7.647230466E0
1.306209537E1,1.833237762E0,-6.708599396E0,-1.351689148E-1,6.955885075E0
1.307209938E1,2.419867859E0,-6.121370544E0,-8.235873413E-1,6.633644089E0
1.308210337E1,2.890489197E0,-5.985752563E0,-1.658251648E0,6.850836451E0
1.309210737E1,2.369572449E0,-6.879094849E0,-2.009720764E0,7.548231387E0
1.310211137E1,1.421444092E0,-7.776778107E0,-1.652563477E0,8.076493489E0
1.311211537E1,2.125579834E-1,-8.221652985E0,-8.767268372E-1,8.270998044E0
1.312211937E1,-8.753796387E-1,-8.499624939E0,-9.310638428E-2,8.545091130E0
1.313212337E1,-1.914518738E-1,-9.064250793E0,-5.031037903E-1,9.080220795E0
1.314212737E1,7.304809570E-2,-8.901688843E0,-1.364861755E0,9.006011764E0
1.315213137E1,1.642085266E-1,-8.570727081E0,-1.594633942E0,8.719356889E0
1.316213537E1,3.112028503E-1,-8.241411896E0,-1.619781647E0,8.404844426E0
1.317213837E1,4.242178345E-1,-7.996521149E0,-1.717229004E0,8.189822141E0
1.318214238E1,5.701643372E-1,-8.072413330E0,-1.680854645E0,8.265241477E0
1.319214637E1,6.174659729E-1,-8.248147888E0,-1.537452850E0,8.412904913E0
1.320215038E1,6.273454285E-1,-8.242310028E0,-1.332379303E0,8.372841303E0
1.321215437E1,6.505471802E-1,-8.280780029E0,-1.106499023E0,8.379670018E0
1.322215837E1,7.917036438E-1,-8.652157745E0,-8.053253174E-1,8.725547386E0
1.323216237E1,1.007105713E0,-9.350006561E0,-6.098318481E-1,9.423841016E0
1.324216637E1,1.102906494E0,-1.008243347E1,-7.336244202E-1,1.016907431E1
1.325217037E1,1.070424042E0,-1.062834824E1,-1.048868866E0,1.073348591E1
1.326217437E1,9.321116638E-1,-1.121363113E1,-1.413211212E0,1.134070198E1
1.327217837E1,5.213658142E-1,-1.163156204E1,-1.572779388E0,1.174898689E1
1.328218237E1,-5.643264771E-2,-1.146121628E1,-1.778302002E0,1.159849220E1
1.329218538E1,-8.422984314E-1,-1.131227600E1,-2.407892761E0,1.159633574E1
1.330218937E1,-2.029030609E0,-1.162437698E1,-2.598745880E0,1.208290468E1
1.331219338E1,-3.240012360E0,-1.174652298E1,-2.056723022E0,1.235753178E1
1.332219737E1,-4.090244293E0,-1.172002808E1,-9.704319763E-1,1.245114030E1
1.333220138E1,-4.363276520E0,-1.157258469E1,-1.184037781E-1,1.236838380E1
1.334220537E1,-3.583997040E0,-1.146181503E1,-3.023712158E-2,1.200912790E1
1.335220937E1,-1.358874207E0,-1.145253433E1,-6.245013428E-1,1.154976552E1
1.336221337E1,1.080752563E0,-1.171224426E1,-1.693578186E0,1.188330336E1
1.337221737E1,2.828069000E0,-1.260843063E1,-3.651057587E0,1.342761032E1
1.338222137E1,3.250640259E0,-1.353156097E1,-6.063890076E0,1.518026901E1
1.339222537E1,2.151326294E0,-1.350791016E1,-6.946005707E0,1.534075738E1
1.340222937E1,-5.777984619E-2,-1.378887589E1,-5.697601776E0,1.491975545E1
1.341223237E1,-2.264341278E0,-1.405427399E1,-2.848726044E0,1.451775116E1
1.342223638E1,-3.611390076E0,-1.344144836E1,-2.619552612E-1,1.392060677E1
1.343224037E1,-3.695365448E0,-1.267144958E1,9.165440369E-1,1.323107756E1
1.344224438E1,-2.427651672E0,-1.240141113E1,9.032217407E-1,1.266902918E1
1.345224837E1,-7.292834473E-1,-1.223226288E1,8.705895996E-1,1.228487020E1
1.346225238E1,1.934427338E0,-1.091021210E1,2.778222656E0,1.142336458E1
1.347225637E1,5.437891846E0,-9.861792297E0,4.790188751E0,1.223811764E1
1.348226037E1,6.399641876E0,-1.020607635E1,3.490441589E0,1.254203306E1
1.349226437E1,5.645210724E0,-1.126826752E1,2.531535645E0,1.285499629E1
1.350226837E1,5.490582275E0,-1.270303391E1,2.210453339E0,1.401426659E1
1.351227237E1,6.731651459E0,-1.403167099E1,1.646276550E0,1.564970123E1
1.352227537E1,6.935826874E0,-1.449555634E1,1.317410431E0,1.612335009E1
1.353227937E1,5.246439972E0,-1.361374008E1,1.453477478E-1,1.459041389E1
1.354228337E1,3.991599426E0,-1.252325775E1,-1.402882690E0,1.321865842E1
1.355228737E1,3.800746307E0,-1.196297287E1,-2.762804718E0,1.285268386E1
1.356229137E1,3.731889496E0,-1.177795761E1,-3.528013458E0,1.284889737E1
1.357229538E1,3.171155548E0,-1.170116730E1,-3.339854736E0,1.257490252E1
1.358229937E1,2.708018646E0,-1.140283768E1,-2.689606934E0,1.202464376E1
1.359230338E1,2.895877991E0,-1.091290649E1,-2.251468048E0,1.151289476E1
1.360230737E1,2.921175385E0,-1.029693741E1,-1.856738892E0,1.086313329E1
1.361231137E1,2.399510193E0,-9.283095703E0,-1.883233795E0,9.771391125E0
1.362231537E1,1.204994202E0,-8.259524231E0,-2.201921082E0,8.632508789E0
1.363231937E1,1.456471252E-1,-7.732769623E0,-2.135608978E0,8.023575564E0
1.364232237E1,-4.185296631E-1,-7.381599884E0,-1.527573395E0,7.549613527E0
1.365232637E1,-4.854405212E-1,-7.231611786E0,-1.068029022E0,7.326155029E0
1.366233037E1,-3.540138245E-1,-7.112758942E0,-1.905537415E-1,7.124112315E0
1.367233437E1,-1.098415833E0,-7.398215332E0,3.293151855E-3,7.479312688E0
1.368233837E1,-1.027014313E0,-8.036338348E0,5.740562439E-1,8.122009174E0
1.369234237E1,-2.713856506E-1,-7.436086578E0,7.991880798E-1,7.483831596E0
1.370234638E1,1.131497040E0,-6.285878448E0,4.683760071E-1,6.404055707E0
1.371235037E1,1.552272034E0,-5.296885071E0,1.149609375E0,5.638097342E0
1.372235438E1,2.565365295E0,-4.182751923E0,1.824555817E0,5.235027858E0
1.373235837E1,3.032693481E0,-3.110531616E0,2.129771118E0,4.838239525E0
1.374236238E1,3.237916718E0,-2.357597351E0,2.430944824E0,4.685281494E0
1.375236708E1,3.196303253E0,-1.939965820E0,2.309846649E0,4.394907668E0
1.376237008E1,2.764900360E0,-2.154918823E0,1.820813599E0,3.950153326E0
1.377237408E1,2.116149445E0,-2.500999146E0,1.161135406E0,3.475819418E0
1.378237808E1,1.657054138E0,-2.771187286E0,3.640429688E-1,3.249282179E0
1.379238208E1,1.487606506E0,-3.023712158E0,-4.188290405E-1,3.395765908E0
1.380238608E1,1.523681488E0,-3.448079681E0,-1.408870239E0,4.024397361E0
1.381239008E1,1.707050171E0,-4.188889160E0,-2.595303040E0,5.215017790E0
1.382239408E1,1.951491852E0,-5.292843475E0,-3.871998138E0,6.842140169E0
1.383239808E1,1.972148895E0,-6.446195068E0,-5.741011505E0,8.854491246E0
1.384240208E1,2.092648315E0,-7.913743286E0,-7.722141724E0,1.125335428E1
1.385240608E1,2.558778992E0,-1.018482056E1,-1.019005966E1,1.463267698E1
1.386241008E1,3.909120941E0,-1.307740540E1,-1.403316788E1,1.957624987E1
1.387241308E1,5.927523651E0,-1.755414597E1,-1.939501785E1,2.682257062E1
1.388241708E1,6.898105316E0,-2.340907059E1,-2.146251846E1,3.249935602E1
1.389242108E1,7.604935455E0,-2.523003387E1,-1.545176788E1,3.054745134E1
1.390242508E1,6.658303986E0,-2.095252899E1,-1.038749908E1,2.431546052E1
1.391242908E1,3.578308868E0,-1.381297577E1,-8.995992737E0,1.686803128E1
1.392243308E1,1.725312195E0,-6.389762421E0,-9.810299377E0,1.183417677E1
1.393243708E1,7.083270264E-1,-8.134085083E-1,-1.029603928E1,1.035238066E1
1.394244108E1,3.321592712E-1,1.979184265E0,-8.256829834E0,8.497219489E0
1.395244508E1,1.095122681E0,2.341430969E0,-4.199517059E0,4.931281395E0
1.396244908E1,2.738704834E0,2.766247559E-1,2.368075562E-1,2.762807131E0
1.397245308E1,5.622008972E0,-2.993025970E0,1.841021576E0,6.629822757E0
1.398245708E1,8.950786743E0,-7.409741364E0,2.522853699E0,1.189056942E1
1.399246008E1,1.070468948E1,-1.238000565E1,3.020568695E0,1.664267863E1
1.400246408E1,1.081785416E1,-1.654494461E1,1.755848694E-1,1.976845949E1
1.401246808E1,9.563911743E0,-2.008298721E1,-6.758595428E0,2.324808369E1
1.402247208E1,7.686366119E0,-2.119951538E1,-1.561702423E1,2.742974886E1
1.403247608E1,1.696721649E0,-1.470601868E1,-2.766696625E0,1.505989575E1
1.404248008E1,-1.494791565E0,-4.946314087E0,1.413974625E1,1.505432990E1
1.405248408E1,3.920646973E0,-3.498225403E-1,8.599617004E0,9.457656217E0
1.406248808E1,6.657705231E0,-9.199868774E-1,-2.667453003E-1,6.726259573E0
1.407249208E1,3.947441254E0,-4.195475464E0,-5.513185272E0,7.973676609E0
1.408249608E1,3.041674805E-1,-8.196205902E0,-1.825004883E0,8.402437258E0
1.409250008E1,-7.252418518E-1,-1.084928879E1,2.940784607E0,1.126415807E1
1.410250408E1,-1.221459961E-1,-1.250739075E1,3.698508911E0,1.304333972E1
1.411250808E1,1.362616425E0,-1.307022034E1,3.006198578E0,1.348052718E1
1.412251108E1,2.716700592E0,-1.299417847E1,2.683020630E0,1.354354960E1
1.413251508E1,3.344345398E0,-1.272189468E1,2.702929230E0,1.342896410E1
1.414251908E1,2.546654205E0,-1.273536667E1,1.651815033E0,1.309211613E1
1.415252308E1,2.264790344E-1,-1.292157944E1,-8.062234497E-1,1.294868735E1
1.416252708E1,-1.685644684E0,-1.355715775E1,-4.415368195E0,1.435734657E1
1.417253108E1,-6.801855469E-1,-1.346450043E1,-5.351521454E0,1.450497177E1
1.418253508E1,1.061293030E0,-1.156794434E1,-4.066144409E0,1.230760779E1
1.419253908E1,1.596130829E0,-1.009261230E1,-3.121458893E0,1.068419217E1
1.420254308E1,1.781146088E0,-9.650431824E0,-2.310445404E0,1.008173962E1
1.421254708E1,1.769170990E0,-9.195827179E0,-1.358425140E0,9.462479715E0
1.422255108E1,1.865869904E0,-8.156688080E0,-7.695497131E-1,8.402692288E0
1.423255408E1,1.958227844E0,-7.429949341E0,-5.462141418E-1,7.703061300E0
1.424255808E1,1.948947144E0,-6.943311310E0,-5.358856201E-1,7.231537894E0
1.425256208E1,1.658700714E0,-6.402186584E0,-4.643344116E-1,6.629848231E0
1.426256608E1,1.072220306E0,-6.363566895E0,-7.948471069E-2,6.453755327E0
1.427257008E1,6.563850403E-1,-7.195686493E0,-1.627116394E-1,7.227393756E0
1.428257408E1,1.083746338E0,-8.099357300E0,-9.038204956E-1,8.221373747E0
1.429257808E1,5.337899780E-1,-8.476572876E0,-1.225501556E0,8.581321199E0
1.430258208E1,-2.896476746E-1,-8.539292450E0,-1.128802643E0,8.618445726E0
1.431258608E1,-6.640191650E-1,-8.542585602E0,-1.254092102E0,8.659644174E0
1.432259008E1,-8.470884705E-1,-8.517886963E0,-1.618584137E0,8.711588363E0
1.433259408E1,-5.966592407E-1,-8.631500702E0,-1.666334839E0,8.811099728E0
1.434259808E1,-4.528083801E-1,-8.785231018E0,-1.380130005E0,8.904497644E0
1.435260108E1,-3.466790771E-1,-8.716823273E0,-1.253942413E0,8.813374264E0
1.436260508E1,1.098715210E-1,-8.407416687E0,-1.216669922E0,8.495705550E0
1.437260908E1,7.438032532E-1,-8.040679321E0,-1.288071442E0,8.177095772E0
1.438261308E1,1.222208405E0,-7.795040131E0,-1.417402496E0,8.016574946E0
1.439261708E1,1.330732727E0,-7.694598999E0,-1.597777405E0,7.970608257E0
1.440262108E1,1.320553894E0,-8.019423523E0,-1.649719391E0,8.293165276E0
1.441262508E1,1.328786774E0,-8.936117249E0,-1.572629700E0,9.170225185E0
1.442262908E1,1.195264435E0,-1.002405487E1,-1.695673828E0,1.023648586E1
1.443263308E1,9.018745422E-1,-1.090721832E1,-2.045496368E0,1.113395009E1
1.444263708E1,6.327342224E-1,-1.134281250E1,-2.482886810E0,1.162860589E1
1.445264108E1,2.665956116E-1,-1.139670044E1,-2.625390472E0,1.169822761E1
1.446264508E1,-3.773652649E-1,-1.119222565E1,-2.528242493E0,1.148043246E1
1.447264908E1,-1.140178986E0,-1.086650299E1,-2.502795410E0,1.120914271E1
1.448265208E1,-2.178869019E0,-1.075258987E1,-2.163002014E0,1.118231805E1
1.449265608E1,-3.352129211E0,-1.103131027E1,-1.225651245E0,1.159434334E1
1.450266008E1,-4.505181427E0,-1.150732040E1,7.349716187E-2,1.235801296E1
1.451266408E1,-5.061873779E0,-1.203991287E1,1.107247467E0,1.310755756E1
1.452266808E1,-4.477339325E0,-1.237267090E1,1.477727051E0,1.324059024E1
1.453267208E1,-2.526595917E0,-1.236473740E1,1.010548553E0,1.266063293E1
1.454267608E1,5.599855042E-1,-1.266321671E1,-3.752696228E-1,1.268114618E1
1.455268008E1,2.878813477E0,-1.353305786E1,-2.798280945E0,1.411600504E1
1.456268408E1,3.956123199E0,-1.376986542E1,-5.602399750E0,1.538333473E1
1.457268808E1,3.044668579E0,-1.381073044E1,-8.050409088E0,1.627314870E1
1.458269208E1,6.893165588E-1,-1.370145767E1,-7.002887421E0,1.540277676E1
1.459269608E1,-2.375260620E0,-1.390862686E1,-3.281625824E0,1.448657421E1
1.460270008E1,-4.391717377E0,-1.371448059E1,-2.315684509E-1,1.440235340E1
1.461270308E1,-4.102518768E0,-1.303923477E1,1.606609039E0,1.376348416E1
1.462270708E1,-1.734892273E0,-1.261516663E1,1.922152863E0,1.287815794E1
1.463271108E1,1.547032928E0,-1.181582886E1,1.303190002E0,1.198771983E1
1.464271508E1,4.013753357E0,-1.016940262E1,2.092798004E0,1.113134175E1
1.465271908E1,5.644911346E0,-8.596323853E0,4.015699310E0,1.104027395E1
1.466272308E1,5.355413361E0,-8.829089813E0,3.637286224E0,1.094820215E1
1.467272708E1,4.181554413E0,-9.812245331E0,2.652633820E0,1.099099731E1
1.468273108E1,4.650678864E0,-1.188678131E1,1.933828583E0,1.290984418E1
1.469273508E1,7.081923065E0,-1.392988266E1,1.238225098E0,1.567572858E1
1.470273908E1,8.388855286E0,-1.483819382E1,5.195695496E-1,1.705329415E1
1.471274308E1,6.536307678E0,-1.380908386E1,3.412902832E-2,1.527793441E1
1.472274708E1,4.793182526E0,-1.219349350E1,-1.820214844E-1,1.310301546E1
1.473275108E1,4.007017365E0,-1.145373184E1,-8.533753967E-1,1.216439110E1
1.474275508E1,3.292253723E0,-1.159638519E1,-1.634600830E0,1.216499092E1
1.475275796E1,2.881058807E0,-1.184322189E1,-2.390528870E0,1.242083061E1
1.476276196E1,2.708018646E0,-1.163201111E1,-2.740501099E0,1.225346456E1
1.477276596E1,2.265239410E0,-1.114881592E1,-2.919977875E0,1.174536831E1
1.478276996E1,1.496438141E0,-1.057715469E1,-3.100053406E0,1.112321265E1
1.479277396E1,6.641688538E-1,-9.654323730E0,-2.511926422E0,9.997842833E0
1.480277796E1,-5.884263611E-1,-8.675209808E0,-2.077080688E0,8.939786071E0
1.481278196E1,-1.378034363E0,-8.075556793E0,-2.189047852E0,8.479712656E0
1.482278596E1,-1.460512848E0,-7.745193787E0,-2.176923065E0,8.176803691E0
1.483278996E1,-1.086740112E0,-7.549251251E0,-1.836680603E0,7.845100010E0
1.484279396E1,-4.980143738E-1,-7.438780975E0,-1.413660278E0,7.588274909E0
1.485279796E1,-2.915936279E-1,-7.498357086E0,-1.053060150E0,7.577553795E0
1.486280196E1,3.225791931E-1,-7.421566772E0,-2.574645996E-1,7.433034287E0
1.487280596E1,1.034798126E0,-6.674320679E0,6.625222778E-1,6.786479165E0
1.488280896E1,2.072440338E0,-5.919290771E0,7.535330200E-1,6.316709919E0
1.489281296E1,2.093696136E0,-5.382656708E0,1.174457703E0,5.893717642E0
1.490281696E1,2.559976501E0,-4.827012177E0,1.865420837E0,5.773501636E0
1.491282096E1,2.897973633E0,-4.046385498E0,2.285896454E0,5.476934304E0
1.492282496E1,2.949466553E0,-3.025209045E0,2.499352570E0,4.908971988E0
1.493282896E1,2.958597565E0,-2.563119965E0,2.229463806E0,4.504818794E0
1.494283296E1,2.727777557E0,-2.447859650E0,1.866169281E0,4.112830540E0
1.495283696E1,2.279310150E0,-2.555036774E0,1.040186920E0,3.578471252E0
1.496284096E1,1.858385468E0,-2.816692657E0,1.294807434E-1,3.376998569E0
1.497284496E1,1.390308838E0,-3.262765045E0,-7.232958984E-1,3.619634147E0
1.498284896E1,1.161434784E0,-3.872596893E0,-1.923050995E0,4.477059591E0
1.499285296E1,1.096020813E0,-4.718787231E0,-3.352578278E0,5.891349223E0
1.500285696E1,1.338217163E0,-5.541177063E0,-5.014572144E0,7.592193504E0
1.501285996E1,1.886377258E0,-6.226302338E0,-6.932533722E0,9.507117532E0
1.502286396E1,2.516716461E0,-7.465275879E0,-9.015003204E0,1.197223824E1
1.503286796E1,3.704197083E0,-9.439071350E0,-1.068163742E1,1.472801826E1
1.504287196E1,5.103337555E0,-1.212029572E1,-1.259166550E1,1.820702234E1
1.505287596E1,6.162834320E0,-1.572899139E1,-1.549053726E1,2.292026269E1
1.506287996E1,6.242468719E0,-2.016082535E1,-1.791085419E1,2.768078742E1
1.507288396E1,5.796096954E0,-2.257066406E1,-1.579006439E1,2.814881436E1
1.508288796E1,4.597539368E0,-2.085268661E1,-1.144355301E1,2.422657245E1
1.509289196E1,3.549119568E0,-1.610860199E1,-9.458381195E0,1.901431783E1
1.510289596E1,3.270698547E0,-9.812544708E0,-8.620124359E0,1.346439923E1
1.511289996E1,2.949915619E0,-4.582570496E0,-8.853489075E0,1.039645244E1
1.512290396E1,1.928888855E0,-8.384065247E-1,-8.010442200E0,8.281951579E0
1.513290796E1,9.066645813E-1,1.584754486E0,-5.851930847E0,6.130137199E0
1.514291096E1,8.129594421E-1,2.441722412E0,-3.461551666E0,4.313380499E0
1.515291496E1,2.423909454E0,4.956193542E-1,-1.786534882E0,3.051668801E0
1.516291896E1,4.783303070E0,-3.263363800E0,-8.689430237E-1,5.855304734E0
1.517292296E1,6.903045044E0,-7.678582306E0,5.770500183E-1,1.034145269E1
1.518292696E1,8.733588409E0,-1.224528580E1,1.135538635E0,1.508350220E1
1.519293096E1,9.057065735E0,-1.613285156E1,-4.706213379E-1,1.850731811E1
1.520293496E1,7.601043549E0,-1.908366531E1,-5.850433960E0,2.135859832E1
1.521293896E1,5.791905670E0,-2.089205475E1,-1.385324203E1,2.572812542E1
1.522294296E1,3.807931366E0,-1.791070450E1,-9.314530334E0,2.054395659E1
1.523294696E1,-2.218386841E-1,-8.325536957E0,1.201835770E1,1.462206209E1
1.524295096E1,3.567381592E0,-1.121318207E0,1.082219513E1,1.145004250E1
1.525295496E1,9.568851471E0,3.083587646E-1,2.703228607E0,9.948137942E0
1.526295896E1,8.925788727E0,-2.329156494E0,-3.345842285E0,9.812712926E0
1.527296196E1,4.401147766E0,-6.048023071E0,-4.059109039E0,8.510290884E0
1.528296596E1,1.213676147E0,-9.010811920E0,4.264631653E-1,9.102176228E0
1.529296996E1,5.580395508E-1,-1.067714676E1,2.857108612E0,1.106688487E1
1.530297396E1,1.043480072E0,-1.132859207E1,3.717519379E0,1.196853372E1
1.531297796E1,2.803669739E0,-1.101140167E1,4.611460419E0,1.226283401E1
1.532298196E1,3.489693146E0,-1.122755219E1,4.267475739E0,1.250788693E1
1.533298596E1,3.612737274E0,-1.161584473E1,3.917503510E0,1.277992774E1
1.534298996E1,2.607577515E0,-1.205682770E1,3.807482300E0,1.290982092E1
1.535299396E1,-5.650749207E-1,-1.331181793E1,1.510658569E0,1.340917207E1
1.536299796E1,-5.640720062E0,-1.592134140E1,-8.827143860E0,1.905847065E1
1.537300196E1,-3.371289368E0,-1.558334427E1,-6.646328888E0,1.727367646E1
1.538300596E1,-5.649252319E-1,-1.274734177E1,-2.416874084E0,1.298672949E1
1.539300896E1,4.559518433E-1,-1.104942261E1,-2.295476532E0,1.129454933E1
1.540301296E1,9.053173828E-1,-1.059691360E1,-1.449435883E0,1.073382699E1
1.541301696E1,9.563612366E-1,-9.565109253E0,-1.487905884E-1,9.613952386E0
1.542302096E1,9.222322083E-1,-8.481213226E0,6.161187744E-1,8.553425769E0
1.543302496E1,1.099164276E0,-7.366481323E0,7.354206848E-1,7.484253655E0
1.544302896E1,1.706601105E0,-6.568341064E0,3.025209045E-1,6.793166461E0
1.545303296E1,2.328408051E0,-6.247857513E0,-1.020278320E0,6.745233533E0
1.546303696E1,2.232158203E0,-6.710545349E0,-1.746867371E0,7.284606697E0
1.547304096E1,1.931732941E0,-7.096592560E0,-1.751208344E0,7.560419881E0
1.548304496E1,7.327262878E-1,-7.483088837E0,-1.211430817E0,7.615843418E0
1.549304896E1,-8.399034119E-1,-8.140970764E0,-3.802093506E-1,8.193009330E0
1.550305296E1,-4.391867065E-1,-8.755892029E0,-2.981799316E-1,8.771969075E0
1.551305696E1,-2.451901245E-1,-9.059760132E0,-9.801617432E-1,9.115925015E0
1.552305996E1,1.227447510E-1,-8.727900238E0,-1.225651245E0,8.814393332E0
1.553306396E1,5.203179932E-1,-8.347990265E0,-1.350940704E0,8.472585973E0
1.554306796E1,8.652008057E-1,-8.188871155E0,-1.558558960E0,8.380649692E0
1.555307196E1,1.077908478E0,-8.009244690E0,-1.589095459E0,8.236207353E0
1.556307596E1,1.318308563E0,-7.745642853E0,-1.623972931E0,8.023104683E0
1.557307996E1,1.491049347E0,-7.626490631E0,-1.748064880E0,7.965068633E0
1.558308396E1,1.334325256E0,-7.880811768E0,-1.837878113E0,8.201549486E0
1.559308796E1,9.834548950E-1,-8.464148712E0,-1.825304260E0,8.714398005E0
1.560309196E1,7.126679993E-1,-9.430688782E0,-1.753004608E0,9.618669956E0
1.561309596E1,6.212081909E-1,-1.045605652E1,-1.695673828E0,1.061085893E1
1.562309996E1,4.746629333E-1,-1.133338211E1,-1.756896515E0,1.147856874E1
1.563310396E1,1.716929626E-1,-1.190249863E1,-1.921254730E0,1.205778470E1
1.564310696E1,-3.004252625E-1,-1.226369751E1,-2.097288666E0,1.244536668E1
1.565311096E1,-6.349795532E-1,-1.205862396E1,-2.291135559E0,1.229076536E1
1.566311496E1,-6.008505249E-1,-1.128608047E1,-2.493664398E0,1.157389286E1
1.567311896E1,-8.261320496E-1,-1.093640762E1,-2.290087738E0,1.120410673E1
1.568312296E1,-1.983824615E0,-1.120225479E1,-1.619482269E0,1.149124864E1
1.569312696E1,-3.585493927E0,-1.134206406E1,-5.348377991E-1,1.190731856E1
1.570313096E1,-4.286785583E0,-1.123638382E1,7.138655090E-1,1.204750829E1
1.571313496E1,-3.432811432E0,-1.098894836E1,9.535171509E-1,1.155207234E1
1.572313896E1,-1.600771179E0,-1.107442062E1,1.080752563E-1,1.119003757E1
1.573314296E1,6.972500610E-1,-1.166763702E1,-1.289568329E0,1.175937489E1
1.574314696E1,2.378853149E0,-1.297022827E1,-4.202361145E0,1.384000011E1
1.575314946E1,2.636617126E0,-1.412402893E1,-6.894961853E0,1.593676385E1
1.576315346E1,1.484912109E0,-1.433479065E1,-7.432494049E0,1.621521368E1
1.577315746E1,3.414399719E-1,-1.422402100E1,-5.342989197E0,1.519825280E1
1.578316146E1,-9.493258667E-1,-1.388407791E1,-2.191742249E0,1.408802943E1
1.579316546E1,-1.810036011E0,-1.297097672E1,-2.151026917E-1,1.309842496E1
1.580316946E1,-1.585203552E0,-1.206116867E1,9.729766846E-1,1.220374302E1
1.581317346E1,-8.629554749E-1,-1.154534134E1,1.553918610E0,1.168136387E1
1.582317746E1,-1.692979431E-1,-1.165341660E1,1.275796967E0,1.172426706E1
1.583318146E1,1.619332581E0,-1.040935364E1,2.428100739E0,1.081076104E1
1.584318546E1,3.988156586E0,-9.417216797E0,5.335804138E0,1.153517104E1
1.585318946E1,5.069956970E0,-9.959838409E0,4.075275421E0,1.189582761E1
1.586319346E1,5.693260803E0,-1.048030609E1,1.911225586E0,1.207902387E1
1.587319646E1,5.856571198E0,-1.200982544E1,1.286873932E0,1.342353820E1
1.588320046E1,6.527476044E0,-1.402747971E1,1.211131439E0,1.551918071E1
1.589320446E1,6.583759003E0,-1.508368332E1,1.141675873E0,1.649747886E1
1.590320846E1,5.515131226E0,-1.427296921E1,3.158432007E-2,1.530148097E1
1.591321246E1,4.545747070E0,-1.290661057E1,-1.473835144E0,1.376287044E1
1.592321646E1,3.918551331E0,-1.203751785E1,-2.690954132E0,1.294210627E1
1.593322046E1,3.213966522E0,-1.154070099E1,-2.953657837E0,1.233861640E1
1.594322446E1,2.710114288E0,-1.108564728E1,-2.459984436E0,1.167423738E1
1.595322846E1,2.236349487E0,-1.062101349E1,-2.292482758E0,1.109336125E1
1.596323246E1,1.646725616E0,-1.044557831E1,-2.490670624E0,1.086394273E1
1.597323646E1,1.566342773E0,-1.006761429E1,-2.274071045E0,1.043942940E1
1.598324046E1,1.536854095E0,-9.455686798E0,-1.879042511E0,9.762311924E0
1.599324346E1,8.599617004E-1,-8.776549072E0,-2.202669525E0,9.089504980E0
1.600324746E1,1.199006653E-1,-8.113577728E0,-2.211351471E0,8.410386142E0
1.601325146E1,-2.239343262E-1,-7.608977051E0,-1.888622589E0,7.843058946E0
1.602325546E1,-2.284249878E-1,-7.318730621E0,-2.065105591E0,7.607933818E0
1.603325946E1,-2.290237427E-1,-7.341483307E0,-1.257085876E0,7.451851711E0
1.604326346E1,-7.439529419E-2,-7.775430908E0,-2.029779053E-1,7.778435607E0
1.605326746E1,-2.095642090E-3,-8.052804108E0,2.386038208E-1,8.056338509E0
1.606327146E1,5.261558533E-1,-7.356452179E0,-5.715115356E-1,7.397354532E0
1.607327546E1,1.340612183E0,-6.211333466E0,2.037263489E-1,6.357626040E0
1.608327946E1,2.023641815E0,-5.149142303E0,1.015937347E0,5.625026342E0
1.609328346E1,2.533780975E0,-4.307292938E0,1.620230713E0,5.253376633E0
1.610328646E1,2.895578613E0,-3.704646149E0,2.300865326E0,5.234764545E0
1.611329046E1,3.122357025E0,-3.066672821E0,2.470462646E0,5.025612527E0
1.612329446E1,3.148402863E0,-2.617307281E0,2.245480499E0,4.669573927E0
1.613329846E1,2.667752380E0,-2.609224091E0,1.732946320E0,4.114371892E0
1.614330246E1,2.344574432E0,-2.664010162E0,7.755372620E-1,3.632552472E0
1.615330646E1,1.927242279E0,-2.879861298E0,-4.056564331E-2,3.465473917E0
1.616331046E1,1.493594055E0,-3.064726868E0,-9.794132996E-1,3.547199513E0
1.617331446E1,1.260678406E0,-3.423381042E0,-2.197280731E0,4.258742821E0
1.618331846E1,1.393751678E0,-4.019291840E0,-3.639980621E0,5.598813228E0
1.619332246E1,1.759590912E0,-4.857398987E0,-5.162614288E0,7.303634122E0
1.620332646E1,2.277364197E0,-5.962251434E0,-6.709796906E0,9.260464587E0
1.621332946E1,2.507286072E0,-7.492219849E0,-8.063132629E0,1.128866465E1
1.622333346E1,2.922672272E0,-9.384884033E0,-9.311835938E0,1.353987999E1
1.623333746E1,4.256847839E0,-1.196731384E1,-1.097293167E1,1.678518941E1
1.624334146E1,5.761219482E0,-1.568992264E1,-1.388662262E1,2.173024643E1
1.625334546E1,6.268215179E0,-2.057411591E1,-1.799677551E1,2.804404920E1
1.626334946E1,5.134323120E0,-2.406710220E1,-1.700538712E1,2.991270421E1
1.627335346E1,4.417463837E0,-2.227413071E1,-1.119956039E1,2.531957817E1
1.628335746E1,4.914729767E0,-1.666694092E1,-1.005324417E1,2.007508921E1
1.629336146E1,3.375330963E0,-9.110654297E0,-1.090512268E1,1.460542986E1
1.630336546E1,1.273102570E0,-2.922223206E0,-1.159952866E1,1.202951552E1
1.631336946E1,7.467970276E-1,6.556365967E-2,-1.058329193E1,1.060981020E1
1.632337246E1,2.403701477E0,4.406835938E-1,-5.715863800E0,6.216355991E0
1.633337646E1,4.535867615E0,-7.246430969E-1,7.095245361E-2,4.593934794E0
1.634338046E1,7.043303375E0,-3.750899963E0,2.762804718E0,8.444552261E0
1.635338446E1,1.074375824E1,-9.213340759E0,1.715283051E0,1.425679435E1
1.636338846E1,1.276261002E1,-1.578991470E1,-9.568103027E-1,2.032538085E1
1.637339246E1,1.026041336E1,-2.068144272E1,-4.763693848E0,2.357309768E1
1.638339646E1,3.913461914E0,-2.069835754E1,-8.848249969E0,2.284794776E1
1.639340046E1,2.389031982E-1,-1.553858734E1,-7.248526611E0,1.714776689E1
1.640340446E1,3.674858093E-1,-5.473068695E0,8.292605438E0,9.942677291E0
1.641340846E1,2.006876678E0,3.007396088E0,1.129895370E1,1.186331910E1
1.642341246E1,6.997947693E0,4.883893890E0,5.126688995E0,9.955231363E0
1.643341546E1,8.840466156E0,1.932780762E0,-8.457412720E-1,9.088716170E0
1.644341946E1,5.371579742E0,-3.397634583E0,-6.729106750E0,9.256277186E0
1.645342346E1,2.441423035E0,-9.521100769E0,-2.017055511E0,1.003396329E1
1.646342746E1,2.423759766E0,-1.354533234E1,3.513643341E0,1.420198328E1
1.647343146E1,2.699336700E0,-1.438897797E1,5.014422455E0,1.547493257E1
1.648343546E1,2.815046082E0,-1.332020050E1,5.395080872E0,1.464442295E1
1.649343946E1,3.188669128E0,-1.273806107E1,4.977000275E0,1.404266151E1
1.650344346E1,2.980003052E0,-1.206491089E1,4.101171570E0,1.308671468E1
1.651344746E1,1.010698242E0,-1.174083481E1,2.374512177E0,1.202110731E1
1.652345146E1,-5.062472534E0,-1.355146957E1,-5.857020264E0,1.560691008E1
1.653345546E1,-6.853647766E0,-1.526465698E1,-6.684798889E0,1.801856755E1
