"Time (s)","Acceleration x (m/s^2)","Acceleration y (m/s^2)","Acceleration z (m/s^2)","Absolute acceleration (m/s^2)"
3.491833333E-3,-8.843310242E0,1.084794159E0,7.881859589E0,1.189557165E1
1.349483333E-2,-8.263266449E0,7.367678833E-1,8.103249207E0,1.159685505E1
2.349683333E-2,-7.598049774E0,7.695497131E-1,8.393795013E0,1.134805542E1
3.349983333E-2,-7.397466888E0,1.135688324E0,8.696615295E0,1.147359673E1
4.350183333E-2,-7.975564728E0,2.046244812E0,8.760682068E0,1.202274099E1
5.350483333E-2,-8.816366272E0,3.269950104E0,8.714877319E0,1.282068542E1
6.350683333E-2,-9.711504822E0,4.685706024E0,8.579708405E0,1.377971564E1
7.350983333E-2,-1.053389465E1,6.122568054E0,8.251740417E0,1.471529803E1
8.351183333E-2,-1.077309723E1,6.812932434E0,7.506889343E0,1.479287193E1
9.351483333E-2,-1.070139633E1,6.402935028E0,6.368057556E0,1.400248612E1
1.035168333E-1,-1.101334763E1,4.942122803E0,5.302722931E0,1.318473641E1
1.135198333E-1,-1.179187866E1,3.370540924E0,5.004842377E0,1.324603321E1
1.235218333E-1,-1.247820145E1,2.484683075E0,5.121449890E0,1.371526195E1
1.335248333E-1,-1.308863205E1,2.003433838E0,5.585185547E0,1.437081534E1
1.435278333E-1,-1.363050522E1,1.758692780E0,5.475314026E0,1.479401016E1
1.535298333E-1,-1.383752472E1,1.732796631E0,5.121898956E0,1.485643037E1
1.635328333E-1,-1.365894608E1,2.217488708E0,5.037624207E0,1.472622564E1
1.735348333E-1,-1.274928772E1,3.030298462E0,5.470523987E0,1.420048164E1
1.835378333E-1,-1.133218460E1,3.889212341E0,5.738167419E0,1.328423674E1
1.935398333E-1,-1.011461655E1,4.165388031E0,5.864205322E0,1.241147974E1
2.035428333E-1,-9.072932739E0,3.935316467E0,6.107299805E0,1.162342183E1
2.135448333E-1,-8.242310028E0,3.665577393E0,6.214776306E0,1.095424926E1
2.235478333E-1,-7.265142059E0,3.383713531E0,6.125711517E0,1.008742524E1
2.335498333E-1,-6.336473236E0,3.226390686E0,5.567821655E0,9.031119970E0
2.435528333E-1,-5.409450989E0,2.997217255E0,5.251828766E0,8.113394891E0
2.535548333E-1,-4.638853455E0,2.828967133E0,4.924609222E0,7.333061598E0
2.635578333E-1,-4.034260712E0,2.621049500E0,4.471501465E0,6.568065569E0
2.735598333E-1,-3.343746643E0,2.392474823E0,4.186793518E0,5.868033517E0
2.835628333E-1,-2.852617950E0,2.297572174E0,3.891457672E0,5.344128543E0
2.935658333E-1,-2.241588593E0,2.234702911E0,3.608246613E0,4.799797927E0
3.035678333E-1,-1.901196442E0,2.157762909E0,3.470682678E0,4.507341449E0
3.135708333E-1,-1.642684021E0,2.196083221E0,3.395089874E0,4.364381693E0
3.235729583E-1,-1.263073425E0,2.253563690E0,3.265908508E0,4.164140027E0
3.335759583E-1,-1.229393463E0,2.480791168E0,3.298540649E0,4.306518724E0
3.435779583E-1,-1.176852722E0,2.836451569E0,3.357368317E0,4.549984818E0
3.535809583E-1,-1.822609863E0,3.136577454E0,3.323688354E0,4.920053771E0
3.635829583E-1,-2.771636353E0,3.244503021E0,3.359613647E0,5.431000993E0
3.735859583E-1,-3.415148163E0,3.347039795E0,3.491040344E0,5.920580634E0
3.835879583E-1,-3.851640472E0,3.620221710E0,3.814218292E0,6.518389428E0
3.935909583E-1,-4.344116364E0,3.927382965E0,4.101021881E0,7.149410074E0
4.035929583E-1,-4.731510773E0,4.123026123E0,4.237537994E0,7.572533715E0
4.135959583E-1,-5.124593353E0,4.200864258E0,4.502487030E0,8.011311191E0
4.235979583E-1,-5.616919556E0,4.109404449E0,4.878804474E0,8.499395468E0
4.336009583E-1,-6.050717468E0,3.868106232E0,5.212011566E0,8.873471264E0
4.436029583E-1,-6.343358917E0,3.585344238E0,5.643863525E0,9.216620376E0
4.536059583E-1,-6.682703247E0,3.347638550E0,6.184389496E0,9.701127769E0
4.636089583E-1,-6.953789520E0,3.215313721E0,6.804100800E0,1.024642468E1
4.736109583E-1,-7.507937164E0,3.064427490E0,7.338938599E0,1.093708627E1
4.836139583E-1,-8.137527924E0,2.887495422E0,7.816894684E0,1.164735305E1
4.936159583E-1,-8.374934235E0,2.541714478E0,8.238567810E0,1.201972693E1
5.036189583E-1,-8.639583893E0,1.787283325E0,8.376281433E0,1.216547912E1
5.136209583E-1,-8.820108490E0,9.412426758E-1,8.436306610E0,1.224138557E1
5.236239583E-1,-8.779842224E0,3.547622681E-1,8.312663727E0,1.209594411E1
5.336259583E-1,-8.223898315E0,2.847079468E-1,8.713081055E0,1.198462947E1
5.436289583E-1,-7.474556580E0,1.060993652E0,9.316027222E0,1.199095771E1
5.536309583E-1,-7.164700928E0,2.338586884E0,9.195677490E0,1.188959261E1
5.636339583E-1,-7.394024048E0,3.330274658E0,8.718320160E0,1.190678073E1
5.736359583E-1,-7.747888184E0,4.123175812E0,8.093818817E0,1.193902229E1
5.836389583E-1,-8.322692871E0,4.592599640E0,7.928861847E0,1.237845056E1
5.936419583E-1,-8.941056976E0,4.361779633E0,7.955057373E0,1.273776115E1
6.036439583E-1,-9.794132996E0,2.702629852E0,7.968229980E0,1.291208497E1
6.136469583E-1,-1.049407745E1,8.954379272E-1,7.957302704E0,1.320023246E1
6.236489583E-1,-1.077175003E1,-7.544311523E-2,7.613767090E0,1.319112352E1
6.336519583E-1,-1.113624207E1,-2.191442871E-1,7.406897278E0,1.337632382E1
6.436539583E-1,-1.148890869E1,5.665718079E-1,7.037764893E0,1.348503471E1
6.536569583E-1,-1.196701447E1,2.083666992E0,6.401587830E0,1.373067479E1
6.636589583E-1,-1.291080185E1,3.632196808E0,5.554649048E0,1.451674151E1
6.736619583E-1,-1.407238632E1,4.592749329E0,5.088668060E0,1.565311298E1
6.836639583E-1,-1.503278915E1,5.184917908E0,4.757855988E0,1.659835284E1
6.936669583E-1,-1.522498947E1,5.132676544E0,4.603227539E0,1.671329940E1
7.036689583E-1,-1.493983246E1,4.375850372E0,5.042563934E0,1.636380492E1
7.136719583E-1,-1.400427795E1,3.342549133E0,6.309678955E0,1.571955738E1
7.236739583E-1,-1.228390549E1,2.554138641E0,7.273973694E0,1.450271187E1
7.336769583E-1,-1.057266403E1,2.060465240E0,7.358847198E0,1.304528167E1
7.436799583E-1,-9.085356903E0,1.615889740E0,7.418722687E0,1.184028108E1
7.536819583E-1,-7.828271027E0,1.327589264E0,7.061266022E0,1.062571402E1
7.636849583E-1,-7.163503418E0,1.000519409E0,6.913523254E0,1.000567959E1
7.736869583E-1,-6.518644409E0,7.653584290E-1,6.685397644E0,9.368726707E0
7.836899583E-1,-5.903274078E0,5.393284607E-1,6.329737244E0,8.672087039E0
7.936919583E-1,-5.389243011E0,4.692741394E-1,5.966742096E0,8.053953668E0
8.036949583E-1,-4.899461517E0,4.390370178E-1,5.492079163E0,7.372951254E0
8.136969583E-1,-4.475692749E0,3.824546814E-1,4.974605255E0,6.702596110E0
8.236999583E-1,-4.284839630E0,3.477268982E-1,4.360282745E0,6.123138923E0
8.337019583E-1,-4.245920563E0,2.820135498E-1,3.967649231E0,5.818042066E0
8.437049583E-1,-4.333638153E0,1.463955688E-1,3.678750000E0,5.686391902E0
8.537069583E-1,-4.403842163E0,4.385879517E-2,3.321892090E0,5.516404304E0
8.637099583E-1,-4.559368744E0,4.475692749E-2,3.060236206E0,5.491347026E0
8.737119583E-1,-4.646487579E0,8.801696777E-2,2.852917328E0,5.453139563E0
8.837149583E-1,-4.743186493E0,1.465452576E-1,2.865940247E0,5.543726826E0
8.937179583E-1,-4.908293152E0,1.730401611E-1,2.954705658E0,5.731628921E0
9.037199583E-1,-5.026996307E0,1.219963074E-1,3.108136597E0,5.911521638E0
9.137229583E-1,-5.049898682E0,1.425036621E-1,3.327280884E0,6.049180281E0
9.237249583E-1,-5.014572144E0,1.805245972E-1,3.545527039E0,6.144044669E0
9.337279583E-1,-4.930596771E0,2.972817993E-1,3.842060394E0,6.257842205E0
9.437299583E-1,-4.832101593E0,4.170327759E-1,4.175566864E0,6.399881310E0
9.537329583E-1,-4.726870422E0,4.704716492E-1,4.540358276E0,6.571111081E0
9.637349583E-1,-4.690046997E0,5.180726624E-1,4.957690430E0,6.844240974E0
9.737379583E-1,-4.724176025E0,5.144801331E-1,5.353916473E0,7.158697544E0
9.837399583E-1,-4.889582062E0,3.987707520E-1,5.732030182E0,7.544746573E0
9.937429583E-1,-5.082231445E0,3.351530457E-1,6.177653503E0,8.006547748E0
1.003744958E0,-5.244643707E0,2.793191528E-1,6.747219086E0,8.550396026E0
1.013747958E0,-5.450914764E0,1.947450256E-1,7.286996613E0,9.102236924E0
1.023750958E0,-5.849086761E0,1.002914429E-1,7.875872040E0,9.810771361E0
1.033752958E0,-6.283184052E0,1.221459961E-1,8.355175323E0,1.045477289E1
1.043755958E0,-6.809489594E0,3.451821899E-1,8.763077087E0,1.110314457E1
1.053757958E0,-7.556735687E0,7.954458618E-1,9.240733795E0,1.196361774E1
1.063760958E0,-8.574319611E0,1.659898224E0,9.719887390E0,1.306715079E1
1.073762958E0,-9.592202911E0,2.865191803E0,1.002300705E1,1.416616924E1
1.083765958E0,-9.753717041E0,4.095483398E0,9.591604156E0,1.427959561E1
1.093767958E0,-9.022188263E0,4.951553192E0,8.359067230E0,1.325864869E1
1.103770958E0,-8.323441315E0,4.844226379E0,7.300318909E0,1.208473668E1
1.113772958E0,-7.906408539E0,3.720812531E0,6.908733215E0,1.113940467E1
1.123775958E0,-7.842491455E0,2.348017273E0,7.130422211E0,1.085637040E1
1.133777958E0,-7.665110321E0,1.612746277E0,7.262597351E0,1.068176891E1
1.143780958E0,-7.362290039E0,1.457668762E0,7.785460052E0,1.081394937E1
1.153782958E0,-7.294181671E0,1.887275391E0,8.282276917E0,1.119656222E1
1.163785958E0,-8.045319672E0,2.961741028E0,8.179141388E0,1.184894225E1
1.173788958E0,-9.208101654E0,4.414769440E0,8.059390411E0,1.300896226E1
1.183790958E0,-1.012793884E1,5.849984894E0,7.678731995E0,1.399144001E1
1.193793958E0,-1.073313034E1,7.073839874E0,7.095844116E0,1.468299360E1
1.203795958E0,-1.141556122E1,7.309300232E0,5.712420959E0,1.470961118E1
1.213798958E0,-1.205637863E1,6.142626343E0,4.068539429E0,1.412944221E1
1.223800958E0,-1.285167480E1,4.455335083E0,3.811823273E0,1.412605935E1
1.233803958E0,-1.381147888E1,2.982547760E0,4.008065186E0,1.468731175E1
1.243805958E0,-1.436068680E1,1.758992157E0,4.237088928E0,1.507568577E1
1.253808958E0,-1.426443695E1,1.175206146E0,4.434827728E0,1.498409050E1
1.263810958E0,-1.295436127E1,1.605860596E0,4.697681122E0,1.387308444E1
1.273813958E0,-1.122560623E1,2.973865814E0,4.839586029E0,1.258092628E1
1.283815958E0,-9.902058563E0,4.091890869E0,4.936883698E0,1.179691296E1
1.293818958E0,-9.015152893E0,4.460723877E0,5.732329559E0,1.157716033E1
1.303820958E0,-8.414601746E0,4.612508240E0,6.494245148E0,1.158688806E1
1.313823958E0,-7.667954407E0,4.522844696E0,6.627468109E0,1.109851262E1
1.323827375E0,-6.980583801E0,4.157304840E0,6.578220520E0,1.045393318E1
1.333829375E0,-6.417604523E0,3.459306335E0,6.291865997E0,9.630162297E0
1.343832375E0,-5.753735046E0,2.794389038E0,6.284830627E0,8.967339243E0
1.353834375E0,-5.253325653E0,2.254761200E0,6.080206146E0,8.345674644E0
1.363837375E0,-4.838089142E0,1.878144379E0,5.722450104E0,7.725345820E0
1.373839375E0,-4.395758972E0,1.686093750E0,5.314548340E0,7.100002333E0
1.383842375E0,-4.065246277E0,1.751358032E0,5.163362732E0,6.801014406E0
1.393844375E0,-3.994892578E0,2.075284424E0,5.029391327E0,6.749870315E0
1.403847375E0,-4.018842773E0,2.425556030E0,4.320465546E0,6.379721140E0
1.413849375E0,-4.133055267E0,2.792143707E0,3.758085022E0,6.245111317E0
1.423852375E0,-4.251159668E0,3.079396362E0,3.576362915E0,6.351803852E0
1.433854375E0,-4.250261536E0,3.231929169E0,3.564238129E0,6.419803946E0
1.443857375E0,-4.113895111E0,3.242856445E0,3.477718048E0,6.287668386E0
1.453859375E0,-3.954925690E0,3.125799866E0,3.478466492E0,6.124687024E0
1.463862375E0,-3.779340820E0,2.948718109E0,3.625311127E0,6.010094532E0
1.473865375E0,-3.680546265E0,2.685715027E0,3.789070587E0,5.925921188E0
1.483867375E0,-3.629652100E0,2.420167236E0,4.002377014E0,5.920355190E0
1.493870375E0,-3.634741516E0,2.244732056E0,4.214934998E0,6.001320265E0
1.503872375E0,-3.638334045E0,2.138602753E0,4.440066833E0,6.125788916E0
1.513875375E0,-3.652255096E0,2.215692444E0,4.725523224E0,6.370151492E0
1.523877375E0,-3.736679535E0,2.308499451E0,5.121898956E0,6.747280384E0
1.533880375E0,-3.918102264E0,2.436782684E0,5.422324219E0,7.119763700E0
1.543882375E0,-4.233197021E0,2.537523193E0,5.745053101E0,7.573943234E0
1.553885375E0,-4.545447693E0,2.628384247E0,6.125861206E0,8.068189016E0
1.563887375E0,-4.982838135E0,2.807861023E0,6.551276550E0,8.696665099E0
1.573890375E0,-5.369184723E0,3.027604065E0,6.836583252E0,9.205074770E0
1.583892375E0,-5.755681000E0,3.244203644E0,7.091652832E0,9.692484766E0
1.593895375E0,-6.275549927E0,3.312910767E0,7.366930389E0,1.022885956E1
1.603897375E0,-7.015760651E0,3.015030212E0,7.326963501E0,1.058280203E1
1.613900375E0,-8.351882172E0,2.047741699E0,7.241940308E0,1.124245886E1
1.623903375E0,-9.702523499E0,1.050515442E0,7.635771332E0,1.239143046E1
1.633905375E0,-1.040396484E1,4.945715332E-1,8.124355316E0,1.320955089E1
1.643908375E0,-9.972112885E0,4.848417664E-1,8.503516846E0,1.311441595E1
1.653910375E0,-8.612639923E0,1.238823853E0,9.300160217E0,1.273598175E1
1.663913375E0,-7.896828461E0,2.417323151E0,9.135652313E0,1.231517333E1
1.673915375E0,-7.808063049E0,3.265160065E0,8.531209259E0,1.201701503E1
1.683918375E0,-7.902666321E0,3.844904480E0,8.247549133E0,1.205228162E1
1.693920375E0,-8.249046021E0,4.243076477E0,8.498128052E0,1.258048642E1
1.703923375E0,-8.713230743E0,4.337829437E0,8.939260712E0,1.321542796E1
1.713925375E0,-9.310788116E0,3.368295593E0,9.257498932E0,1.355497979E1
1.723928375E0,-1.031011002E1,1.685494995E0,8.999285889E0,1.378863331E1
1.733930375E0,-1.070498886E1,2.827619934E-1,8.277187500E0,1.353471735E1
1.743933375E0,-1.072863968E1,-5.565426636E-1,8.067174225E0,1.343475899E1
1.753935375E0,-1.104912323E1,-4.918771362E-1,8.020471344E0,1.366210188E1
1.763938375E0,-1.170775360E1,8.355624390E-1,7.264094238E0,1.380350405E1
1.773941375E0,-1.293579987E1,2.783461761E0,5.900729370E0,1.448796689E1
1.783943375E0,-1.425919785E1,4.125570831E0,5.095703430E0,1.569430633E1
1.793946375E0,-1.489941650E1,4.937482452E0,4.467459869E0,1.631960609E1
1.803948375E0,-1.453193069E1,5.190755768E0,3.778742065E0,1.588709686E1
1.813951375E0,-1.371418121E1,4.828958130E0,4.099075928E0,1.510629096E1
1.823953375E0,-1.233509903E1,3.975133667E0,5.453758850E0,1.406057756E1
1.833956375E0,-1.058793228E1,2.770289154E0,6.521189117E0,1.273988695E1
1.843958375E0,-9.437724152E0,1.793121185E0,6.764283600E0,1.174910436E1
1.853961375E0,-8.448281708E0,1.264121246E0,6.775360565E0,1.090307191E1
1.863963375E0,-7.756270752E0,7.497908020E-1,6.891818390E0,1.040284014E1
1.873966375E0,-7.268884277E0,4.607418823E-1,6.868916016E0,1.001154179E1
1.883968375E0,-6.776109009E0,3.743714905E-1,6.599326630E0,9.466093137E0
1.893971375E0,-6.395151215E0,3.881428528E-1,6.198310547E0,8.914463953E0
1.903973375E0,-6.078260193E0,4.646337891E-1,5.873186646E0,8.464954395E0
1.913976375E0,-5.814957733E0,5.120851135E-1,5.583089905E0,8.077552692E0
1.923978375E0,-5.607788544E0,4.882846069E-1,5.253924408E0,7.699963370E0
1.933981375E0,-5.385051727E0,3.933819580E-1,4.853656769E0,7.260269658E0
1.943984375E0,-5.209766235E0,3.408412170E-1,4.477189636E0,6.877722297E0
1.953986375E0,-5.093009033E0,2.639012146E-1,4.185146942E0,6.597260021E0
1.963989375E0,-4.987777863E0,2.257305908E-1,4.032314758E0,6.417822420E0
1.973991375E0,-4.892725525E0,1.335223389E-1,3.736829224E0,6.157961020E0
1.983994375E0,-4.813240814E0,1.300794983E-1,3.464545441E0,5.931886961E0
1.993996375E0,-4.680915985E0,1.689985657E-1,3.353177032E0,5.760497477E0
2.003999375E0,-4.649032288E0,2.309696960E-1,3.370091858E0,5.746683160E0
2.014001375E0,-4.569547577E0,3.174897766E-1,3.507356415E0,5.769151917E0
2.024004375E0,-4.568200378E0,3.773652649E-1,3.624712372E0,5.843748713E0
2.034006375E0,-4.567601624E0,4.486170959E-1,3.880530396E0,6.010221131E0
2.044009375E0,-4.614903259E0,5.635780334E-1,4.154161377E0,6.234742099E0
2.054011375E0,-4.647086334E0,6.508465576E-1,4.465364227E0,6.477537366E0
2.064014375E0,-4.730313263E0,7.364685059E-1,4.789589996E0,6.771884653E0
2.074016375E0,-4.810546417E0,7.761360168E-1,5.054239655E0,7.020618380E0
2.084019375E0,-4.849315796E0,7.487429810E-1,5.253175964E0,7.188347338E0
2.094022375E0,-4.922962646E0,6.891668701E-1,5.463039551E0,7.386156871E0
2.104024375E0,-4.944368134E0,6.099815369E-1,5.764812012E0,7.619180484E0
2.114027375E0,-4.943470001E0,5.495072937E-1,6.105653229E0,7.875205094E0
2.124029375E0,-5.004992065E0,5.245092773E-1,6.488556976E0,8.211359643E0
2.134032375E0,-5.159620514E0,5.224136353E-1,6.905440063E0,8.635954048E0
2.144034375E0,-5.426964569E0,5.707630920E-1,7.250921631E0,9.074887296E0
2.154037375E0,-5.947731628E0,7.021897888E-1,7.638316040E0,9.706310007E0
2.164039375E0,-6.823710022E0,9.125024414E-1,7.959398346E0,1.052367337E1
2.174042375E0,-7.794291687E0,1.353784790E0,8.216264191E0,1.140573160E1
2.184044375E0,-8.647367706E0,2.061962128E0,8.528365173E0,1.231915860E1
2.194047375E0,-9.062454529E0,2.746788025E0,8.444539490E0,1.268791448E1
2.204049375E0,-8.831933899E0,3.304827576E0,7.950866089E0,1.233455363E1
2.214052375E0,-8.538843384E0,3.494333496E0,7.616910553E0,1.196409375E1
2.224054375E0,-8.630901947E0,3.088078308E0,7.614814911E0,1.191696699E1
2.234057375E0,-8.866961060E0,2.205513611E0,7.851023712E0,1.204681958E1
2.244060375E0,-8.607700195E0,1.495989075E0,8.159532166E0,1.195443228E1
2.254062375E0,-8.103698273E0,1.324146423E0,8.650810547E0,1.192727180E1
2.264065375E0,-7.906258850E0,1.531914368E0,9.352102203E0,1.234169787E1
2.274067375E0,-8.251141663E0,2.254461823E0,9.779164124E0,1.299215101E1
2.284070375E0,-8.913963318E0,3.442241821E0,9.488019562E0,1.346589343E1
2.294072375E0,-9.696835327E0,4.754712524E0,9.021439819E0,1.407203905E1
2.304075375E0,-1.019709503E1,6.108796692E0,8.099506989E0,1.438402439E1
2.314077375E0,-1.042806473E1,6.773863678E0,6.860533447E0,1.420199571E1
2.324079958E0,-1.077264816E1,6.193071442E0,5.410798187E0,1.355288970E1
2.334081958E0,-1.160282181E1,4.615502014E0,4.289479980E0,1.320333182E1
2.344084958E0,-1.291379562E1,2.926414490E0,3.906576233E0,1.380548286E1
2.354086958E0,-1.404005356E1,1.442400513E0,3.666026459E0,1.458229657E1
2.364089958E0,-1.450304077E1,6.999444580E-1,4.249363403E0,1.512895248E1
2.374091958E0,-1.413959656E1,6.993457031E-1,3.925736389E0,1.469110892E1
2.384094958E0,-1.275737091E1,1.699416046E0,3.999083862E0,1.347706196E1
2.394096958E0,-1.125464584E1,3.241359558E0,4.597838745E0,1.258227269E1
2.404099958E0,-1.012015503E1,4.002975769E0,5.039719849E0,1.199333686E1
2.414102958E0,-9.289532318E0,4.094285889E0,5.691015472E0,1.163813751E1
2.424104958E0,-8.571176147E0,3.952680359E0,6.182742920E0,1.128339721E1
2.434107958E0,-7.886499939E0,3.813769226E0,6.407725067E0,1.085360113E1
2.444109958E0,-7.219936066E0,3.468736725E0,6.514004059E0,1.032433340E1
2.454112958E0,-6.690487061E0,3.010838928E0,6.265371094E0,9.647934655E0
2.464114958E0,-6.156397705E0,2.524799652E0,5.989045715E0,8.952346875E0
2.474117958E0,-5.674100647E0,2.000589752E0,5.859714661E0,8.398454228E0
2.484119958E0,-4.954996033E0,1.582808533E0,5.698200531E0,7.715358568E0
2.494122958E0,-4.597090302E0,1.338965607E0,5.392835541E0,7.211708765E0
2.504124958E0,-4.184398499E0,1.219514008E0,4.881498871E0,6.544114641E0
2.514127958E0,-3.857328644E0,1.446142731E0,4.746329956E0,6.284740338E0
2.524129958E0,-3.646417236E0,1.764830017E0,4.613256683E0,6.139472361E0
2.534132958E0,-3.535198517E0,2.084415436E0,4.281696167E0,5.930880064E0
2.544134958E0,-4.123175812E0,2.234253845E0,3.976630554E0,6.148663236E0
2.554137958E0,-4.676425323E0,2.373614044E0,3.707340546E0,6.422411647E0
2.564139958E0,-4.907095642E0,2.531835022E0,3.566633148E0,6.573480679E0
2.574142958E0,-4.964875488E0,2.619702301E0,3.569327545E0,6.652287417E0
2.584145958E0,-4.911436615E0,2.688409424E0,3.518732758E0,6.612959630E0
2.594147958E0,-4.839735718E0,2.690654755E0,3.522624664E0,6.562891844E0
2.604150958E0,-4.728516998E0,2.624342651E0,3.591780853E0,6.492067240E0
2.614152958E0,-4.751419373E0,2.504741364E0,4.001029816E0,6.697608151E0
2.624155958E0,-4.696333923E0,2.400108948E0,4.267625427E0,6.784445598E0
2.634157958E0,-4.665048981E0,2.277663574E0,4.432732086E0,6.826386094E0
2.644160958E0,-4.674179993E0,2.261646881E0,4.654421082E0,6.973280492E0
2.654162958E0,-4.746180267E0,2.289189606E0,4.918621674E0,7.208290737E0
2.664165958E0,-4.885690155E0,2.361638947E0,5.208868103E0,7.521942151E0
2.674167958E0,-5.086871796E0,2.408940582E0,5.653892670E0,7.977829386E0
2.684170958E0,-5.426964569E0,2.490520935E0,6.091881866E0,8.530279224E0
2.694172958E0,-5.891598358E0,2.608176270E0,6.522985382E0,9.168579659E0
2.704175958E0,-6.302942963E0,2.717898102E0,6.941515045E0,9.762104855E0
2.714177958E0,-6.622977448E0,2.868035889E0,7.356152802E0,1.030545701E1
2.724180958E0,-6.979835358E0,2.782413940E0,7.586374054E0,1.067768703E1
2.734182958E0,-7.504644012E0,2.237846375E0,7.731272736E0,1.100455434E1
2.744185958E0,-8.314909058E0,1.514101410E0,8.039781189E0,1.166483164E1
2.754187958E0,-9.129664764E0,9.892927551E-1,8.444539490E0,1.247556516E1
2.764190958E0,-9.414223022E0,9.750723267E-1,8.806037750E0,1.292767040E1
2.774193958E0,-8.953481140E0,1.679657135E0,9.286538544E0,1.300868444E1
2.784195958E0,-9.012757874E0,2.756817169E0,9.407487030E0,1.331655577E1
2.794198958E0,-9.564809875E0,3.539240112E0,9.391769714E0,1.386423986E1
2.804200958E0,-1.029035110E1,4.068838806E0,9.509574738E0,1.459036623E1
2.814203958E0,-1.107816284E1,3.851640472E0,9.262588348E0,1.494511188E1
2.824205958E0,-1.154234756E1,2.442021790E0,8.860823822E0,1.475477741E1
2.834208958E0,-1.169952072E1,8.448431396E-1,8.272996216E0,1.435391972E1
2.844210958E0,-1.152648056E1,1.339714050E-1,7.734865265E0,1.388185301E1
2.854213958E0,-1.086395828E1,5.325924683E-1,7.602390747E0,1.327047811E1
2.864215958E0,-1.048644333E1,1.857487335E0,6.588249664E0,1.252281065E1
2.874218958E0,-1.123294098E1,3.352578278E0,5.059029694E0,1.276763587E1
2.884220958E0,-1.251322861E1,4.515060883E0,4.264781342E0,1.396978972E1
2.894223958E0,-1.338980576E1,5.138364716E0,4.014801178E0,1.489323063E1
2.904225958E0,-1.374726242E1,5.291945343E0,3.741469574E0,1.519837176E1
2.914228958E0,-1.370460114E1,4.900808716E0,3.570225677E0,1.498601113E1
2.924230958E0,-1.343007202E1,3.962559814E0,4.720583496E0,1.477675957E1
2.934233958E0,-1.226714035E1,3.090772705E0,6.119873657E0,1.405305881E1
2.944236958E0,-1.091170898E1,2.566562805E0,6.658004608E0,1.303770160E1
2.954238958E0,-9.395960999E0,2.416125641E0,6.604266357E0,1.173618679E1
2.964241958E0,-7.977510681E0,2.308499451E0,6.593488770E0,1.060395872E1
2.974243958E0,-7.025490417E0,2.058070221E0,6.540049896E0,9.816589086E0
2.984246958E0,-6.475234680E0,1.788630524E0,6.251749420E0,9.176722407E0
2.994248958E0,-6.110443268E0,1.541045380E0,5.835614777E0,8.588756465E0
3.004251958E0,-5.828729095E0,1.342558136E0,5.505551147E0,8.129430402E0
3.014253958E0,-5.480253754E0,1.116228790E0,5.149142303E0,7.602158534E0
3.024256958E0,-5.064717865E0,8.527766418E-1,4.808750153E0,7.035813605E0
3.034258958E0,-4.725223846E0,6.462062073E-1,4.460125122E0,6.529780928E0
3.044261958E0,-4.533771973E0,4.644841003E-1,4.253854065E0,6.234268857E0
3.054263958E0,-4.422852631E0,3.544628906E-1,4.049379272E0,6.007057668E0
3.064266958E0,-4.336781616E0,2.481838989E-1,3.749702454E0,5.738426485E0
3.074268958E0,-4.328099670E0,2.249821472E-1,3.510799255E0,5.577524104E0
3.084271958E0,-4.387825470E0,2.386038208E-1,3.363954620E0,5.534088437E0
3.094273958E0,-4.453239441E0,2.811154175E-1,3.152893524E0,5.463616474E0
3.104276958E0,-4.473896484E0,4.303550720E-1,3.041375427E0,5.426870160E0
3.114279958E0,-4.535418549E0,6.927593994E-1,3.312012634E0,5.658565603E0
3.124281958E0,-4.632117462E0,8.740324402E-1,3.581602020E0,5.920161984E0
3.134284958E0,-4.687651978E0,9.357041931E-1,3.746409302E0,6.073319196E0
3.144286958E0,-4.778363342E0,9.240284729E-1,3.970343628E0,6.280940485E0
3.154289958E0,-4.917424164E0,8.788224792E-1,4.261937256E0,6.566391591E0
3.164291958E0,-5.052593079E0,8.473878479E-1,4.646637268E0,6.916502070E0
3.174294958E0,-5.168152771E0,8.208929443E-1,5.021607513E0,7.252600245E0
3.184296958E0,-5.306465149E0,8.565188599E-1,5.366190948E0,7.595274994E0
3.194299958E0,-5.406157837E0,8.966354370E-1,5.765261078E0,7.954164504E0
3.204301958E0,-5.377716980E0,9.686357117E-1,6.081253967E0,8.175557771E0
3.214304958E0,-5.340444489E0,1.074016571E0,6.399192810E0,8.403780551E0
3.224306958E0,-5.303321686E0,1.124162292E0,6.744225311E0,8.652949602E0
3.234309958E0,-5.347479858E0,1.076561279E0,6.980583801E0,8.859067402E0
3.244311958E0,-5.563630371E0,1.034648438E0,7.332052917E0,9.261937178E0
3.254314958E0,-5.882916412E0,1.047821045E0,7.621999969E0,9.685118378E0
3.264316958E0,-6.442752228E0,1.159039764E0,7.791597290E0,1.017651305E1
3.274319958E0,-7.205565948E0,1.378034363E0,7.921527100E0,1.079674724E1
3.284321958E0,-8.046666870E0,1.832639008E0,8.107889557E0,1.156915237E1
3.294324958E0,-8.654253387E0,2.473606110E0,8.201295319E0,1.217686634E1
3.304326958E0,-8.826994171E0,3.011737061E0,7.934250641E0,1.224494669E1
3.314329958E0,-8.878636780E0,3.313359833E0,7.620802460E0,1.216080485E1
3.324333708E0,-9.144933014E0,3.009342041E0,7.576494598E0,1.225109015E1
3.334335708E0,-9.242979126E0,2.129621429E0,7.821984100E0,1.229436399E1
3.344338708E0,-8.778195648E0,1.590592346E0,8.396190033E0,1.225082487E1
3.354340708E0,-8.345146179E0,1.737886047E0,9.253457336E0,1.258126326E1
3.364343708E0,-8.585546265E0,2.218386841E0,9.975406036E0,1.334696859E1
3.374345708E0,-9.272168427E0,3.064128113E0,1.001896545E1,1.399077043E1
3.384348708E0,-9.825118561E0,4.174069977E0,9.573641510E0,1.433912224E1
3.394350708E0,-1.026191025E1,5.374872894E0,8.684490509E0,1.447813648E1
3.404353708E0,-1.043809387E1,6.262676697E0,7.662415924E0,1.438358581E1
3.414355708E0,-1.049003586E1,6.180347900E0,5.918991394E0,1.353779936E1
3.424358708E0,-1.113998428E1,4.800816650E0,4.233496399E0,1.284794077E1
3.434360708E0,-1.249915787E1,3.516487427E0,4.606221313E0,1.377722418E1
3.444363708E0,-1.367885468E1,2.803669739E0,5.717809753E0,1.508857109E1
3.454365708E0,-1.470571930E1,2.236050110E0,5.929020538E0,1.601285061E1
3.464368708E0,-1.516466492E1,1.825603638E0,5.741460571E0,1.631760583E1
3.474370708E0,-1.437415878E1,2.567161560E0,6.078559570E0,1.581630948E1
3.484373708E0,-1.234198471E1,4.075874176E0,6.450835419E0,1.451036231E1
3.494375708E0,-1.077294754E1,4.778213654E0,6.678212585E0,1.354570957E1
3.504378708E0,-9.376052399E0,4.575235748E0,6.728358307E0,1.241426382E1
3.514381708E0,-8.062982941E0,4.234394531E0,6.902146912E0,1.142722289E1
3.524383708E0,-6.839127960E0,3.673361206E0,6.774013367E0,1.030313112E1
3.534386708E0,-5.999374237E0,3.051105194E0,6.215075684E0,9.161271740E0
3.544388708E0,-5.292843475E0,2.342179413E0,5.777535553E0,8.178014033E0
3.554391708E0,-4.711901550E0,1.707050171E0,5.337301025E0,7.321394590E0
3.564393708E0,-4.258344727E0,1.259181519E0,5.178481293E0,6.821708467E0
3.574396708E0,-3.706592102E0,9.699829102E-1,5.133874054E0,6.405962430E0
3.584398708E0,-3.293750610E0,8.759783936E-1,5.017266541E0,6.065401452E0
3.594401708E0,-3.186723175E0,8.475375366E-1,4.506828003E0,5.584355211E0
3.604403708E0,-3.140469360E0,9.668394470E-1,4.208648071E0,5.339479835E0
3.614406708E0,-3.100053406E0,1.246308289E0,4.077371063E0,5.271486532E0
3.624408708E0,-3.362457733E0,1.481469269E0,3.741619263E0,5.244100295E0
3.634411708E0,-3.705843658E0,1.738784180E0,3.532803497E0,5.407157127E0
3.644413708E0,-3.906875610E0,1.978585510E0,3.498075714E0,5.604909576E0
3.654416708E0,-3.970343628E0,2.166295166E0,3.493435364E0,5.714941287E0
3.664418708E0,-4.087100830E0,2.366129608E0,3.643722839E0,5.964870380E0
3.674421708E0,-4.164340210E0,2.544558563E0,3.793710938E0,6.181322702E0
3.684423708E0,-4.245172119E0,2.571801910E0,3.905378723E0,6.315665789E0
3.694426708E0,-4.312981110E0,2.580633545E0,4.280498657E0,6.601828860E0
3.704429708E0,-4.441863098E0,2.557431793E0,4.665647736E0,6.931008148E0
3.714431708E0,-4.597838745E0,2.551743622E0,4.955744476E0,7.225712418E0
3.724434708E0,-4.735103302E0,2.558180237E0,5.367388458E0,7.600943906E0
3.734436708E0,-4.791685638E0,2.640808411E0,5.798042908E0,7.971914568E0
3.744439708E0,-4.833149414E0,2.698588257E0,6.061495056E0,8.208741326E0
3.754441708E0,-4.836143188E0,2.727478180E0,6.247857513E0,8.358417414E0
3.764444708E0,-4.803361359E0,2.732717285E0,6.420448608E0,8.471256367E0
3.774446708E0,-4.840334473E0,2.725083160E0,6.626120911E0,8.646409333E0
3.784449708E0,-4.961732025E0,2.774929504E0,6.898255005E0,8.938956346E0
3.794451708E0,-5.074297943E0,2.807561646E0,7.093149719E0,9.162078091E0
3.804454708E0,-5.183271332E0,2.699187012E0,7.328610077E0,9.373389882E0
3.814456708E0,-5.655090179E0,2.235601044E0,7.488926697E0,9.646863741E0
3.824459708E0,-6.484964447E0,1.469943237E0,7.531438293E0,1.004679351E1
3.834461708E0,-7.316036224E0,7.402107239E-1,7.706424408E0,1.065182027E1
3.844464708E0,-8.058492279E0,3.637435913E-1,8.439749451E0,1.167480098E1
3.854466708E0,-8.320148163E0,6.373745728E-1,9.501491547E0,1.264553097E1
3.864469708E0,-8.185578003E0,1.511706390E0,1.029603928E1,1.323999125E1
3.874471708E0,-8.112829285E0,2.673141174E0,1.026161087E1,1.335156696E1
3.884474708E0,-8.686137085E0,3.659589844E0,9.742490387E0,1.355572551E1
3.894476708E0,-9.629176025E0,4.471202087E0,9.598489838E0,1.431236131E1
3.904479708E0,-1.056263489E1,4.680017853E0,9.717342682E0,1.509630987E1
3.914482708E0,-1.131856293E1,3.619323578E0,1.030561935E1,1.572943610E1
3.924484708E0,-1.185819077E1,1.997595978E0,1.035202286E1,1.586730775E1
3.934487708E0,-1.180565002E1,8.723858643E-1,9.525890808E0,1.519463804E1
3.944489708E0,-1.218017120E1,4.752616882E-1,8.806786194E0,1.503801607E1
3.954492708E0,-1.250754044E1,1.265618134E0,7.601642303E0,1.469099461E1
3.964494708E0,-1.295720535E1,2.803669739E0,6.278992767E0,1.466886106E1
3.974497708E0,-1.364427658E1,3.941154327E0,5.414839783E0,1.519932468E1
3.984499708E0,-1.379276779E1,4.546345825E0,4.953050079E0,1.534413272E1
3.994502708E0,-1.302770874E1,4.956043854E0,4.630321198E0,1.468752668E1
4.004504708E0,-1.199216217E1,4.931195526E0,5.008285217E0,1.390005625E1
4.014507708E0,-1.077384567E1,4.333189087E0,5.865851898E0,1.301001525E1
4.024509708E0,-9.545350342E0,3.532653809E0,6.752907257E0,1.221454512E1
4.034512708E0,-8.768016815E0,2.562221832E0,7.305258636E0,1.169657656E1
4.044514708E0,-7.840395813E0,1.708097992E0,7.136559448E0,1.073870970E1
4.054517708E0,-7.268285522E0,9.957293701E-1,6.994953918E0,1.013650984E1
4.064519708E0,-6.895859985E0,6.201603699E-1,6.882537689E0,9.762520620E0
4.074522708E0,-6.393804016E0,5.517526245E-1,6.553970947E0,9.172769262E0
4.084524708E0,-5.939648438E0,5.816903687E-1,6.323450317E0,8.695045208E0
4.094527708E0,-5.577401733E0,5.870791626E-1,5.956114197E0,8.180914886E0
4.104529708E0,-5.227429504E0,5.539979553E-1,5.468428345E0,7.585291130E0
4.114532708E0,-5.073848877E0,5.236111450E-1,5.165608063E0,7.259587985E0
4.124535708E0,-5.007387085E0,3.231779480E-1,4.856201477E0,6.982912157E0
4.134537708E0,-4.898413696E0,1.788780212E-1,4.494553528E0,6.650373335E0
4.144540708E0,-4.905449066E0,1.314266968E-1,4.211342468E0,6.466537629E0
4.154542708E0,-4.933141479E0,9.669891357E-2,3.977828064E0,6.337850712E0
4.164545708E0,-4.943170624E0,1.221459961E-1,3.691623230E0,6.170732334E0
4.174547708E0,-4.931195526E0,2.570155334E-1,3.510499878E0,6.058577035E0
4.184550708E0,-4.908592529E0,4.270619202E-1,3.469934235E0,6.026367571E0
4.194552708E0,-4.866380310E0,5.804928589E-1,3.481759644E0,6.011761763E0
4.204555708E0,-4.760999451E0,7.174580383E-1,3.604055328E0,6.014239488E0
4.214557708E0,-4.673281860E0,8.515791321E-1,3.815864868E0,6.093075993E0
4.224560708E0,-4.660558319E0,9.017248535E-1,4.059707794E0,6.246209965E0
4.234562708E0,-4.627177734E0,8.958869934E-1,4.374952240E0,6.430676045E0
4.244565708E0,-4.579277344E0,8.675958252E-1,4.748575287E0,6.653680993E0
4.254567708E0,-4.593198395E0,8.247848511E-1,5.029990082E0,6.861380456E0
4.264570708E0,-4.661606140E0,7.825726318E-1,5.255570984E0,7.068523049E0
4.274572708E0,-4.661306763E0,7.141648865E-1,5.495072937E0,7.241107567E0
4.284575708E0,-4.658911743E0,6.679110718E-1,5.726192322E0,7.412209005E0
4.294577708E0,-4.688699799E0,6.008505249E-1,6.044729919E0,7.673570678E0
4.304580708E0,-4.778063965E0,5.522016907E-1,6.391858063E0,7.999416945E0
4.314582708E0,-5.002447357E0,4.923262024E-1,6.774911499E0,8.436011526E0
4.324584958E0,-5.393883362E0,4.508624268E-1,7.166048126E0,8.980506689E0
4.334587958E0,-5.864205322E0,4.574487305E-1,7.489974518E0,9.523543546E0
4.344589958E0,-6.418352966E0,4.899311829E-1,7.738308105E0,1.006561969E1
4.354592958E0,-7.025640106E0,5.792953491E-1,7.908653870E0,1.059443288E1
4.364594958E0,-7.699987793E0,9.156459045E-1,8.122708740E0,1.122972024E1
4.374597958E0,-8.282725983E0,1.601819000E0,8.370892639E0,1.188449483E1
4.384599958E0,-8.527766418E0,2.320923615E0,8.327632599E0,1.214326773E1
4.394602958E0,-8.670569458E0,2.800077209E0,8.037685547E0,1.215004511E1
4.404604958E0,-8.800199890E0,2.911146240E0,7.859855347E0,1.215300854E1
4.414607958E0,-8.890013123E0,2.474803619E0,7.896828461E0,1.214565297E1
4.424609958E0,-8.515641632E0,1.760788422E0,8.179440765E0,1.193816483E1
4.434612958E0,-8.126301270E0,1.425635376E0,8.729247437E0,1.201120183E1
4.444614958E0,-8.231233063E0,1.609153748E0,9.810149689E0,1.290664985E1
4.454617958E0,-8.749156036E0,2.295626221E0,1.048958679E1,1.385095889E1
4.464619958E0,-9.325906677E0,3.338357849E0,1.071531738E1,1.459229917E1
4.474622958E0,-9.917027435E0,4.508175201E0,1.030966095E1,1.499867280E1
4.484624958E0,-1.084674408E1,5.754184113E0,9.449549561E0,1.549375612E1
4.494627958E0,-1.106558899E1,6.387217712E0,7.681576080E0,1.490806563E1
4.504629958E0,-1.063852707E1,5.584287415E0,5.508395233E0,1.321759971E1
4.514632958E0,-1.098849930E1,3.977079620E0,3.722908173E0,1.226475945E1
4.524634958E0,-1.237012619E1,2.560874634E0,3.837569733E0,1.320246349E1
4.534637958E0,-1.375938721E1,1.552272034E0,4.817581787E0,1.466081100E1
4.544640958E0,-1.435290298E1,1.303339691E0,5.297633514E0,1.535478555E1
4.554642958E0,-1.433479065E1,1.752106476E0,5.279221802E0,1.537615956E1
4.564645958E0,-1.298025742E1,3.468287659E0,5.669759674E0,1.458294472E1
4.574647958E0,-1.105106918E1,5.187163239E0,6.189478912E0,1.368730952E1
4.584650958E0,-9.489965515E0,5.638025665E0,6.628815308E0,1.287586779E1
4.594652958E0,-8.370742950E0,5.117707672E0,6.567742310E0,1.180658750E1
4.604655958E0,-7.404352570E0,4.239334259E0,6.377937012E0,1.065243974E1
4.614657958E0,-6.650071106E0,3.387006683E0,6.058501282E0,9.612528167E0
4.624660958E0,-5.841452637E0,2.550396423E0,5.866750031E0,8.662900596E0
4.634662958E0,-5.249733124E0,1.852248230E0,5.754483490E0,8.006534932E0
4.644665958E0,-4.796775055E0,1.358425140E0,5.681285706E0,7.558530086E0
4.654667958E0,-4.390370178E0,1.131646729E0,5.739215240E0,7.313997963E0
4.664670958E0,-4.026177521E0,1.196911011E0,5.518873444E0,6.935464331E0
4.674672958E0,-3.485202484E0,1.313668213E0,5.373825073E0,6.538375673E0
4.684675958E0,-3.266357574E0,1.454674988E0,5.406756592E0,6.482143779E0
4.694677958E0,-3.127895508E0,1.689985657E0,5.162614288E0,6.268362475E0
4.704680958E0,-3.324885864E0,1.948498077E0,4.584516449E0,5.989098583E0
4.714682958E0,-3.911965027E0,2.083068237E0,4.069437561E0,6.016890037E0
4.724685958E0,-4.185296631E0,2.248324585E0,3.981270905E0,6.198563490E0
4.734687958E0,-4.241429901E0,2.446662140E0,3.873045959E0,6.243105656E0
4.744690958E0,-4.216731262E0,2.527793427E0,3.645219727E0,6.120309551E0
4.754693958E0,-4.197571106E0,2.527943115E0,3.595822449E0,6.077831741E0
4.764695958E0,-4.201762390E0,2.623893585E0,3.841012573E0,6.268413062E0
4.774698958E0,-4.273762665E0,2.670147400E0,4.013304291E0,6.442153815E0
4.784700958E0,-4.262985077E0,2.643951874E0,4.405488739E0,6.676215568E0
4.794703958E0,-4.310735779E0,2.592608643E0,4.840933228E0,6.981310553E0
4.804705958E0,-4.326453094E0,2.519111481E0,5.219795380E0,7.232591709E0
4.814708958E0,-4.337380371E0,2.491269379E0,5.481600952E0,7.420730463E0
4.824710958E0,-4.412374420E0,2.451003113E0,5.774541779E0,7.669536950E0
4.834713958E0,-4.461622009E0,2.414628754E0,6.085894318E0,7.923043141E0
4.844715958E0,-4.597239990E0,2.374212799E0,6.372398529E0,8.208469099E0
4.854718958E0,-4.872218170E0,2.397863617E0,6.698570251E0,8.623172458E0
4.864720958E0,-5.274880829E0,2.599644012E0,7.081773376E0,9.205108957E0
4.874723958E0,-5.759423218E0,2.975512390E0,7.436984711E0,9.865767652E0
4.884725958E0,-6.370901642E0,3.480262756E0,7.668553162E0,1.055970285E1
4.894728958E0,-7.229965210E0,3.627406769E0,7.780220947E0,1.122329340E1
4.904730958E0,-8.209977264E0,3.038681030E0,7.904612274E0,1.179492282E1
4.914733958E0,-8.879834290E0,2.281555481E0,8.259524231E0,1.234004428E1
4.924735958E0,-9.073980560E0,1.988464966E0,8.872200165E0,1.284550707E1
4.934738958E0,-8.726702728E0,2.141297150E0,9.615853729E0,1.316074226E1
4.944740958E0,-8.203241272E0,2.654130707E0,9.940528564E0,1.315871139E1
4.954743958E0,-8.101902008E0,3.357817383E0,9.383087769E0,1.284360112E1
4.964746958E0,-8.353828125E0,3.887416077E0,8.901239777E0,1.281134332E1
4.974748958E0,-8.834927673E0,4.176614685E0,8.776249695E0,1.313478648E1
4.984751958E0,-9.536668396E0,3.947740631E0,8.699309692E0,1.349854397E1
4.994753958E0,-9.981243896E0,2.818339233E0,8.784183197E0,1.359154664E1
5.004756958E0,-1.048120422E1,1.401385803E0,8.459957428E0,1.354217131E1
5.014758958E0,-1.102232895E1,4.508624268E-1,8.181536407E0,1.373435657E1
5.024761958E0,-1.127230911E1,2.582130432E-1,8.495433655E0,1.411750756E1
5.034763958E0,-1.146406036E1,1.031504974E0,7.864495697E0,1.394055146E1
5.044766958E0,-1.197943863E1,2.356399841E0,6.348897400E0,1.376110709E1
5.054768958E0,-1.280152908E1,3.667373657E0,5.107229462E0,1.426227784E1
5.064771958E0,-1.349054626E1,4.496798859E0,4.435725861E0,1.489602975E1
5.074773958E0,-1.350581451E1,4.756808167E0,3.584146729E0,1.476077089E1
5.084776958E0,-1.276335846E1,4.685855713E0,3.196902008E0,1.396713089E1
5.094778958E0,-1.169038971E1,4.055366821E0,3.686833191E0,1.291138841E1
5.104781958E0,-1.024963577E1,3.163820801E0,4.718487854E0,1.171874239E1
5.114783958E0,-9.408385162E0,2.275567932E0,5.442532196E0,1.110482226E1
5.124786958E0,-8.839268646E0,1.490450592E0,5.840853882E0,1.069905076E1
5.134788958E0,-8.216114502E0,9.613009644E-1,6.090384979E0,1.027236225E1
5.144791958E0,-7.712411957E0,5.483097839E-1,6.668183441E0,1.021012303E1
5.154793958E0,-7.171586609E0,3.685336304E-1,6.862180023E0,9.932622322E0
5.164796958E0,-6.652915192E0,3.628454590E-1,6.736740875E0,9.475052242E0
5.174798958E0,-6.130800934E0,4.406835938E-1,6.437363434E0,8.900593806E0
5.184801958E0,-5.638025665E0,5.143304443E-1,6.004763031E0,8.252820625E0
5.194804958E0,-5.255421295E0,5.688171387E-1,5.582042084E0,7.687795507E0
5.204806958E0,-4.952601013E0,6.267466736E-1,5.148842926E0,7.171586412E0
5.214809958E0,-4.689747620E0,5.944139099E-1,4.721032562E0,6.680958695E0
5.224811958E0,-4.698279877E0,5.553451538E-1,4.511468353E0,6.537246266E0
5.234814958E0,-4.926405487E0,4.688250732E-1,4.271068268E0,6.536917631E0
5.244816958E0,-5.176685028E0,4.376898193E-1,3.836222534E0,6.458037131E0
5.254819958E0,-5.416785736E0,5.005590820E-1,3.551664276E0,6.496648847E0
5.264821958E0,-5.710924072E0,5.170248413E-1,3.407813416E0,6.670469303E0
5.274824958E0,-5.915847931E0,4.405339050E-1,3.318299561E0,6.797237589E0
5.284826958E0,-5.940097504E0,3.345542908E-1,3.295696564E0,6.801345511E0
5.294829958E0,-5.878425751E0,2.905458069E-1,3.359463959E0,6.776894884E0
5.304831958E0,-5.743705902E0,3.562591553E-1,3.568279724E0,6.771240526E0
5.314834958E0,-5.591771851E0,5.285508728E-1,3.744912415E0,6.750677555E0
5.324837583E0,-5.437891846E0,6.825805664E-1,4.001778259E0,6.786074947E0
5.334840583E0,-5.301675110E0,8.083190918E-1,4.180207214E0,6.799652276E0
5.344842583E0,-5.213807831E0,9.276210022E-1,4.372856598E0,6.867761473E0
5.354845583E0,-5.176535339E0,1.059496765E0,4.708309021E0,7.077232888E0
5.364847583E0,-5.134173431E0,1.152154083E0,5.157075806E0,7.367674445E0
5.374850583E0,-5.028792572E0,1.196911011E0,5.654940491E0,7.661573119E0
5.384852583E0,-4.917424164E0,1.253493347E0,6.131399689E0,7.959043166E0
5.394855583E0,-4.855153656E0,1.225351868E0,6.591093750E0,8.277470691E0
5.404857583E0,-4.932093658E0,1.140777740E0,6.996001740E0,8.635447993E0
5.414860583E0,-5.204377441E0,1.037642212E0,7.375312958E0,9.086115074E0
5.424862583E0,-5.770949249E0,1.011296997E0,7.816146240E0,9.768250555E0
5.434865583E0,-6.631509705E0,1.145118713E0,8.186476135E0,1.059748127E1
5.444868583E0,-7.560178528E0,1.654808807E0,8.362510071E0,1.139413297E1
5.454870583E0,-8.245303802E0,2.489473114E0,8.347241821E0,1.199412178E1
5.464873583E0,-8.428522797E0,3.326682129E0,7.927664337E0,1.203971230E1
5.474875583E0,-8.440797272E0,3.880829773E0,7.589667206E0,1.199628887E1
5.484878583E0,-8.801846466E0,4.007316742E0,7.522456970E0,1.225228336E1
5.494880583E0,-9.544901276E0,3.573219452E0,7.956105194E0,1.292952619E1
5.504883583E0,-1.000220032E1,3.037483521E0,8.841963043E0,1.369126100E1
5.514885583E0,-9.931247864E0,2.874622192E0,9.440119171E0,1.400032096E1
5.524888583E0,-1.026999344E1,3.063828735E0,9.600884857E0,1.438877346E1
5.534890583E0,-1.116947296E1,3.799099731E0,9.382489014E0,1.507386431E1
5.544893583E0,-1.144594803E1,4.919220428E0,8.737330627E0,1.521674743E1
5.554895583E0,-1.101319794E1,6.040838013E0,7.556136932E0,1.465869906E1
5.564898583E0,-1.055365356E1,6.451134796E0,5.877976685E0,1.369479294E1
5.574900583E0,-1.004695724E1,5.868097229E0,4.219874725E0,1.237672241E1
5.584903583E0,-1.005908203E1,4.632865906E0,3.476969604E0,1.160766537E1
5.594905583E0,-1.129386429E1,3.285368042E0,3.718118134E0,1.233569683E1
5.604908583E0,-1.247475861E1,2.094294891E0,3.517235870E0,1.312922776E1
5.614910583E0,-1.320823334E1,1.493294678E0,3.843706970E0,1.383695921E1
5.624913583E0,-1.374561584E1,1.457519073E0,3.625011749E0,1.429010241E1
5.634915583E0,-1.332948120E1,2.319576416E0,3.762575684E0,1.404323608E1
5.644918583E0,-1.223765167E1,3.717669067E0,4.917723541E0,1.370274376E1
5.654921583E0,-1.088042404E1,4.653672638E0,6.115682373E0,1.332073073E1
5.664923583E0,-9.845027161E0,4.735402679E0,7.009024658E0,1.297979295E1
5.674926583E0,-8.955127716E0,4.333338776E0,7.143145752E0,1.224731271E1
5.684928583E0,-8.107290802E0,3.956123199E0,6.955885162E0,1.139137451E1
5.694931583E0,-7.356601868E0,3.184328156E0,6.646777954E0,1.041341414E1
5.704933583E0,-6.536607056E0,2.481988678E0,6.258485413E0,9.383823275E0
5.714936583E0,-5.814358978E0,2.011666718E0,5.967340851E0,8.571040202E0
5.724938583E0,-5.131778412E0,1.594633942E0,5.496120758E0,7.686699582E0
5.734941583E0,-4.634662170E0,1.319805450E0,5.079537048E0,7.001690973E0
5.744943583E0,-4.173770599E0,1.252445526E0,4.941524048E0,6.588447520E0
5.754946583E0,-3.722309418E0,1.476828918E0,4.795727234E0,6.247848490E0
5.764948583E0,-3.583248596E0,1.881437531E0,4.489763489E0,6.044621896E0
5.774951583E0,-3.805536346E0,2.082768860E0,4.123325500E0,5.985135436E0
5.784953583E0,-4.156107330E0,2.286195831E0,3.883224792E0,6.130200185E0
5.794956583E0,-4.349954224E0,2.484683075E0,3.769161987E0,6.269157345E0
5.804958583E0,-4.469854889E0,2.631527710E0,3.792812805E0,6.425727180E0
5.814961583E0,-4.443060608E0,2.796185303E0,3.778292999E0,6.467993337E0
5.824963583E0,-4.299958191E0,2.889441376E0,3.714974670E0,6.374915584E0
5.834966583E0,-4.188739471E0,2.877466278E0,3.833827515E0,6.365813691E0
5.844968583E0,-4.154760132E0,2.742746429E0,4.045337677E0,6.414783445E0
5.854971583E0,-4.151466980E0,2.538121948E0,4.215384064E0,6.437872623E0
5.864973583E0,-4.144730988E0,2.313588867E0,4.314028931E0,6.414229028E0
5.874976583E0,-4.231251068E0,2.158062286E0,4.501139832E0,6.543774004E0
5.884978583E0,-4.222718811E0,2.213147736E0,4.786446533E0,6.755697408E0
5.894981583E0,-4.248465271E0,2.298021240E0,4.941524048E0,6.910066475E0
5.904984583E0,-4.281097412E0,2.419568481E0,5.173391876E0,7.137652989E0
5.914986583E0,-4.426145782E0,2.523302765E0,5.474864960E0,7.478767924E0
5.924989583E0,-4.578079834E0,2.618654480E0,5.737568665E0,7.793321528E0
5.934991583E0,-4.879702606E0,2.724334717E0,5.998176727E0,8.198269404E0
5.944994583E0,-5.452261963E0,2.889740753E0,6.249204712E0,8.782387014E0
5.954996583E0,-6.113736420E0,3.240760803E0,6.649322662E0,9.596551227E0
5.964999583E0,-6.728957062E0,3.688928833E0,7.034322052E0,1.041003102E1
5.975001583E0,-7.484136658E0,3.702251129E0,7.241341553E0,1.105242021E1
5.985004583E0,-8.369695129E0,2.939587097E0,7.323969727E0,1.150362992E1
5.995006583E0,-9.182355194E0,2.004182281E0,7.601043549E0,1.208752483E1
6.005009583E0,-9.538165283E0,1.674567719E0,8.391998749E0,1.281430517E1
6.015011583E0,-9.302255859E0,1.870210876E0,9.272916870E0,1.326712629E1
6.025014583E0,-8.508606262E0,2.344574432E0,9.428443451E0,1.291467985E1
6.035016583E0,-7.458240509E0,3.061882782E0,8.527467041E0,1.173533859E1
6.045019583E0,-6.839127960E0,3.666475525E0,7.837252350E0,1.102901802E1
6.055021583E0,-6.681954803E0,4.145030365E0,7.792794800E0,1.107056672E1
6.065024583E0,-6.947203217E0,4.208199005E0,8.123307495E0,1.148741468E1
6.075026583E0,-7.712112579E0,3.559298401E0,8.278385010E0,1.186073117E1
6.085029583E0,-9.000333710E0,2.073338470E0,8.106991425E0,1.228934698E1
6.095031583E0,-1.023182281E1,4.601431274E-1,8.016579437E0,1.300643978E1
6.105034583E0,-1.120045853E1,-5.763015747E-1,8.231831818E0,1.391206131E1
6.115036583E0,-1.166763702E1,-8.140072632E-1,8.695567474E0,1.457426689E1
6.125039583E0,-1.247820145E1,3.113525391E-1,8.667425995E0,1.519627340E1
6.135042583E0,-1.387539597E1,2.337688751E0,7.317233734E0,1.585980175E1
6.145044583E0,-1.595517105E1,4.101920013E0,6.428382111E0,1.768381541E1
6.155047583E0,-1.731030304E1,5.105283508E0,5.479205933E0,1.886086447E1
6.165049583E0,-1.696586929E1,5.462590485E0,4.572840729E0,1.840085563E1
6.175052583E0,-1.569396423E1,5.186265106E0,4.069886627E0,1.702239220E1
6.185054583E0,-1.319685699E1,4.126918030E0,4.856500854E0,1.465517272E1
6.195057583E0,-1.074061478E1,2.928210754E0,6.131998444E0,1.270970609E1
6.205059583E0,-9.418863373E0,1.902393951E0,6.608906708E0,1.166240704E1
6.215062583E0,-8.341853027E0,1.283281403E0,6.663842468E0,1.075360960E1
6.225064583E0,-7.328759766E0,9.047186279E-1,6.548881531E0,9.870009362E0
6.235067583E0,-6.795269165E0,5.215155029E-1,6.616690521E0,9.498855452E0
6.245069583E0,-6.300398254E0,4.092489624E-1,6.605912933E0,9.137865646E0
6.255072583E0,-5.680237885E0,4.388873291E-1,6.330335999E0,8.516506230E0
6.265074583E0,-5.191653900E0,4.501139832E-1,5.923482056E0,7.889455778E0
6.275077583E0,-4.715793457E0,3.965254211E-1,5.448519745E0,7.216807310E0
6.285079583E0,-4.501139832E0,2.703378296E-1,5.126239929E0,6.827274576E0
6.295082583E0,-4.317920837E0,1.930984497E-1,4.830754395E0,6.482122753E0
6.305084583E0,-4.173620911E0,1.347198486E-1,4.568200378E0,6.189161142E0
6.315087583E0,-4.192631378E0,8.083190918E-2,4.400399323E0,6.078503588E0
6.325088875E0,-4.208049316E0,6.900650024E-2,4.101770325E0,5.876815527E0
6.335091875E0,-4.229005737E0,8.247848511E-2,3.694766693E0,5.616279297E0
6.345093875E0,-4.232598267E0,1.163081360E-1,3.316952362E0,5.378716263E0
6.355096875E0,-4.348157959E0,1.378633118E-1,3.118465118E0,5.352598306E0
6.365098875E0,-4.521497498E0,1.410067749E-1,3.018473053E0,5.438290366E0
6.375101875E0,-4.729415131E0,1.163081360E-1,3.147953796E0,5.682473772E0
6.385104875E0,-4.886588287E0,1.429527283E-1,3.323239288E0,5.911268894E0
6.395106875E0,-4.979694672E0,2.746788025E-1,3.612138519E0,6.157950320E0
6.405109875E0,-5.026996307E0,5.004093933E-1,3.973786469E0,6.427447420E0
6.415111875E0,-5.050946503E0,6.950047302E-1,4.344266052E0,6.698338576E0
6.425114875E0,-5.137017517E0,8.105644226E-1,4.704566803E0,7.012767817E0
6.435116875E0,-5.271138611E0,7.822732544E-1,5.049150238E0,7.341033430E0
6.445119875E0,-5.408253479E0,6.318360901E-1,5.582640839E0,7.798352472E0
6.455121875E0,-5.478756866E0,5.316943359E-1,6.071374512E0,8.195185424E0
6.465124875E0,-5.504054260E0,4.679269409E-1,6.623276825E0,8.624463161E0
6.475126875E0,-5.485193481E0,4.309538269E-1,7.228767700E0,9.084500602E0
6.485129875E0,-5.537285156E0,4.138893127E-1,7.785010986E0,9.562386068E0
6.495131875E0,-5.767955475E0,4.806504822E-1,8.246351624E0,1.007485237E1
6.505134875E0,-6.123765564E0,6.701564026E-1,8.580307159E0,1.056273096E1
6.515136875E0,-6.680308228E0,1.093476105E0,8.800349579E0,1.110262855E1
6.525139875E0,-7.517666931E0,1.808988190E0,8.885672150E0,1.177891862E1
6.535141875E0,-8.300838318E0,2.811154175E0,8.712033234E0,1.235742803E1
6.545144875E0,-8.664881287E0,3.816763000E0,8.230185242E0,1.254526989E1
6.555146875E0,-8.635991364E0,4.456682281E0,7.770341492E0,1.244269146E1
6.565149875E0,-8.445587311E0,4.691543884E0,7.481891327E0,1.221954283E1
6.575151875E0,-8.489146729E0,4.274960175E0,7.664212189E0,1.220987490E1
6.585154875E0,-8.700806580E0,3.284170532E0,7.869435425E0,1.218268546E1
6.595156875E0,-8.507857819E0,2.463576965E0,8.153394928E0,1.203871692E1
6.605159875E0,-8.114326172E0,2.407443695E0,8.844956818E0,1.224219488E1
6.615162875E0,-7.989934845E0,3.194057922E0,9.327553253E0,1.269032366E1
6.625164875E0,-8.315208435E0,4.808750153E0,9.395212555E0,1.343639789E1
6.635166875E0,-9.094188538E0,6.455475769E0,8.729696503E0,1.416280458E1
6.645169875E0,-9.602082367E0,7.843988342E0,7.878117371E0,1.468989014E1
6.655172875E0,-9.744586029E0,8.430768127E0,6.130950623E0,1.426966586E1
6.665174875E0,-1.015892441E1,7.764054565E0,4.642895050E0,1.360296890E1
6.675177875E0,-1.194007050E1,5.609584808E0,3.680396576E0,1.369591341E1
6.685179875E0,-1.393302612E1,3.479963379E0,3.122357025E0,1.469654638E1
6.695182875E0,-1.505673935E1,1.901495819E0,4.047283630E0,1.570673712E1
6.705184875E0,-1.521795410E1,8.939410400E-1,4.414619751E0,1.587054269E1
6.715187875E0,-1.402194122E1,7.649093628E-1,4.453688507E0,1.473211673E1
6.725189875E0,-1.193917236E1,1.795965271E0,4.993316345E0,1.306531806E1
6.735192875E0,-1.039363632E1,3.288810883E0,5.422324219E0,1.217561304E1
6.745194875E0,-9.579030304E0,4.142036591E0,5.992937622E0,1.203451661E1
6.755197875E0,-8.813372498E0,4.678221588E0,6.757697296E0,1.205104828E1
6.765199875E0,-8.111631775E0,4.562961273E0,6.930288391E0,1.160379605E1
6.775202875E0,-7.544161835E0,3.933520203E0,6.735543365E0,1.085147471E1
6.785204875E0,-6.913822632E0,2.988984375E0,6.286776581E0,9.811143193E0
6.795207875E0,-6.320007477E0,1.947599945E0,6.060746613E0,8.970411894E0
6.805209875E0,-5.745352478E0,1.129251709E0,5.817203064E0,8.253734670E0
6.815212875E0,-5.190606079E0,6.581813049E-1,5.437293091E0,7.545843243E0
6.825214875E0,-4.842130737E0,3.144960022E-1,5.138364716E0,7.067384931E0
6.835217875E0,-4.316573639E0,2.887495422E-1,4.876110077E0,6.518637416E0
6.845219875E0,-3.776646423E0,6.285429382E-1,4.914280701E0,6.229629141E0
6.855222875E0,-3.615731049E0,1.127904510E0,4.677473145E0,6.018673826E0
6.865225875E0,-3.807781677E0,1.666634216E0,4.017794952E0,5.780964210E0
6.875227875E0,-4.176015930E0,2.181563416E0,3.667373657E0,5.970591053E0
6.885229875E0,-4.496050415E0,2.532882843E0,3.646417236E0,6.318727996E0
6.895232875E0,-4.671784973E0,2.739602966E0,3.579506378E0,6.491830648E0
6.905235875E0,-4.763544159E0,2.844983826E0,3.515439606E0,6.568378913E0
6.915237875E0,-4.698279877E0,2.829865265E0,3.517834625E0,6.515913725E0
6.925240875E0,-4.610861664E0,2.741848297E0,3.619173889E0,6.471182041E0
6.935242875E0,-4.518503723E0,2.583777008E0,3.856280823E0,6.477938044E0
6.945245875E0,-4.469106445E0,2.452500000E0,4.101321259E0,6.542820855E0
6.955247875E0,-4.446204071E0,2.335144043E0,4.287234650E0,6.603181755E0
6.965250875E0,-4.404889984E0,2.234253845E0,4.424199829E0,6.630874011E0
6.975252875E0,-4.339925079E0,2.271376648E0,4.872966614E0,6.909407007E0
6.985255875E0,-4.325405273E0,2.336790619E0,4.969216461E0,6.990195520E0
6.995257875E0,-4.330943756E0,2.456840973E0,5.221591644E0,7.215134142E0
7.005260875E0,-4.509971466E0,2.553240509E0,5.539081421E0,7.585532460E0
7.015262875E0,-4.807402954E0,2.659369812E0,5.881419525E0,8.048258606E0
7.025265875E0,-5.159919891E0,2.830613708E0,6.168821869E0,8.525931650E0
7.035267875E0,-5.603447571E0,3.108735352E0,6.558311920E0,9.169204731E0
7.045270875E0,-6.043831787E0,3.405268707E0,6.779701538E0,9.699902607E0
7.055272875E0,-6.591842194E0,3.406915283E0,6.847360840E0,1.009682157E1
7.065275875E0,-7.479047241E0,2.723885651E0,6.818171539E0,1.048060894E1
7.075277875E0,-8.614286499E0,1.762884064E0,7.227121124E0,1.138178246E1
7.085280875E0,-9.377100220E0,1.273551636E0,8.036787415E0,1.241538941E1
7.095282875E0,-9.153315582E0,1.366059265E0,8.772208099E0,1.275150732E1
7.105285875E0,-8.208779755E0,1.878144379E0,9.337582397E0,1.257385925E1
7.115287875E0,-7.259753265E0,2.540217590E0,8.949888611E0,1.180073002E1
7.125290875E0,-6.911128235E0,3.204685822E0,8.200696564E0,1.119308397E1
7.135292875E0,-6.781497803E0,3.829636230E0,7.862400055E0,1.106671409E1
7.145295875E0,-6.809339905E0,4.336482239E0,8.228538666E0,1.152740373E1
7.155298875E0,-7.370822296E0,4.562063141E0,8.755293274E0,1.232057636E1
7.165300875E0,-8.473728790E0,3.802392883E0,8.713230743E0,1.273509565E1
7.175303875E0,-9.952204285E0,2.103874969E0,9.008716278E0,1.358784858E1
7.185305875E0,-1.168919220E1,1.682501221E-1,8.725205841E0,1.458748571E1
7.195308875E0,-1.256247620E1,-1.050515442E0,8.480614471E0,1.519342663E1
7.205310875E0,-1.304627014E1,-1.077160034E0,8.689280548E0,1.571206653E1
7.215313875E0,-1.422117691E1,2.740800476E-1,8.138276367E0,1.638745053E1
7.225315875E0,-1.591460541E1,2.590662689E0,6.850055237E0,1.751883145E1
7.235318875E0,-1.741343857E1,4.524790649E0,5.540278931E0,1.882541537E1
7.245320875E0,-1.728021561E1,5.801635437E0,4.742438049E0,1.883495537E1
7.255323875E0,-1.584410202E1,6.361321564E0,3.228935394E0,1.737607564E1
7.265325875E0,-1.379022308E1,5.913752289E0,3.532803497E0,1.541503874E1
7.275328875E0,-1.118129837E1,4.534071350E0,5.213508453E0,1.314381629E1
7.285330875E0,-9.516161041E0,2.998714142E0,6.189927979E0,1.174158490E1
7.295333875E0,-8.828640747E0,1.857337646E0,6.572083282E0,1.116184928E1
7.305335875E0,-7.915240173E0,1.295705566E0,6.520889740E0,1.033691844E1
7.315338875E0,-7.216044159E0,8.216413879E-1,6.587800598E0,9.805381410E0
7.325341708E0,-6.695426788E0,4.929249573E-1,6.534361725E0,9.368543005E0
7.335344708E0,-6.084397430E0,4.790039062E-1,6.363417206E0,8.817165949E0
7.345346708E0,-5.444777527E0,6.089337158E-1,6.187532959E0,8.264500391E0
7.355349708E0,-4.976700897E0,7.030879211E-1,5.676795044E0,7.582076656E0
7.365351708E0,-4.601730652E0,7.698490906E-1,5.043761444E0,6.870816700E0
7.375354708E0,-4.403842163E0,7.054829407E-1,4.696483612E0,6.476765419E0
7.385356708E0,-4.320016479E0,5.975573730E-1,4.434977417E0,6.220019444E0
7.395359708E0,-4.306843872E0,4.640350342E-1,4.346361694E0,6.136374551E0
7.405362708E0,-4.378395081E0,3.165916443E-1,4.229005737E0,6.095495327E0
7.415364708E0,-4.459077301E0,1.987866211E-1,3.861220551E0,5.901856542E0
7.425367708E0,-4.550686798E0,1.059796143E-1,3.559597778E0,5.778470244E0
7.435369708E0,-4.642296295E0,1.282832336E-1,3.406017151E0,5.759194762E0
7.445372708E0,-4.784949646E0,1.486408997E-1,3.358116760E0,5.847630752E0
7.455374708E0,-4.835544434E0,1.742376709E-1,3.462898865E0,5.950169517E0
7.465377708E0,-4.823868713E0,2.850073242E-1,3.640878754E0,6.050366653E0
7.475379708E0,-4.793182526E0,4.240681458E-1,3.874093781E0,6.177623745E0
7.485382708E0,-4.788242798E0,5.905220032E-1,4.124223633E0,6.347062777E0
7.495384708E0,-4.837640076E0,7.071295166E-1,4.375700684E0,6.561215598E0
7.505387708E0,-4.895719299E0,8.235873413E-1,4.723427582E0,6.852527394E0
7.515389708E0,-4.967569885E0,9.328601074E-1,5.046306152E0,7.142281451E0
7.525392708E0,-5.034929810E0,9.406439209E-1,5.302423553E0,7.372314746E0
7.535394708E0,-5.066963196E0,8.653504944E-1,5.619763641E0,7.616081072E0
7.545397708E0,-5.058730316E0,8.074209595E-1,5.906866608E0,7.818807718E0
7.555399708E0,-5.010680237E0,8.068222046E-1,6.255042572E0,8.055025517E0
7.565402708E0,-5.036576385E0,8.059240723E-1,6.684798889E0,8.408516604E0
7.575404708E0,-5.188360748E0,8.171507263E-1,7.132368164E0,8.857623733E0
7.585407708E0,-5.482050018E0,8.901988220E-1,7.588769073E0,9.403974819E0
7.595409708E0,-6.000571747E0,1.021176453E0,7.998616791E0,1.005124536E1
7.605412708E0,-6.683152313E0,1.146166534E0,8.202492828E0,1.064232640E1
7.615414708E0,-7.447612610E0,1.368154907E0,8.372838593E0,1.128907470E1
7.625417708E0,-8.111182709E0,1.896107025E0,8.629854126E0,1.199420231E1
7.635419708E0,-8.717422028E0,2.604583740E0,8.611442413E0,1.252733985E1
7.645422708E0,-9.086255035E0,3.232378235E0,8.345146179E0,1.275342167E1
7.655424708E0,-9.213789825E0,3.526965637E0,7.932753754E0,1.265946253E1
7.665427708E0,-9.268875275E0,3.200793915E0,7.679181061E0,1.245499708E1
7.675429708E0,-9.134454803E0,2.378404083E0,7.957302704E0,1.234559585E1
7.685432708E0,-8.725056152E0,1.836530914E0,8.579708405E0,1.237379679E1
7.695435708E0,-8.384963379E0,1.909579010E0,9.429042206E0,1.276169815E1
7.705437708E0,-8.574768677E0,2.362986145E0,1.028286667E1,1.359587100E1
7.715440708E0,-8.999435577E0,3.397933960E0,1.052626053E1,1.425966187E1
7.725442708E0,-9.406738586E0,4.767885132E0,1.000684067E1,1.453809890E1
7.735445708E0,-9.632469177E0,5.978717194E0,8.642278290E0,1.425547248E1
7.745447708E0,-9.348210297E0,6.705306244E0,7.099885712E0,1.351882187E1
7.755450708E0,-9.012757874E0,6.455625458E0,5.681435394E0,1.245727148E1
7.765452708E0,-9.453890533E0,5.194947052E0,4.383185120E0,1.164370357E1
7.775455708E0,-1.110106522E1,3.819607086E0,3.993246002E0,1.240036535E1
7.785457708E0,-1.298908905E1,2.756368103E0,4.222868500E0,1.393365056E1
7.795460708E0,-1.452744003E1,1.817969513E0,4.339176636E0,1.527023186E1
7.805462708E0,-1.573288330E1,1.137634277E0,3.924538879E0,1.625484033E1
7.815465708E0,-1.581251770E1,1.702559509E0,3.776646423E0,1.634617641E1
7.825467708E0,-1.474119553E1,3.334166565E0,4.796325989E0,1.585636324E1
7.835470708E0,-1.236773117E1,4.882696381E0,6.197412415E0,1.467001769E1
7.845472708E0,-1.014814682E1,5.317841492E0,6.920109558E0,1.338477636E1
7.855475708E0,-8.951984253E0,4.926555176E0,6.998995514E0,1.238526973E1
7.865477708E0,-7.642507324E0,4.327351227E0,7.093598785E0,1.128950976E1
7.875480708E0,-6.755901031E0,3.475323029E0,6.902595978E0,1.026478934E1
7.885482708E0,-6.097420349E0,2.690205688E0,6.257138214E0,9.141527235E0
7.895485708E0,-5.288352814E0,2.103425903E0,5.760471039E0,8.097783808E0
7.905487708E0,-4.682562561E0,1.614841919E0,5.509293365E0,7.408536964E0
7.915490708E0,-4.177662506E0,1.259929962E0,5.217999115E0,6.802043979E0
7.925492708E0,-3.707190857E0,1.157243500E0,5.079087982E0,6.393716548E0
7.935495708E0,-3.406915283E0,1.358125763E0,4.648433533E0,5.921107299E0
7.945497708E0,-3.112627258E0,1.737736359E0,4.023483124E0,5.375555092E0
7.955500708E0,-3.001857605E0,2.168091431E0,3.824995880E0,5.323754598E0
7.965502708E0,-3.341651001E0,2.337838440E0,3.558549957E0,5.412522312E0
7.975505708E0,-3.921395416E0,2.398911438E0,3.168610840E0,5.583208106E0
7.985507708E0,-4.252357178E0,2.508932648E0,3.144960022E0,5.853892563E0
7.995510708E0,-4.462370453E0,2.596201172E0,3.349135437E0,6.153837726E0
8.005513708E0,-4.560566254E0,2.697839813E0,3.403322754E0,6.297595571E0
8.015515708E0,-4.557422791E0,2.767894135E0,3.487896881E0,6.371559078E0
8.025518708E0,-4.473896484E0,2.734962616E0,3.683090973E0,6.407880256E0
8.035520708E0,-4.476291504E0,2.572400665E0,3.967200165E0,6.510998998E0
8.045523708E0,-4.521647186E0,2.340083771E0,4.282145233E0,6.652672631E0
8.055525708E0,-4.534969482E0,2.144141235E0,4.529431000E0,6.758626711E0
8.065528708E0,-4.518503723E0,2.090552673E0,4.983586578E0,7.044389367E0
8.075530708E0,-4.477039948E0,2.126627655E0,5.195994873E0,7.180863082E0
8.085533708E0,-4.558171234E0,2.208058319E0,5.368735657E0,7.380770223E0
8.095535708E0,-4.719385986E0,2.266137543E0,5.642516327E0,7.697140635E0
8.105538708E0,-4.865332489E0,2.295775909E0,5.838608551E0,7.939231516E0
8.115540708E0,-5.042264557E0,2.327060852E0,6.032605133E0,8.199510276E0
8.125543708E0,-5.303920441E0,2.423161011E0,6.279441833E0,8.569403192E0
8.135545708E0,-5.627697144E0,2.618504791E0,6.689588928E0,9.125685865E0
8.145548708E0,-5.955964508E0,2.818189545E0,6.960076447E0,9.584277212E0
8.155550708E0,-6.402336273E0,2.789748688E0,7.029232635E0,9.908719339E0
8.165553708E0,-7.305857391E0,2.291135559E0,7.010820923E0,1.038154441E1
8.175555708E0,-8.669072571E0,1.484762421E0,7.328610077E0,1.144840008E1
8.185558708E0,-9.579778748E0,9.554631042E-1,8.004155273E0,1.252004681E1
8.195560708E0,-9.433981934E0,1.039588165E0,8.706943817E0,1.287989244E1
8.205563708E0,-8.378377075E0,1.663640442E0,9.430239716E0,1.272377000E1
8.215565708E0,-7.808063049E0,2.489772491E0,9.199419708E0,1.232047640E1
8.225568708E0,-7.685318298E0,3.288511505E0,8.583300934E0,1.198129710E1
8.235570708E0,-7.727979584E0,4.030368805E0,8.463250580E0,1.214875103E1
8.245573708E0,-8.094267883E0,4.526886292E0,8.731492767E0,1.273769359E1
8.255575708E0,-8.657097473E0,4.376598816E0,9.104666748E0,1.330394342E1
8.265578708E0,-9.066196747E0,3.045566711E0,8.976233826E0,1.311656105E1
8.275581708E0,-9.940678253E0,1.230291595E0,8.635093231E0,1.322480762E1
8.285583708E0,-1.094209579E1,-3.240760803E-1,8.041876831E0,1.358330846E1
8.295586708E0,-1.141795624E1,-1.084943848E0,8.041876831E0,1.400780535E1
8.305588708E0,-1.208481949E1,-7.741900635E-1,8.053702240E0,1.454318920E1
8.315591708E0,-1.310794189E1,7.074288940E-1,6.997199249E0,1.487546281E1
8.325593458E0,-1.441008408E1,2.752775574E0,5.605692902E0,1.570516123E1
8.335596458E0,-1.575279190E1,4.398004303E0,5.004093933E0,1.710362098E1
8.345598458E0,-1.595816483E1,5.083578644E0,3.647015991E0,1.714078534E1
8.355601458E0,-1.511212418E1,5.331912231E0,3.174598389E0,1.633657431E1
8.365603458E0,-1.327409637E1,4.935536499E0,4.007915497E0,1.471817046E1
8.375606458E0,-1.102083206E1,3.680097198E0,5.628146210E0,1.291037894E1
8.385608458E0,-9.678423615E0,2.471061401E0,6.546935577E0,1.194321538E1
8.395611458E0,-8.943152618E0,1.550026703E0,6.823260956E0,1.135515088E1
8.405613458E0,-8.172854462E0,9.518705750E-1,6.765930176E0,1.065267191E1
8.415616458E0,-7.619754639E0,5.132826233E-1,6.860982513E0,1.026631389E1
8.425618458E0,-7.029082947E0,3.924838257E-1,6.845714264E0,9.819666716E0
8.435621458E0,-6.436614990E0,4.754113770E-1,6.666985931E0,9.279263436E0
8.445623458E0,-6.044879608E0,5.065466309E-1,6.452631683E0,8.856275437E0
8.455626458E0,-5.818101196E0,4.460723877E-1,6.295159149E0,8.583607098E0
8.465628458E0,-5.632487183E0,3.493734741E-1,5.987997894E0,8.228188894E0
8.475631458E0,-5.481600952E0,1.158590698E-1,5.688620453E0,7.900745217E0
8.485633458E0,-5.337001648E0,-4.520599365E-2,5.254672852E0,7.489807538E0
8.495636458E0,-5.233117676E0,-9.984237671E-2,4.856949921E0,7.140409767E0
8.505638458E0,-5.171445923E0,-2.649490356E-2,4.535717926E0,6.878756575E0
8.515641458E0,-5.162614288E0,-3.442840576E-3,4.079017639E0,6.579588364E0
8.525643458E0,-5.112019501E0,6.721023560E-2,3.700754242E0,6.311326529E0
8.535646458E0,-5.083878021E0,1.739382935E-1,3.503165131E0,6.176425843E0
8.545648458E0,-5.051994324E0,2.296224976E-1,3.392395477E0,6.089640401E0
8.555651458E0,-4.954846344E0,2.543211365E-1,3.296445007E0,5.956654365E0
8.565654458E0,-4.835394745E0,2.318678284E-1,3.296295319E0,5.856651591E0
8.575656458E0,-4.705614624E0,2.309696960E-1,3.363056488E0,5.788463089E0
8.585659458E0,-4.656965790E0,2.653981018E-1,3.546874237E0,5.859870594E0
8.595661458E0,-4.599485321E0,3.447331238E-1,3.873644714E0,6.023224180E0
8.605664458E0,-4.529431000E0,4.252656555E-1,4.172573090E0,6.173083690E0
8.615666458E0,-4.527784424E0,5.301974487E-1,4.402494965E0,6.337499746E0
8.625669458E0,-4.605472870E0,5.525010681E-1,4.717889099E0,6.616200975E0
8.635671458E0,-4.660857697E0,5.342390442E-1,5.215753784E0,7.015204442E0
8.645674458E0,-4.650978241E0,5.179229736E-1,5.725892944E0,7.394977540E0
8.655676458E0,-4.614304504E0,4.863386536E-1,6.171216888E0,7.720896919E0
8.665679458E0,-4.537514191E0,4.375401306E-1,6.544540558E0,7.975681006E0
8.675681458E0,-4.608167267E0,3.867956543E-1,6.973698120E0,8.367632993E0
8.685684458E0,-4.826114044E0,3.112028503E-1,7.435487823E0,8.869876163E0
8.695686458E0,-5.207520905E0,2.478845215E-1,7.854316864E0,9.427089376E0
8.705689458E0,-5.810467072E0,3.023712158E-1,8.302484894E0,1.013825485E1
8.715691458E0,-6.732848969E0,6.415658569E-1,8.841813354E0,1.113195964E1
8.725694458E0,-7.851023712E0,1.398691406E0,9.153315582E0,1.213993810E1
8.735696458E0,-8.545878754E0,2.279459839E0,8.913364563E0,1.255691239E1
8.745699458E0,-8.534652100E0,2.994073792E0,8.055797882E0,1.211200412E1
8.755701458E0,-8.134833527E0,3.360511780E0,7.340585175E0,1.146092259E1
8.765704458E0,-7.977061615E0,3.217559052E0,7.086713104E0,1.114485087E1
8.775706458E0,-8.175848236E0,2.486928406E0,7.289541321E0,1.123239600E1
8.785709458E0,-8.125253448E0,1.732197876E0,7.782915344E0,1.138393712E1
8.795711458E0,-7.551646271E0,1.519939270E0,8.541388092E0,1.150186452E1
8.805714458E0,-7.436385956E0,1.795067139E0,9.565408630E0,1.224823026E1
8.815716458E0,-7.884553986E0,2.639760590E0,1.020368134E1,1.316243292E1
8.825719458E0,-8.596024475E0,4.002526703E0,1.009410919E1,1.384929230E1
8.835721458E0,-9.597442017E0,5.667065277E0,9.477241974E0,1.463026444E1
8.845724458E0,-1.038719971E1,7.414531403E0,8.560997314E0,1.536749390E1
8.855727458E0,-1.084150497E1,8.432863770E0,7.023694153E0,1.542672036E1
8.865729458E0,-1.133787277E1,8.064629517E0,5.766608276E0,1.506118784E1
8.875732458E0,-1.274809021E1,6.077362061E0,4.771327972E0,1.490683415E1
8.885734458E0,-1.458851303E1,3.869303741E0,4.204157410E0,1.566751938E1
8.895737458E0,-1.614871857E1,2.143542480E0,5.035528564E0,1.705087780E1
8.905739458E0,-1.705388626E1,9.849517822E-1,5.309608612E0,1.788846305E1
8.915742458E0,-1.545161819E1,1.540746002E0,5.882317657E0,1.660506140E1
8.925744458E0,-1.247610580E1,3.528312836E0,6.140530701E0,1.434602122E1
8.935747458E0,-1.004336472E1,5.073250122E0,6.180497589E0,1.283766303E1
8.945749458E0,-8.843908997E0,5.337600403E0,6.721173248E0,1.232391473E1
8.955752458E0,-7.885452118E0,4.925357666E0,7.185208282E0,1.175017963E1
8.965754458E0,-6.969357147E0,4.237987061E0,7.096592560E0,1.081175746E1
8.975757458E0,-6.246809692E0,3.444936218E0,6.651567993E0,9.753644121E0
8.985759458E0,-5.669310608E0,2.525997162E0,6.520440674E0,9.002104810E0
8.995762458E0,-5.094805298E0,1.641037445E0,6.302344208E0,8.268590414E0
9.005764458E0,-4.465513916E0,1.033600616E0,5.883215790E0,7.457973773E0
9.015767458E0,-3.890559540E0,5.860313416E-1,5.742807770E0,6.961302130E0
9.025769458E0,-3.438050537E0,4.737648010E-1,5.649402008E0,6.630263014E0
9.035772458E0,-3.129093018E0,6.096821594E-1,5.254672852E0,6.146098130E0
9.045774458E0,-3.040776672E0,9.376501465E-1,4.745731201E0,5.713796916E0
9.055777458E0,-3.298840027E0,1.355730743E0,4.193529510E0,5.505092290E0
9.065779458E0,-3.858376465E0,1.758992157E0,3.736978912E0,5.652091095E0
9.075782458E0,-4.289330292E0,2.122885437E0,3.647914124E0,6.017663532E0
9.085784458E0,-4.478985901E0,2.313738556E0,3.669618988E0,6.235447404E0
9.095787458E0,-4.514761505E0,2.424657898E0,3.637884979E0,6.284603766E0
9.105789458E0,-4.461472321E0,2.433938599E0,3.593128052E0,6.224095241E0
9.115792458E0,-4.344565430E0,2.371219025E0,3.664978638E0,6.158733380E0
9.125794458E0,-4.272265778E0,2.249372406E0,3.847598877E0,6.173811482E0
9.135797458E0,-4.264631653E0,2.049987030E0,3.931873627E0,6.152167112E0
9.145800458E0,-4.318369904E0,1.888772278E0,4.174369354E0,6.296120937E0
9.155802458E0,-4.415368195E0,1.822460175E0,4.428690491E0,6.513841942E0
9.165804458E0,-4.532125397E0,1.892364807E0,4.780758362E0,6.853966420E0
9.175807458E0,-4.689897308E0,2.051633606E0,5.173541565E0,7.278040227E0
9.185810458E0,-4.905748444E0,2.233206024E0,5.567522278E0,7.749250367E0
9.195812458E0,-5.168601837E0,2.430196381E0,6.029012604E0,8.304775275E0
9.205815458E0,-5.489085388E0,2.617307281E0,6.527625732E0,8.921336980E0
9.215817458E0,-5.798342285E0,2.737806702E0,7.011868744E0,9.501718901E0
9.225820458E0,-6.149961090E0,2.808759155E0,7.351063385E0,9.987456247E0
9.235822458E0,-6.481820984E0,2.783312073E0,7.696095886E0,1.043986213E1
9.245825458E0,-6.719376984E0,2.586321716E0,7.966733093E0,1.073815269E1
9.255827458E0,-7.133715363E0,2.105371857E0,7.992329865E0,1.091786711E1
9.265830458E0,-7.865244141E0,1.418300629E0,8.050259399E0,1.134373477E1
9.275832458E0,-8.862320709E0,6.423143005E-1,8.380023651E0,1.221384839E1
9.285835458E0,-9.376950531E0,1.386117554E-1,8.619226227E0,1.273724755E1
9.295837458E0,-8.486751709E0,3.561094666E-1,8.990903320E0,1.236883628E1
9.305840458E0,-7.188950500E0,1.202449493E0,9.042994995E0,1.161476012E1
9.315842458E0,-6.869365082E0,2.142045593E0,8.538693695E0,1.116628076E1
9.325844875E0,-7.056475983E0,3.020568695E0,8.158334656E0,1.120161207E1
9.335846875E0,-7.248227234E0,3.711831207E0,8.028105469E0,1.143525104E1
9.345849875E0,-7.460635529E0,4.195774841E0,8.426277466E0,1.201115152E1
9.355851875E0,-8.046068115E0,4.067790985E0,8.998986511E0,1.273844158E1
9.365854875E0,-8.941056976E0,2.848276978E0,9.313931580E0,1.322136540E1
9.375856875E0,-9.986333313E0,1.098864899E0,9.118587799E0,1.356771906E1
9.385859875E0,-1.094598770E1,-3.676354980E-1,8.412506104E0,1.381014343E1
9.395861875E0,-1.120300323E1,-1.024170227E0,8.171207886E0,1.390413048E1
9.405864875E0,-1.203811661E1,-5.035528564E-1,7.806566162E0,1.435661144E1
9.415866875E0,-1.298040710E1,1.295705566E0,6.749015350E0,1.468737654E1
9.425869875E0,-1.439496552E1,3.339106293E0,5.692512360E0,1.583569891E1
9.435871875E0,-1.579530350E1,4.689747620E0,4.727020111E0,1.714147206E1
9.445874875E0,-1.576087509E1,5.553601227E0,4.023932190E0,1.718835945E1
9.455876875E0,-1.503937546E1,5.372926941E0,3.339705048E0,1.631578340E1
9.465879875E0,-1.334085754E1,4.433330841E0,4.391268311E0,1.472807318E1
9.475882875E0,-1.108085724E1,3.427123260E0,6.114035797E0,1.311152183E1
9.485884875E0,-9.790390778E0,2.361489258E0,6.934030609E0,1.222739398E1
9.495887875E0,-8.744815063E0,1.597178650E0,6.963968353E0,1.129245878E1
9.505889875E0,-7.779322815E0,1.027313690E0,6.811136169E0,1.039061176E1
9.515892875E0,-7.193441162E0,5.677693176E-1,6.834188232E0,9.938515309E0
9.525894875E0,-6.622827759E0,4.002676392E-1,6.835685120E0,9.526208730E0
9.535897875E0,-6.065985718E0,3.900888062E-1,6.623725891E0,8.990111050E0
9.545899875E0,-5.567222900E0,3.956272888E-1,6.297703857E0,8.414960823E0
9.555902875E0,-5.188061371E0,4.236190796E-1,5.960754547E0,7.913660890E0
9.565904875E0,-4.900060272E0,4.360432434E-1,5.536536713E0,7.406346140E0
9.575907875E0,-4.709955597E0,2.677931213E-1,5.276078339E0,7.077598287E0
9.585909875E0,-4.454886017E0,1.901046753E-1,4.927153931E0,6.645223478E0
9.595912875E0,-4.321812744E0,9.804611206E-2,4.706812134E0,6.390755738E0
9.605914875E0,-4.214785309E0,1.133143616E-1,4.569547577E0,6.217557431E0
9.615917875E0,-4.211342468E0,1.121168518E-1,4.141437836E0,5.907578431E0
9.625919875E0,-4.208199005E0,1.658551025E-1,3.672612762E0,5.587891488E0
9.635922875E0,-4.188140717E0,2.865042114E-1,3.475472717E0,5.449909901E0
9.645924875E0,-4.247267761E0,3.432362366E-1,3.400478668E0,5.451637343E0
9.655927875E0,-4.310137024E0,3.739224243E-1,3.382815399E0,5.491861175E0
9.665929875E0,-4.378544769E0,4.031117249E-1,3.427123260E0,5.574883604E0
9.675932875E0,-4.501289520E0,4.567002869E-1,3.598516846E0,5.780960646E0
9.685934875E0,-4.697980499E0,4.965174866E-1,3.853586426E0,6.096530056E0
9.695937875E0,-4.870421906E0,5.483097839E-1,4.212839355E0,6.462945814E0
9.705939875E0,-5.023104401E0,6.339317322E-1,4.669090576E0,6.887223974E0
9.715942875E0,-5.172493744E0,7.116201782E-1,5.026846619E0,7.247777710E0
9.725944875E0,-5.302722931E0,7.345225525E-1,5.419031067E0,7.617367758E0
9.735947875E0,-5.461542664E0,6.947053528E-1,5.821244659E0,8.012362522E0
9.745949875E0,-5.583988037E0,6.724017334E-1,6.312073975E0,8.454308035E0
9.755952875E0,-5.608686676E0,6.535409546E-1,6.802154846E0,8.840463368E0
9.765954875E0,-5.603746948E0,6.376739502E-1,7.260651398E0,9.193784131E0
9.775957875E0,-5.662424927E0,6.231541443E-1,7.653135223E0,9.540537505E0
9.785959875E0,-5.788911896E0,5.888754272E-1,8.011040955E0,9.901265191E0
9.795962875E0,-6.016139374E0,6.307882690E-1,8.273744659E0,1.024922814E1
9.805965875E0,-6.459367676E0,7.994874573E-1,8.425379333E0,1.064657822E1
9.815967875E0,-7.087311859E0,1.212478638E0,8.497678986E0,1.113151571E1
9.825970875E0,-7.750283203E0,1.940863953E0,8.566386108E0,1.171395807E1
9.835972875E0,-8.218659210E0,2.736609192E0,8.473429413E0,1.211752430E1
9.845975875E0,-8.525371399E0,3.376827850E0,8.142467651E0,1.226314410E1
9.855977875E0,-8.580456848E0,3.674409027E0,7.721542969E0,1.211394846E1
9.865980875E0,-8.614585876E0,3.360062714E0,7.701185303E0,1.203367634E1
9.875982875E0,-8.749904480E0,2.712808685E0,8.046217804E0,1.219269373E1
9.885985875E0,-8.686735840E0,2.291434937E0,8.617280273E0,1.244859723E1
9.895987875E0,-8.688232727E0,2.458337860E0,9.466165009E0,1.308193766E1
9.905990875E0,-9.045839081E0,3.353775787E0,1.023960663E1,1.406856640E1
9.915992875E0,-9.714199219E0,4.854554901E0,1.060574524E1,1.517940058E1
9.925995875E0,-1.031385223E1,6.452631683E0,9.903405762E0,1.568723842E1
9.935997875E0,-1.023975632E1,7.592062225E0,8.607849884E0,1.538138804E1
9.946000875E0,-9.706415405E0,7.487280121E0,6.882986755E0,1.405878267E1
9.956002875E0,-9.671987000E0,5.918841705E0,5.074597321E0,1.242302530E1
9.966005875E0,-1.086006638E1,3.856580200E0,4.274361420E0,1.229164017E1
9.976007875E0,-1.267938309E1,2.206112366E0,4.064348145E0,1.349639260E1
9.986010875E0,-1.394245651E1,8.764274597E-1,4.118984528E0,1.456455465E1
9.996012875E0,-1.452264999E1,1.886077881E-1,4.025279388E0,1.507135727E1
1.000601587E1,-1.406520126E1,5.254074097E-1,3.413052521E0,1.448291639E1
1.001601788E1,-1.280721725E1,1.901795197E0,3.295995941E0,1.336058487E1
1.002602087E1,-1.146016846E1,3.581751709E0,4.442461853E0,1.280233860E1
1.003602287E1,-1.040621017E1,4.489464111E0,5.846991119E0,1.275271749E1
1.004602587E1,-9.571096802E0,4.713248749E0,6.838529205E0,1.267225668E1
1.005602787E1,-8.798403625E0,4.466112671E0,7.207811279E0,1.221927216E1
1.006603088E1,-8.117020569E0,3.787573700E0,7.207960968E0,1.149723614E1
1.007603287E1,-7.579638062E0,2.893183594E0,6.990463257E0,1.070924839E1
1.008603587E1,-6.948400726E0,2.046843567E0,6.694528656E0,9.863394708E0
1.009603788E1,-6.322851562E0,1.381926270E0,6.477629700E0,9.156847636E0
1.010604087E1,-5.523962860E0,1.045276337E0,6.209088135E0,8.376129402E0
1.011604288E1,-4.866080933E0,9.246272278E-1,5.754184113E0,7.592385261E0
1.012604587E1,-4.205354919E0,1.082997894E0,5.351671143E0,6.891899481E0
1.013604887E1,-3.623814240E0,1.462309113E0,5.276677094E0,6.566102248E0
1.014605088E1,-3.370840302E0,1.963167572E0,4.956941986E0,6.307762290E0
1.015605387E1,-3.425326996E0,2.378104706E0,4.245022430E0,5.950501026E0
1.016605588E1,-3.869603119E0,2.621648254E0,3.550766144E0,5.869821810E0
1.017605887E1,-4.214336243E0,2.753973083E0,3.400478668E0,6.075216283E0
1.018606087E1,-4.354744263E0,2.908751221E0,3.518882446E0,6.309291951E0
1.019606387E1,-4.354893951E0,3.022065582E0,3.435505829E0,6.316698664E0
1.020606587E1,-4.224664764E0,3.052153015E0,3.359613647E0,6.200841415E0
1.021606888E1,-4.035757599E0,2.943329315E0,3.276985474E0,5.974040563E0
1.022607087E1,-3.849095764E0,2.753823395E0,3.350632324E0,5.798777325E0
1.023607387E1,-3.796405334E0,2.469265137E0,3.531306610E0,5.742829455E0
1.024607588E1,-3.894002380E0,2.176024933E0,3.810326385E0,5.866594089E0
1.025607887E1,-3.927083588E0,2.002535706E0,4.140689392E0,6.047928852E0
1.026608088E1,-3.926784210E0,1.997446289E0,4.533322906E0,6.321427251E0
1.027608387E1,-3.960913239E0,2.132615204E0,4.785548401E0,6.567979506E0
1.028608587E1,-4.081412659E0,2.264940033E0,5.062023468E0,6.885634628E0
1.029608888E1,-4.244124298E0,2.399510193E0,5.446124725E0,7.309617962E0
1.030609087E1,-4.433929596E0,2.479294281E0,5.817951508E0,7.723677333E0
1.031609388E1,-4.695884857E0,2.541265411E0,6.148613892E0,8.143391018E0
1.032609646E1,-5.041665802E0,2.664758606E0,6.597979431E0,8.720817912E0
1.033609946E1,-5.506149902E0,2.844684448E0,7.048542480E0,9.385726794E0
1.034610146E1,-6.006259918E0,3.041674805E0,7.331454163E0,9.953751251E0
1.035610446E1,-6.801556091E0,2.996768188E0,7.476801910E0,1.054250215E1
1.036610646E1,-8.055797882E0,2.315534821E0,7.492369537E0,1.124247225E1
1.037610946E1,-9.549242249E0,1.369352417E0,8.085885315E0,1.258748167E1
1.038611146E1,-1.039378601E1,9.087602234E-1,8.643326111E0,1.354856889E1
1.039611446E1,-9.586065674E0,1.230291595E0,9.304351501E0,1.341555923E1
1.040611646E1,-8.307125244E0,2.229912872E0,9.688602448E0,1.295568827E1
1.041611946E1,-8.290809174E0,3.209924927E0,9.203910370E0,1.279660505E1
1.042612146E1,-8.540489960E0,4.061504059E0,8.941356354E0,1.301474692E1
1.043612446E1,-8.721014557E0,4.725672913E0,9.109905853E0,1.346768221E1
1.044612646E1,-9.203311615E0,4.759652252E0,9.231153717E0,1.387693890E1
1.045612946E1,-9.597442017E0,3.444187775E0,9.167086945E0,1.371163031E1
1.046613146E1,-1.003588028E1,1.447040863E0,8.687035217E0,1.335205606E1
1.047613446E1,-1.068014053E1,-1.061293030E-1,8.161178741E0,1.344178201E1
1.048613646E1,-1.131541946E1,-8.005352783E-1,7.797884216E0,1.376541219E1
1.049613946E1,-1.182900146E1,-2.872526550E-1,7.690407715E0,1.411205728E1
1.050614246E1,-1.294597870E1,1.209035797E0,6.939269714E0,1.473816801E1
1.051614446E1,-1.429961380E1,3.333717499E0,6.431525574E0,1.602988298E1
1.052614746E1,-1.582988159E1,4.705614624E0,4.957540741E0,1.724253956E1
1.053614946E1,-1.626472733E1,5.292394409E0,4.414320374E0,1.766456956E1
1.054615246E1,-1.576312042E1,5.266049194E0,4.134851532E0,1.712612731E1
1.055615446E1,-1.422057816E1,4.482877808E0,4.421206055E0,1.555210917E1
1.056615746E1,-1.160880936E1,3.576961670E0,6.296955414E0,1.368249820E1
1.057615946E1,-9.861193542E0,2.588567047E0,6.917115784E0,1.232032095E1
1.058616246E1,-8.747060394E0,1.740281067E0,6.839876404E0,1.123937511E1
1.059616446E1,-7.690856781E0,1.194515991E0,6.616241455E0,1.021522381E1
1.060616746E1,-6.991211700E0,7.485932922E-1,6.579118652E0,9.629238558E0
1.061616946E1,-6.393654327E0,5.159770203E-1,6.340814209E0,9.019477411E0
1.062617246E1,-5.893244934E0,4.227209473E-1,6.183940430E0,8.552785984E0
1.063617446E1,-5.475463715E0,3.775149536E-1,5.967640228E0,8.107770984E0
1.064617746E1,-5.047204285E0,4.192781067E-1,5.622907104E0,7.567506163E0
1.065617946E1,-4.819677429E0,3.423381042E-1,5.270539856E0,7.150180157E0
1.066618246E1,-4.737797699E0,1.736389160E-1,4.971162415E0,6.869449269E0
1.067618446E1,-4.660857697E0,-1.721420288E-2,4.672084351E0,6.599413836E0
1.068618746E1,-4.592749329E0,-5.059478760E-2,4.282145233E0,6.279544094E0
1.069618946E1,-4.598587189E0,-1.841171265E-2,4.109554138E0,6.167315327E0
1.070619246E1,-4.642296295E0,4.864883423E-2,3.937412109E0,6.087404679E0
1.071619446E1,-4.658462677E0,1.481918335E-1,3.443439331E0,5.794869262E0
1.072619746E1,-4.686155090E0,2.891986084E-1,3.216660919E0,5.691273393E0
1.073619946E1,-4.680616608E0,3.995191956E-1,3.163371735E0,5.663453730E0
1.074620246E1,-4.667444000E0,4.372407532E-1,3.147055664E0,5.646252945E0
1.075620446E1,-4.676425323E0,4.567002869E-1,3.228486328E0,5.700934391E0
1.076620746E1,-4.680017853E0,5.138813782E-1,3.457959137E0,5.841585621E0
1.077620946E1,-4.710105286E0,5.619314575E-1,3.741619263E0,6.041570447E0
1.078621246E1,-4.781057739E0,5.848338318E-1,4.076323242E0,6.310067741E0
1.079621446E1,-4.892126770E0,5.888754272E-1,4.382586365E0,6.594447805E0
1.080621746E1,-5.010530548E0,6.176156616E-1,4.796325989E0,6.963591636E0
1.081621946E1,-5.173990631E0,6.518943787E-1,5.227130127E0,7.383632893E0
1.082622246E1,-5.286406860E0,6.689588928E-1,5.739215240E0,7.831487411E0
1.083622546E1,-5.367987213E0,6.821315002E-1,6.270310822E0,8.282354007E0
1.084622746E1,-5.400170288E0,7.213499451E-1,6.728807373E0,8.657888516E0
1.085623046E1,-5.431305542E0,7.918533325E-1,7.201823730E0,9.054964198E0
1.086623246E1,-5.637277222E0,8.556207275E-1,7.650889893E0,9.541860272E0
1.087623546E1,-5.977369995E0,8.988807678E-1,8.041577454E0,1.006001524E1
1.088623746E1,-6.450536041E0,9.840536499E-1,8.328830109E0,1.058050981E1
1.089624046E1,-6.992858276E0,1.077609100E0,8.352929993E0,1.094681450E1
1.090624246E1,-7.634573822E0,1.333127747E0,8.279432831E0,1.134076519E1
1.091624546E1,-8.286617889E0,1.961071930E0,8.395291901E0,1.195804187E1
1.092624746E1,-8.639434204E0,2.723137207E0,8.411757660E0,1.236175419E1
1.093625046E1,-8.720565491E0,3.263064423E0,7.984396362E0,1.226566089E1
1.094625246E1,-8.618028717E0,3.337609406E0,7.624245300E0,1.198078344E1
1.095625546E1,-8.696764984E0,2.778971100E0,7.766898651E0,1.198670581E1
1.096625746E1,-8.867859192E0,1.855391693E0,7.753875732E0,1.192493161E1
1.097626046E1,-8.655600586E0,1.328337708E0,8.101902008E0,1.192999240E1
1.098626246E1,-8.014184418E0,1.515149231E0,8.784931641E0,1.198740393E1
1.099626546E1,-7.775730286E0,2.105521545E0,9.384434967E0,1.236781396E1
1.100626746E1,-8.186925201E0,3.040327606E0,9.402846680E0,1.283288206E1
1.101627046E1,-8.677455139E0,4.227658539E0,8.928782501E0,1.314893461E1
1.102627246E1,-9.174122314E0,5.530848541E0,8.332422638E0,1.357144329E1
1.103627546E1,-9.673034821E0,6.785988464E0,7.473508759E0,1.398107919E1
1.104627746E1,-1.004845413E1,7.230863342E0,6.319558411E0,1.389941127E1
1.105628046E1,-1.051668045E1,6.086343384E0,4.436623993E0,1.293552380E1
1.106628246E1,-1.189471481E1,4.141886902E0,4.037254486E0,1.322644666E1
1.107628546E1,-1.369756577E1,2.516267395E0,4.245172119E0,1.455940919E1
1.108628746E1,-1.503997421E1,1.249601440E0,4.357738037E0,1.570834838E1
1.109629046E1,-1.576925766E1,6.969506836E-1,4.768633575E0,1.648924175E1
1.110629346E1,-1.495540009E1,1.129401398E0,4.683460693E0,1.571223546E1
1.111629546E1,-1.272863068E1,2.825973358E0,5.193150787E0,1.403470625E1
1.112629846E1,-1.091590027E1,4.442910919E0,5.718857574E0,1.309968198E1
1.113630046E1,-9.648485870E0,4.848267975E0,6.714736633E0,1.271560734E1
1.114630346E1,-8.546926575E0,4.663552094E0,7.237599335E0,1.213183894E1
1.115630546E1,-7.606132965E0,4.116739197E0,7.038363647E0,1.115075617E1
1.116630846E1,-6.803052979E0,3.360811157E0,6.518494720E0,1.000336718E1
1.117631046E1,-6.122867432E0,2.571053467E0,6.084247742E0,9.006547180E0
1.118631346E1,-5.471721497E0,1.798360291E0,5.822142792E0,8.189699784E0
1.119631546E1,-4.789440308E0,1.306932220E0,5.557942200E0,7.452350756E0
1.120631846E1,-4.180506592E0,1.042581940E0,5.220693512E0,6.768992038E0
1.121632046E1,-3.633693695E0,1.075663147E0,4.957540741E0,6.240031352E0
1.122632346E1,-3.256927185E0,1.267564087E0,4.768932953E0,5.912445764E0
1.123632546E1,-3.196752319E0,1.588796082E0,4.251758423E0,5.551661739E0
1.124632846E1,-3.489244080E0,1.952839050E0,4.017345886E0,5.668110141E0
1.125633046E1,-4.005370789E0,2.144440613E0,3.649111633E0,5.827318115E0
1.126633346E1,-4.372108154E0,2.349663849E0,3.358116760E0,5.992762142E0
1.127633546E1,-4.465513916E0,2.527793427E0,3.403472443E0,6.157449050E0
1.128633846E1,-4.377347260E0,2.659519501E0,3.445534973E0,6.172999616E0
1.129634146E1,-4.286935272E0,2.705174561E0,3.325933685E0,6.062806142E0
1.130634346E1,-4.203259277E0,2.588866425E0,3.326682129E0,5.952850738E0
1.131634646E1,-4.217928772E0,2.435585175E0,3.548221436E0,6.026016398E0
1.132634775E1,-4.324806519E0,2.296524353E0,3.877237244E0,6.245874172E0
1.133635075E1,-4.303550720E0,2.170636139E0,4.068689117E0,6.307649418E0
1.134635275E1,-4.307143250E0,2.123484192E0,4.254153442E0,6.415488259E0
1.135635575E1,-4.374802551E0,2.103425903E0,4.544699249E0,6.649630754E0
1.136635775E1,-4.496948547E0,2.192341003E0,4.976700897E0,7.056660480E0
1.137636075E1,-4.647984467E0,2.345472565E0,5.288203125E0,7.420922681E0
1.138636275E1,-4.874762878E0,2.429597626E0,5.627996521E0,7.832024169E0
1.139636575E1,-5.179229736E0,2.542612610E0,6.034102020E0,8.348633825E0
1.140636775E1,-5.511239319E0,2.718796234E0,6.422693939E0,8.889128710E0
1.141637075E1,-5.875282288E0,2.958896942E0,6.753805389E0,9.428037988E0
1.142637275E1,-6.249204712E0,3.141966248E0,6.962172089E0,9.868958994E0
1.143637575E1,-6.743776245E0,3.061733093E0,6.948101349E0,1.015523707E1
1.144637775E1,-7.566764832E0,2.549348602E0,6.875951385E0,1.053725846E1
1.145638075E1,-8.692274323E0,1.666634216E0,7.025340729E0,1.129994314E1
1.146638275E1,-9.493707733E0,1.023122406E0,7.748636627E0,1.229709866E1
1.147638575E1,-9.422455902E0,9.991722107E-1,8.506959686E0,1.273378904E1
1.148638875E1,-8.474028168E0,1.560205536E0,9.096583557E0,1.252961400E1
1.149639075E1,-7.795189819E0,2.448757782E0,8.993298340E0,1.215075364E1
1.150639375E1,-7.893684998E0,3.277733917E0,8.512348480E0,1.206291338E1
1.151639575E1,-8.150251465E0,3.942052460E0,8.404572601E0,1.235326747E1
1.152639875E1,-8.614735565E0,4.425097961E0,8.817414093E0,1.309740249E1
1.153640075E1,-9.314680023E0,3.998634796E0,9.269174652E0,1.373571778E1
1.154640375E1,-9.822723541E0,2.456840973E0,9.220974884E0,1.369482907E1
1.155640575E1,-1.025487488E1,7.173083496E-1,8.897347870E0,1.359557977E1
1.156640875E1,-1.095751373E1,-7.253915405E-1,8.578211517E0,1.393481299E1
1.157641075E1,-1.133532806E1,-1.260678406E0,8.539591827E0,1.424793322E1
1.158641375E1,-1.150312912E1,-5.387297058E-1,8.261170807E0,1.417247869E1
1.159641575E1,-1.216939362E1,1.317709808E0,7.261848907E0,1.423253139E1
1.160641875E1,-1.369502106E1,3.282673645E0,5.812263336E0,1.523522081E1
1.161642175E1,-1.503234009E1,4.757556610E0,4.976850586E0,1.653404473E1
1.162642375E1,-1.521406219E1,5.691763916E0,4.661905518E0,1.689962213E1
1.163642675E1,-1.483999008E1,5.475463715E0,3.472329254E0,1.619453855E1
1.164642875E1,-1.357467133E1,4.689448242E0,4.021537170E0,1.491426792E1
1.165643175E1,-1.147438889E1,3.812272339E0,5.998925171E0,1.349748584E1
1.166643375E1,-9.828711090E0,2.861898651E0,6.708000641E0,1.223892553E1
1.167643675E1,-8.885672150E0,2.120191040E0,6.786138153E0,1.137989678E1
1.168643875E1,-7.825127563E0,1.651515656E0,6.693630524E0,1.042903710E1
1.169644175E1,-7.166197815E0,1.066382446E0,6.582411804E0,9.788754150E0
1.170644375E1,-6.790479126E0,7.120692444E-1,6.590644684E0,9.489691603E0
1.171644675E1,-6.390361176E0,6.789880371E-1,6.425388336E0,9.087538499E0
1.172644875E1,-6.049519958E0,7.740403748E-1,6.052364044E0,8.592260515E0
1.173645175E1,-5.785469055E0,8.087681580E-1,5.683980103E0,8.150667944E0
1.174645375E1,-5.504802704E0,7.842192078E-1,5.324278107E0,7.698427757E0
1.175645675E1,-5.326972504E0,6.735992432E-1,5.082680511E0,7.393511559E0
1.176645975E1,-5.216951294E0,4.068539429E-1,4.833299103E0,7.123404464E0
1.177646175E1,-5.057532806E0,1.679507446E-1,4.593946838E0,6.834558734E0
1.178646475E1,-4.875361633E0,9.041198730E-2,4.335584106E0,6.524922599E0
1.179646675E1,-4.760550385E0,5.553451538E-2,4.276756439E0,6.399732001E0
1.180646975E1,-4.716392212E0,8.981323242E-3,3.846551056E0,6.086081760E0
1.181647175E1,-4.686753845E0,4.685256958E-2,3.494183807E0,5.846124977E0
1.182647475E1,-4.614005127E0,1.643582153E-1,3.351231079E0,5.704980866E0
1.183647675E1,-4.619693298E0,2.839595032E-1,3.418441315E0,5.753949964E0
1.184647975E1,-4.607119446E0,3.945794678E-1,3.468886414E0,5.780520348E0
1.185648175E1,-4.578977966E0,5.023553467E-1,3.562741241E0,5.823446167E0
1.186648475E1,-4.617298279E0,5.704637146E-1,3.760030975E0,5.981864691E0
1.187648675E1,-4.691693573E0,6.207591248E-1,3.985162811E0,6.186990634E0
1.188648975E1,-4.781207428E0,7.200027466E-1,4.232448578E0,6.425882771E0
1.189649275E1,-4.909939728E0,7.863148499E-1,4.585264893E0,6.763908139E0
1.190649475E1,-5.064418488E0,7.794291687E-1,4.951852570E0,7.125776331E0
1.191649775E1,-5.194048920E0,7.478448486E-1,5.333109741E0,7.481943304E0
1.192649975E1,-5.277425537E0,7.171586609E-1,5.754932556E0,7.841223474E0
1.193650275E1,-5.296436005E0,7.117698669E-1,6.222111053E0,8.202043444E0
1.194650475E1,-5.348078613E0,7.066804504E-1,6.656956787E0,8.568337982E0
1.195650775E1,-5.443879395E0,7.117698669E-1,7.095095673E0,8.971221868E0
1.196650975E1,-5.630840607E0,6.721023560E-1,7.442972260E0,9.357132230E0
1.197651275E1,-5.980663147E0,6.945556641E-1,7.761809235E0,9.823259227E0
1.198651475E1,-6.466253357E0,7.707472229E-1,8.101303253E0,1.039411363E1
1.199651775E1,-7.029382324E0,9.231303406E-1,8.376281433E0,1.097389977E1
1.200651975E1,-7.752678223E0,1.284029846E0,8.654552765E0,1.168991171E1
1.201652275E1,-8.469986572E0,1.889820099E0,8.741372223E0,1.231761669E1
1.202652575E1,-8.790021057E0,2.453847198E0,8.450377350E0,1.243763296E1
1.203652775E1,-8.853489075E0,2.882705383E0,7.948920135E0,1.224253203E1
1.204653075E1,-8.874146118E0,2.968477020E0,7.567662964E0,1.203461042E1
1.205653275E1,-8.732690277E0,2.579286346E0,7.609575806E0,1.186668620E1
1.206653575E1,-8.550070038E0,2.152972870E0,8.220455475E0,1.205466209E1
1.207653775E1,-8.577014008E0,2.094145203E0,9.068741455E0,1.265672489E1
1.208654075E1,-8.945996704E0,2.499951324E0,9.989327087E0,1.364064769E1
1.209654275E1,-9.573192444E0,3.442840576E0,1.073432785E1,1.478935290E1
1.210654575E1,-1.034498749E1,4.918022919E0,1.087428680E1,1.579417073E1
1.211654775E1,-1.082758392E1,6.588549042E0,9.817634125E0,1.603220172E1
1.212655075E1,-1.075154205E1,7.701035614E0,8.194110260E0,1.555779705E1
1.213655375E1,-1.028466293E1,7.433092804E0,6.075266418E0,1.406890267E1
1.214655575E1,-1.024709106E1,5.664221191E0,4.224814453E0,1.244730228E1
1.215655875E1,-1.161315033E1,3.347638550E0,2.968027954E0,1.244512492E1
1.216656075E1,-1.338127350E1,1.416654053E0,3.251688080E0,1.384336897E1
1.217656375E1,-1.444301559E1,3.022215271E-1,3.582200775E0,1.488368905E1
1.218656575E1,-1.462279175E1,5.164260864E-1,3.239862671E0,1.498630857E1
1.219656875E1,-1.332708618E1,1.978435822E0,2.815794525E0,1.376423384E1
1.220657075E1,-1.120375168E1,3.935166779E0,3.512445831E0,1.238333012E1
1.221657375E1,-9.441466370E0,5.049299927E0,4.927303619E0,1.178622238E1
1.222657575E1,-8.698710938E0,5.281616821E0,6.164181519E0,1.189790662E1
1.223657875E1,-8.117020569E0,4.968318329E0,6.908882904E0,1.176022419E1
1.224658075E1,-7.748486938E0,4.265380096E0,6.964716797E0,1.125787712E1
1.225658375E1,-7.348219299E0,3.337459717E0,6.734196167E0,1.051115418E1
1.226658575E1,-6.614445190E0,2.405946808E0,6.454877014E0,9.550125784E0
1.227658875E1,-5.983058167E0,1.655557251E0,6.041436768E0,8.662379180E0
1.228659175E1,-5.384752350E0,1.301543427E0,5.783972168E0,8.008989150E0
1.229659375E1,-4.918771362E0,1.255888367E0,5.679489441E0,7.617622176E0
1.230659675E1,-4.491110687E0,1.360221405E0,5.451962585E0,7.193342304E0
1.231659875E1,-3.999383240E0,1.685944061E0,5.235812073E0,6.800823607E0
1.232660162E1,-3.611689453E0,2.118544464E0,4.709656219E0,6.301856318E0
1.233660363E1,-3.542233887E0,2.525997162E0,4.278852081E0,6.102184666E0
1.234660662E1,-4.087849274E0,2.659669189E0,3.792214050E0,6.177802140E0
1.235660862E1,-4.678071899E0,2.674787750E0,3.461252289E0,6.404616586E0
1.236661162E1,-4.948409729E0,2.713706818E0,3.545527039E0,6.664962529E0
1.237661362E1,-5.065017242E0,2.738106079E0,3.642076263E0,6.812954137E0
1.238661663E1,-4.924908600E0,2.714305573E0,3.516786804E0,6.632493414E0
1.239661862E1,-4.679419098E0,2.689906311E0,3.541635132E0,6.455674904E0
1.240662162E1,-4.538262634E0,2.546205139E0,3.670367432E0,6.367934157E0
1.241662462E1,-4.530329132E0,2.309996338E0,3.938609619E0,6.432154449E0
1.242662662E1,-4.489763489E0,2.116448822E0,4.168082428E0,6.481530909E0
1.243662963E1,-4.385580139E0,1.965412903E0,4.387825470E0,6.507624251E0
1.244663162E1,-4.367617493E0,1.971400452E0,4.721032562E0,6.726860394E0
1.245663462E1,-4.401447144E0,2.042652283E0,4.949756927E0,6.931468744E0
1.246663663E1,-4.529431000E0,2.118095398E0,5.225932617E0,7.232734270E0
1.247663962E1,-4.712799683E0,2.176024933E0,5.534441071E0,7.587858942E0
1.248664163E1,-4.891977081E0,2.199076996E0,5.866450653E0,7.948749755E0
1.249664462E1,-5.072501678E0,2.158661041E0,6.235583038E0,8.323015475E0
1.250664662E1,-5.402265930E0,2.141297150E0,6.518045654E0,8.732385116E0
1.251664963E1,-5.808970184E0,2.211950226E0,6.822362823E0,9.229382043E0
1.252665262E1,-6.243067474E0,2.341730347E0,7.065906372E0,9.715277936E0
1.253665463E1,-6.814429321E0,2.313738556E0,7.172933807E0,1.016074862E1
1.254665762E1,-7.817493439E0,1.788780212E0,7.150181122E0,1.074420906E1
1.255665962E1,-9.238039398E0,9.716294861E-1,7.443870392E0,1.190363987E1
1.256666263E1,-1.009530670E1,4.968168640E-1,7.954608307E0,1.286226410E1
1.257666462E1,-9.267228699E0,8.346643066E-1,8.821755066E0,1.282191697E1
1.258666763E1,-8.004754028E0,1.790726166E0,9.351204071E0,1.243896317E1
1.259666962E1,-7.717501373E0,2.626887360E0,8.976533203E0,1.212594380E1
1.260667262E1,-7.883655853E0,3.380121002E0,8.569828949E0,1.212514807E1
1.261667463E1,-8.003706207E0,4.027075653E0,8.372389526E0,1.226268966E1
1.262667762E1,-8.220156097E0,4.389472046E0,8.584498444E0,1.267012410E1
1.263667963E1,-8.628656616E0,4.044589233E0,8.745862885E0,1.293454810E1
1.264668262E1,-9.400601349E0,2.411335602E0,8.678502960E0,1.301930331E1
1.265668562E1,-1.013602203E1,5.107379150E-1,8.389304352E0,1.316739243E1
1.266668763E1,-1.094523926E1,-9.776170349E-1,7.885601807E0,1.352540991E1
1.267669062E1,-1.172766220E1,-1.579665070E0,7.526049500E0,1.402408013E1
1.268669263E1,-1.243060043E1,-8.373587036E-1,7.583679657E0,1.458537603E1
1.269669562E1,-1.373498795E1,1.155746613E0,6.800208893E0,1.536972625E1
1.270669762E1,-1.540461594E1,3.406915283E0,5.405409393E0,1.667716147E1
1.271670063E1,-1.656410477E1,5.026696930E0,4.790488129E0,1.796067998E1
1.272670262E1,-1.643447433E1,5.799689484E0,3.613336029E0,1.779844212E1
1.273670563E1,-1.510449005E1,5.693260803E0,3.707490234E0,1.656213519E1
1.274670762E1,-1.242206818E1,4.728966064E0,5.139262848E0,1.425071649E1
1.275671062E1,-1.014739838E1,3.334465942E0,6.516399078E0,1.251206673E1
1.276671263E1,-9.278006287E0,2.018851776E0,6.877448273E0,1.172418261E1
1.277671562E1,-8.440647583E0,1.197210388E0,6.827751617E0,1.092227250E1
1.278671863E1,-7.608827362E0,6.384223938E-1,6.688092041E0,1.015048827E1
1.279672062E1,-7.009174347E0,3.326083374E-1,6.614744568E0,9.643339620E0
1.280672362E1,-6.311774597E0,3.694317627E-1,6.593488770E0,9.135046390E0
1.281672563E1,-5.646108856E0,5.363346863E-1,6.299350433E0,8.476320900E0
1.282672862E1,-5.155279541E0,6.478527832E-1,6.071524200E0,7.991246867E0
1.283673063E1,-4.873415680E0,7.231462097E-1,5.544170837E0,7.416936774E0
1.284673362E1,-4.806654510E0,6.478527832E-1,5.305567017E0,7.188371316E0
1.285673562E1,-4.820425873E0,3.769161987E-1,5.109175415E0,7.034361722E0
1.286673863E1,-4.805756378E0,1.273851013E-1,4.736450500E0,6.748739488E0
1.287674062E1,-4.894970856E0,-5.284011841E-2,4.412374420E0,6.590339884E0
1.288674363E1,-4.905149689E0,-8.696914673E-2,4.201163635E0,6.458934354E0
1.289674562E1,-5.008883972E0,-3.682342529E-2,3.969744873E0,6.391333896E0
1.290674862E1,-5.162165222E0,1.002914429E-2,3.606749725E0,6.297356108E0
1.291675163E1,-5.135820007E0,1.948947144E-1,3.427722015E0,6.177694498E0
1.292675362E1,-5.104684753E0,3.397933960E-1,3.436104584E0,6.162798122E0
1.293675663E1,-5.065466309E0,4.125421143E-1,3.420686646E0,6.126192704E0
1.294675862E1,-4.962330780E0,5.197192383E-1,3.472928009E0,6.079149925E0
1.295676162E1,-4.899162140E0,6.274951172E-1,3.628753967E0,6.128898364E0
1.296676363E1,-4.890480194E0,6.735992432E-1,3.950884094E0,6.322975375E0
1.297676662E1,-4.903203735E0,6.797364807E-1,4.248465271E0,6.523258826E0
1.298676862E1,-4.871769104E0,7.396119690E-1,4.601880341E0,6.742289132E0
1.299677162E1,-4.832550659E0,7.688012695E-1,4.922812958E0,6.941086996E0
1.300677362E1,-4.825964355E0,7.599696350E-1,5.298232269E0,7.206854445E0
1.301677663E1,-4.835544434E0,7.084767151E-1,5.662125549E0,7.479578528E0
1.302677862E1,-4.850064240E0,6.445596313E-1,6.063590698E0,7.791387065E0
1.303678163E1,-4.892126770E0,6.161187744E-1,6.514153748E0,8.169865710E0
1.304678462E1,-4.984185333E0,5.963598633E-1,7.044800262E0,8.650257757E0
1.305678662E1,-5.244194641E0,6.036946106E-1,7.578440552E0,9.235734178E0
1.306678963E1,-5.740263062E0,6.176156616E-1,8.021519165E0,9.883159355E0
1.307679162E1,-6.447991333E0,6.682104492E-1,8.386759644E0,1.060003938E1
1.308679463E1,-7.163353729E0,8.978329468E-1,8.569080505E0,1.120485972E1
1.309679662E1,-7.840096436E0,1.332379303E0,8.566386108E0,1.168868332E1
1.310679962E1,-8.427924042E0,1.925895081E0,8.486901398E0,1.211472125E1
1.311680163E1,-8.723858643E0,2.529440002E0,8.272547150E0,1.228571580E1
1.312680462E1,-8.793314209E0,3.010090485E0,8.000113678E0,1.226314961E1
1.313680662E1,-8.923842773E0,3.135529633E0,7.907905426E0,1.232888820E1
1.314680962E1,-9.153914337E0,2.803220673E0,8.222251740E0,1.261973128E1
1.315681262E1,-9.356742554E0,2.367776184E0,8.704399109E0,1.299698269E1
1.316681463E1,-9.220076752E0,2.197280731E0,9.311835938E0,1.328714215E1
1.317681762E1,-9.047485657E0,2.561772766E0,9.943522339E0,1.368551471E1
1.318681962E1,-9.147178345E0,3.545227661E0,1.031519943E1,1.423526783E1
1.319682262E1,-9.438472595E0,4.957391052E0,1.016955231E1,1.473364466E1
1.320682462E1,-9.546098785E0,6.477779388E0,9.379644928E0,1.486833437E1
1.321682763E1,-9.630523224E0,7.522606659E0,7.946525116E0,1.457682578E1
1.322682962E1,-9.409283295E0,7.470964050E0,5.937552795E0,1.340165845E1
1.323683262E1,-9.233848114E0,6.002068634E0,3.992048492E0,1.171431731E1
1.324683462E1,-1.024694138E1,4.182751923E0,3.280128937E0,1.154358987E1
1.325683762E1,-1.209185486E1,2.567460938E0,3.202590179E0,1.276954946E1
1.326683963E1,-1.313129333E1,1.594035187E0,3.433260498E0,1.366598297E1
1.327684262E1,-1.396505951E1,1.205443268E0,3.516337738E0,1.445131868E1
1.328684562E1,-1.374352020E1,1.847458191E0,3.343596954E0,1.426453960E1
1.329684762E1,-1.226279938E1,3.249891815E0,4.028123474E0,1.331029016E1
1.330685062E1,-1.058284286E1,4.373305664E0,5.207520905E0,1.257937357E1
1.331685263E1,-9.312584381E0,4.793930969E0,6.195466461E0,1.216921553E1
1.332685562E1,-8.526269531E0,4.692591705E0,6.913523254E0,1.193794341E1
1.333685796E1,-8.042475586E0,4.296515350E0,7.104226685E0,1.155904384E1
1.334686096E1,-7.555089111E0,3.600163422E0,7.038213959E0,1.093512706E1
1.335686296E1,-6.988816681E0,2.842888184E0,6.821315002E0,1.017132785E1
1.336686596E1,-6.269562378E0,2.179318085E0,6.483317871E0,9.278483192E0
1.337686796E1,-5.667364655E0,1.747017059E0,6.217620392E0,8.592432372E0
1.338687096E1,-5.206024017E0,1.504521332E0,6.149062958E0,8.196172629E0
1.339687296E1,-4.753365326E0,1.413660278E0,5.928272095E0,7.728992647E0
1.340687596E1,-4.070934448E0,1.619033203E0,5.625002747E0,7.129826905E0
1.341687896E1,-3.689377899E0,1.866618347E0,5.116510162E0,6.578331823E0
1.342688096E1,-3.938609619E0,2.097438354E0,4.608616333E0,6.414923062E0
1.343688396E1,-4.446054382E0,2.129022675E0,4.208498383E0,6.481635269E0
1.344688596E1,-4.691094818E0,2.163151703E0,3.990252228E0,6.527458060E0
1.345688896E1,-4.696483612E0,2.241438904E0,3.910168762E0,6.509256980E0
1.346689096E1,-4.686604156E0,2.300416260E0,3.769760742E0,6.439508486E0
1.347689396E1,-4.560715942E0,2.311193848E0,3.606450348E0,6.256854723E0
1.348689596E1,-4.317471771E0,2.290985870E0,3.500470734E0,6.011861119E0
1.349689896E1,-4.069138184E0,2.210902405E0,3.507356415E0,5.809261917E0
1.350690096E1,-3.942651215E0,2.096390533E0,3.692671051E0,5.794408629E0
1.351690396E1,-3.951632538E0,1.928290100E0,3.893703003E0,5.873212537E0
1.352690596E1,-3.961811371E0,1.739083557E0,4.178261261E0,6.014834006E0
1.353690896E1,-4.030817871E0,1.669029236E0,4.454886017E0,6.235315607E0
1.354691196E1,-4.096381531E0,1.707349548E0,4.772226105E0,6.516864746E0
1.355691396E1,-4.217629395E0,1.810485077E0,5.098846893E0,6.860356665E0
1.356691696E1,-4.399800568E0,1.917362823E0,5.421575775E0,7.240718826E0
1.357691896E1,-4.633464661E0,2.005529480E0,5.758674774E0,7.658555896E0
1.358692196E1,-4.977000275E0,2.127974854E0,6.162235565E0,8.201948297E0
1.359692396E1,-5.466781769E0,2.330503693E0,6.561455383E0,8.852663278E0
1.360692696E1,-6.069727936E0,2.615211639E0,6.992109833E0,9.621357963E0
1.361692896E1,-6.631360016E0,2.905308380E0,7.340285797E0,1.030997323E1
1.362693196E1,-7.189698944E0,2.918930054E0,7.372019806E0,1.070320511E1
1.363693396E1,-7.994425507E0,2.327958984E0,7.224726105E0,1.102392396E1
1.364693696E1,-9.127419434E0,1.542841644E0,7.395371246E0,1.184827674E1
1.365693996E1,-9.877808990E0,1.132395172E0,8.119565277E0,1.283669621E1
1.366694196E1,-9.747879181E0,1.171014862E0,8.875044250E0,1.323475858E1
1.367694496E1,-8.799451447E0,1.694176941E0,9.375004578E0,1.296885855E1
1.368694696E1,-8.084388428E0,2.660417633E0,9.070837097E0,1.243845826E1
1.369694996E1,-7.916287994E0,3.532204742E0,8.613987122E0,1.222067347E1
1.370695196E1,-7.848179626E0,4.201463013E0,8.567882996E0,1.235535649E1
1.371695496E1,-8.169261932E0,4.383185120E0,8.859626312E0,1.282349916E1
1.372695696E1,-8.772357788E0,3.730542297E0,9.029822388E0,1.313045694E1
1.373695996E1,-9.446705475E0,2.102827148E0,8.912316742E0,1.315642490E1
1.374696196E1,-1.003393433E1,3.414399719E-1,8.713380432E0,1.329358559E1
1.375696496E1,-1.053179901E1,-8.445437622E-1,8.366701355E0,1.347715609E1
1.376696696E1,-1.099852844E1,-1.076860657E0,8.279732208E0,1.380873717E1
1.377696996E1,-1.166075134E1,-3.562591553E-2,7.917485504E0,1.409471418E1
1.378697296E1,-1.288011566E1,1.953886871E0,7.089407501E0,1.483154584E1
1.379697496E1,-1.486124588E1,3.712280273E0,5.874084778E0,1.640556387E1
1.380697796E1,-1.635304367E1,4.822371826E0,5.168452148E0,1.781544849E1
1.381697996E1,-1.657533142E1,5.175038452E0,4.753814392E0,1.800337152E1
1.382698296E1,-1.582254684E1,4.626578979E0,4.411775665E0,1.706522740E1
1.383698496E1,-1.328562241E1,3.787723389E0,5.703739014E0,1.494614499E1
1.384698796E1,-1.048374893E1,2.991678772E0,6.617588654E0,1.275349415E1
1.385698996E1,-9.020841064E0,2.112856293E0,6.555168457E0,1.134944795E1
1.386699296E1,-7.907156982E0,1.457968140E0,6.465654602E0,1.031763016E1
1.387699496E1,-7.107968903E0,1.000369720E0,6.254892883E0,9.520905759E0
1.388699796E1,-6.633755035E0,5.369334412E-1,6.189927979E0,9.089015996E0
1.389700096E1,-6.183191986E0,2.872526550E-1,6.127208405E0,8.709595861E0
1.390700296E1,-5.901627502E0,2.011816406E-1,6.079008636E0,8.474905736E0
1.391700596E1,-5.556894379E0,2.236349487E-1,5.695955200E0,7.960715632E0
1.392700796E1,-5.314847717E0,1.618135071E-1,5.363047485E0,7.552222732E0
1.393701096E1,-5.114264832E0,6.586303711E-3,5.117258606E0,7.234782912E0
1.394701296E1,-5.032235413E0,-2.365081787E-1,4.944817200E0,7.059075471E0
1.395701596E1,-4.934189301E0,-4.062551880E-1,4.788841553E0,6.887980165E0
1.396701796E1,-4.699028320E0,-4.402345276E-1,4.395309906E0,6.449296300E0
1.397702096E1,-4.565805359E0,-3.860472107E-1,4.111051025E0,6.156001264E0
1.398702296E1,-4.523742828E0,-2.969824219E-1,3.741918640E0,5.878299316E0
1.399702596E1,-4.517306213E0,-1.538800049E-1,3.395838318E0,5.653446061E0
1.400702896E1,-4.540358276E0,9.879455566E-3,3.300935669E0,5.613477280E0
1.401703096E1,-4.525389404E0,1.260379028E-1,3.132236481E0,5.505083122E0
1.402703396E1,-4.518054657E0,1.996847534E-1,3.081342316E0,5.472418327E0
1.403703596E1,-4.531376953E0,3.189866638E-1,3.238216095E0,5.578635412E0
1.404703896E1,-4.589905243E0,4.546046448E-1,3.540437622E0,5.814515808E0
1.405704096E1,-4.666396179E0,5.171745300E-1,3.923640747E0,6.118633794E0
1.406704396E1,-4.689148865E0,6.033952332E-1,4.281097412E0,6.378087326E0
1.407704596E1,-4.713997192E0,6.845265198E-1,4.709656219E0,6.698597450E0
1.408704896E1,-4.718188477E0,7.806266785E-1,5.188809814E0,7.056516690E0
1.409705096E1,-4.713248749E0,7.804769897E-1,5.655988312E0,7.403651929E0
1.410705396E1,-4.679568787E0,7.565267944E-1,6.184838562E0,7.792491569E0
1.411705696E1,-4.596940613E0,6.897656250E-1,6.735693054E0,8.183959954E0
1.412705896E1,-4.457131348E0,7.069798279E-1,7.298223267E0,8.580786862E0
1.413706196E1,-4.424499207E0,7.261399841E-1,7.823480988E0,9.017223922E0
1.414706396E1,-4.480033722E0,7.436535645E-1,8.274942169E0,9.439194387E0
1.415706696E1,-4.771477661E0,8.279283142E-1,8.699908447E0,9.956950907E0
1.416706896E1,-5.342390442E0,1.020128632E0,9.067843323E0,1.057391037E1
1.417707196E1,-6.303242340E0,1.374441833E0,9.370813293E0,1.137682276E1
1.418707396E1,-7.502099304E0,2.007625122E0,9.625284119E0,1.236762495E1
1.419707696E1,-8.802145844E0,2.949915619E0,9.525890808E0,1.330121684E1
1.420707896E1,-9.523495789E0,3.826343079E0,8.860225067E0,1.355881491E1
1.421708196E1,-9.366771698E0,4.191733246E0,7.978408813E0,1.299854018E1
1.422708496E1,-9.214987335E0,3.831582184E0,7.386090546E0,1.241577010E1
1.423708696E1,-9.388027496E0,2.949167175E0,7.444169769E0,1.233889423E1
1.424708996E1,-9.297016754E0,2.013912048E0,7.814349976E0,1.231074441E1
1.425709196E1,-8.514294434E0,1.690285034E0,8.346792755E0,1.204239272E1
1.426709496E1,-7.749983826E0,1.968406677E0,9.044641571E0,1.207238234E1
1.427709696E1,-7.815846863E0,2.731220398E0,9.589059448E0,1.266874454E1
1.428709996E1,-8.532406769E0,3.927233276E0,9.506580963E0,1.336413888E1
1.429710196E1,-9.093889160E0,5.294639740E0,8.887767792E0,1.377404974E1
1.430710496E1,-9.438173218E0,6.441255341E0,8.137228546E0,1.402794969E1
1.431710696E1,-9.445657654E0,7.013215942E0,7.225324860E0,1.380619302E1
1.432710996E1,-9.662855988E0,6.225104828E0,6.001170502E0,1.296675608E1
1.433711283E1,-1.102846619E1,4.373006287E0,5.377716980E0,1.302574721E1
1.434711483E1,-1.261292130E1,2.926564178E0,5.462141418E0,1.405295522E1
1.435711783E1,-1.422866135E1,1.900447998E0,5.443430328E0,1.535244085E1
1.436711983E1,-1.587403976E1,9.237290955E-1,5.168901215E0,1.671992684E1
1.437712283E1,-1.606998230E1,5.929170227E-1,4.844675446E0,1.679484331E1
1.438712483E1,-1.417836594E1,1.540446625E0,5.338049469E0,1.522805991E1
1.439712783E1,-1.164353714E1,3.123704224E0,5.693709869E0,1.333220977E1
1.440712983E1,-1.008108627E1,4.128414917E0,6.181695099E0,1.252539279E1
1.441713283E1,-8.981622620E0,4.457879791E0,6.962770844E0,1.220747373E1
1.442713483E1,-7.907606049E0,4.364024963E0,7.263794861E0,1.159041255E1
1.443713783E1,-7.019951935E0,3.899091797E0,7.084168396E0,1.070831844E1
1.444714083E1,-6.313421173E0,3.139870605E0,6.650969238E0,9.692959617E0
1.445714283E1,-5.678291931E0,2.348017273E0,6.307134247E0,8.805460055E0
1.446714583E1,-4.919220428E0,1.755699005E0,6.203849030E0,8.109805879E0
1.447714783E1,-4.123475189E0,1.410217438E0,5.966442719E0,7.388518090E0
1.448715083E1,-3.538042603E0,1.288071442E0,5.776188354E0,6.895014532E0
1.449715283E1,-3.212769012E0,1.369801483E0,5.597460022E0,6.597711689E0
1.450715583E1,-3.191363525E0,1.760039978E0,4.810546417E0,6.035221513E0
1.451715783E1,-3.412154388E0,2.200873260E0,4.346511383E0,5.948008228E0
1.452716083E1,-3.654051361E0,2.548749847E0,3.942351837E0,5.948979336E0
1.453716283E1,-3.896098022E0,2.819985809E0,3.569926300E0,5.989680589E0
1.454716583E1,-4.057163086E0,3.097209320E0,3.517235870E0,6.198727776E0
1.455716883E1,-4.173471222E0,3.199446716E0,3.443589020E0,6.285906988E0
1.456717083E1,-4.137545929E0,3.125650177E0,3.342998199E0,6.169652527E0
1.457717383E1,-4.051474915E0,2.932252350E0,3.332669678E0,6.009928453E0
1.458717583E1,-3.967050476E0,2.635120239E0,3.368744659E0,5.833505699E0
1.459717883E1,-3.900438995E0,2.349663849E0,3.626957703E0,5.821440263E0
1.460718083E1,-3.920946350E0,2.067201233E0,3.776796112E0,5.823343549E0
1.461718383E1,-3.949686584E0,1.889520721E0,4.113296356E0,6.007455334E0
1.462718583E1,-3.999383240E0,1.833237762E0,4.393363953E0,6.217513475E0
1.463718883E1,-4.093986511E0,1.916015625E0,4.624932404E0,6.466980839E0
1.464719083E1,-4.171076202E0,2.099533997E0,4.950205994E0,6.805178842E0
1.465719383E1,-4.300257568E0,2.305206299E0,5.322631531E0,7.220567682E0
1.466719683E1,-4.547094269E0,2.416724396E0,5.660179596E0,7.652075284E0
1.467719883E1,-4.966971130E0,2.486778717E0,6.040987701E0,8.206607277E0
1.468720183E1,-5.473517761E0,2.613265686E0,6.454128571E0,8.856880367E0
1.469720383E1,-5.950276337E0,2.744542694E0,6.860683136E0,9.487216461E0
1.470720683E1,-6.389163666E0,2.740950165E0,7.084467773E0,9.925920803E0
1.471720883E1,-7.125931549E0,2.301015015E0,7.188950500E0,1.038049035E1
1.472721183E1,-8.346942444E0,1.503623199E0,7.264393616E0,1.116708312E1
1.473721383E1,-9.736951904E0,7.982899475E-1,7.660919037E0,1.241511900E1
1.474721683E1,-1.055365356E1,4.517605591E-1,8.458909607E0,1.353280617E1
1.475721983E1,-9.863139496E0,7.936495972E-1,9.168733521E0,1.348988787E1
1.476722183E1,-8.347990265E0,1.698817291E0,9.416618042E0,1.269833127E1
1.477722483E1,-7.666457520E0,2.744991760E0,8.987460480E0,1.212781912E1
1.478722683E1,-7.676935730E0,3.738775177E0,8.602311401E0,1.212078972E1
1.479722983E1,-7.635322266E0,4.584516449E0,8.389603729E0,1.223525185E1
1.480723183E1,-7.644153900E0,4.999004517E0,8.525221710E0,1.249410022E1
1.481723483E1,-7.801626434E0,4.496499481E0,8.878038025E0,1.264529327E1
1.482723683E1,-8.583151245E0,2.820883942E0,9.321266327E0,1.298128951E1
1.483723983E1,-9.569300537E0,8.732839966E-1,9.501790924E0,1.351362899E1
1.484724183E1,-1.021430923E1,-8.240364075E-1,9.291777649E0,1.383286959E1
1.485724483E1,-1.035741165E1,-1.722318420E0,8.950038300E0,1.379657720E1
1.486724683E1,-1.024933640E1,-1.437011719E0,8.365204468E0,1.330753715E1
1.487724983E1,-1.079704742E1,1.064286804E-1,6.988217926E0,1.286167757E1
1.488725283E1,-1.208466980E1,2.276765442E0,5.770500183E0,1.358387196E1
1.489725483E1,-1.412462769E1,4.270170135E0,5.242398376E0,1.565957218E1
1.490725783E1,-1.532887344E1,5.693859558E0,4.431534576E0,1.694204523E1
1.491725983E1,-1.542497360E1,6.158643036E0,4.126019897E0,1.711381707E1
1.492726283E1,-1.486019806E1,5.426515503E0,3.791914673E0,1.626810295E1
1.493726483E1,-1.317979248E1,4.299359436E0,5.404960327E0,1.487968473E1
1.494726783E1,-1.102517303E1,3.325334930E0,6.942113800E0,1.344638378E1
1.495726983E1,-9.758956146E0,2.361638947E0,7.192692719E0,1.235108870E1
1.496727283E1,-8.613837433E0,1.739233246E0,7.025041351E0,1.125052593E1
1.497727583E1,-7.602091370E0,1.238524475E0,6.983278198E0,1.039672595E1
1.498727783E1,-7.013066254E0,8.957373047E-1,6.885531464E0,9.868940527E0
1.499728083E1,-6.372099152E0,7.439529419E-1,6.731352081E0,9.298828658E0
1.500728283E1,-5.928421783E0,6.732998657E-1,6.554120636E0,8.863183111E0
1.501728583E1,-5.683231659E0,6.873706055E-1,6.284830627E0,8.501217351E0
1.502728783E1,-5.328469391E0,6.436614990E-1,6.035898285E0,8.077063469E0
1.503729083E1,-5.025349731E0,5.894741821E-1,5.741759949E0,7.653066512E0
1.504729283E1,-4.889731750E0,3.638932800E-1,5.512287140E0,7.377479544E0
1.505729583E1,-4.675078125E0,1.324745178E-1,5.191504211E0,6.987533252E0
1.506729783E1,-4.545747070E0,8.143066406E-2,4.713847504E0,6.549107242E0
1.507730083E1,-4.457580414E0,4.700225830E-2,4.410428467E0,6.270894005E0
1.508730383E1,-4.372108154E0,8.711883545E-2,4.269122314E0,6.111327576E0
1.509730583E1,-4.302353210E0,2.179467773E-1,3.932622070E0,5.832946108E0
1.510730883E1,-4.265230408E0,4.778063965E-1,3.727847900E0,5.684834153E0
1.511731083E1,-4.239034882E0,6.526428223E-1,3.602857819E0,5.601423376E0
1.512731383E1,-4.231101379E0,7.470964050E-1,3.608246613E0,5.610687617E0
1.513731583E1,-4.286037140E0,8.101153564E-1,3.584745483E0,5.645954431E0
1.514731883E1,-4.446952515E0,8.512797546E-1,3.651356964E0,5.816568711E0
1.515732083E1,-4.607718201E0,9.469308472E-1,3.917353821E0,6.121552581E0
1.516732383E1,-4.809797974E0,1.025218048E0,4.224664764E0,6.483287821E0
1.517732583E1,-5.005441132E0,1.083746338E0,4.527485046E0,6.835719998E0
1.518732883E1,-5.199587402E0,1.094673615E0,4.854554901E0,7.197271897E0
1.519733183E1,-5.279072113E0,1.053060150E0,5.253774719E0,7.521947012E0
1.520733383E1,-5.294340363E0,9.698332214E-1,5.703140259E0,7.841965644E0
1.521733683E1,-5.269941101E0,8.541238403E-1,6.069428558E0,8.083301910E0
1.522733883E1,-5.231620789E0,7.542814636E-1,6.481970673E0,8.363895050E0
1.523734183E1,-5.247936859E0,6.550378418E-1,6.895859985E0,8.690385537E0
1.524734383E1,-5.305267639E0,5.743556213E-1,7.288194122E0,9.032913299E0
1.525734683E1,-5.537135468E0,5.587879944E-1,7.685767365E0,9.489106027E0
1.526734883E1,-5.898933105E0,5.873785400E-1,8.126151581E0,1.005866616E1
1.527735183E1,-6.460565186E0,7.030879211E-1,8.516689453E0,1.071294704E1
1.528735383E1,-7.208709412E0,1.009650421E0,8.881480865E0,1.148327426E1
1.529735683E1,-8.075856171E0,1.597627716E0,9.189390564E0,1.233761590E1
1.530735983E1,-8.714128876E0,2.302212524E0,9.188941498E0,1.287139738E1
1.531736183E1,-8.982071686E0,2.903512115E0,8.706494751E0,1.284176955E1
1.532736483E1,-9.038354645E0,3.212619324E0,8.120912476E0,1.256829332E1
1.533736771E1,-8.884175262E0,3.041076050E0,7.959697723E0,1.230989445E1
1.534737071E1,-8.795260162E0,2.574945374E0,8.500972137E0,1.250013889E1
1.535737271E1,-8.726553040E0,2.427352295E0,9.450597382E0,1.309039946E1
1.536737571E1,-8.823102264E0,2.818039856E0,1.029588959E1,1.384896475E1
1.537737771E1,-9.354347534E0,3.728596344E0,1.077893509E1,1.475098946E1
1.538738071E1,-1.008767258E1,5.061125336E0,1.053434372E1,1.543854026E1
1.539738271E1,-1.039543259E1,6.358627167E0,9.112151184E0,1.521605919E1
1.540738571E1,-9.985435181E0,6.956184540E0,7.168293457E0,1.412380438E1
1.541738771E1,-9.576635284E0,6.436614990E0,4.828359375E0,1.250819772E1
1.542739071E1,-1.017209702E1,4.827610931E0,3.591631165E0,1.181851088E1
1.543739371E1,-1.200473602E1,2.991678772E0,3.153941345E0,1.276758297E1
1.544739571E1,-1.368574036E1,1.302142181E0,3.094664612E0,1.409155820E1
1.545739871E1,-1.483879257E1,3.752696228E-1,3.595074005E0,1.527269293E1
1.546740071E1,-1.495360382E1,4.884342957E-1,3.342399445E0,1.533037734E1
1.547740371E1,-1.349174377E1,1.924547882E0,3.479214935E0,1.406541756E1
1.548740571E1,-1.161958694E1,3.909420319E0,4.560566254E0,1.308041026E1
1.549740871E1,-1.035905823E1,4.974006500E0,5.906716919E0,1.292053144E1
1.550741071E1,-9.569001160E0,5.175637207E0,6.935677185E0,1.290180692E1
1.551741371E1,-8.918304291E0,4.962929535E0,7.454498291E0,1.263868529E1
1.552741571E1,-8.320148163E0,4.410278778E0,7.471862183E0,1.202098785E1
1.553741871E1,-7.645950165E0,3.535497894E0,7.169191589E0,1.106153729E1
1.554742171E1,-6.756649475E0,2.588716736E0,6.674919434E0,9.844202147E0
1.555742371E1,-5.907165985E0,1.879341888E0,6.404731293E0,8.913311329E0
1.556742671E1,-5.326224060E0,1.497036896E0,6.205944672E0,8.314056259E0
1.557742871E1,-4.780758362E0,1.245559845E0,6.033802643E0,7.798323164E0
1.558743171E1,-4.172573090E0,1.250948639E0,5.957910461E0,7.380510535E0
1.559743371E1,-3.856580200E0,1.544787598E0,5.207071838E0,6.661319441E0
1.560743671E1,-3.887266388E0,1.919308777E0,4.549788666E0,6.284517727E0
1.561743871E1,-4.364024963E0,2.143991547E0,3.963158569E0,6.272801565E0
1.562744171E1,-4.693040771E0,2.439477081E0,3.578907623E0,6.386255545E0
1.563744371E1,-4.661905518E0,2.748135223E0,3.474574585E0,6.431040259E0
1.564744671E1,-4.559518433E0,2.826572113E0,3.394191742E0,6.348169486E0
1.565744871E1,-4.354145508E0,2.762655029E0,3.203488312E0,6.070682274E0
1.566745171E1,-4.025578766E0,2.614163818E0,3.153492279E0,5.743139422E0
1.567745471E1,-3.767066345E0,2.431992645E0,3.235222321E0,5.529198906E0
1.568745671E1,-3.716022491E0,2.208357697E0,3.441044312E0,5.525074916E0
1.569745971E1,-3.634741516E0,2.051783295E0,3.816463623E0,5.655665758E0
1.570746171E1,-3.604504395E0,1.855840759E0,3.932921448E0,5.648404020E0
1.571746471E1,-3.728895721E0,1.663191376E0,4.080364838E0,5.772369190E0
1.572746671E1,-3.936963043E0,1.567689972E0,4.453389130E0,6.147357529E0
1.573746971E1,-4.097129974E0,1.596280518E0,4.777016144E0,6.492647284E0
1.574747171E1,-4.304149475E0,1.705104218E0,5.104385376E0,6.891141644E0
1.575747471E1,-4.573589172E0,1.825753326E0,5.506149902E0,7.387068422E0
1.576747671E1,-4.923112335E0,1.915566559E0,5.917494507E0,7.932412719E0
1.577747971E1,-5.344336395E0,2.040856018E0,6.322851562E0,8.526750652E0
1.578748271E1,-5.769003296E0,2.243684235E0,6.703210602E0,9.124064354E0
1.579748471E1,-6.183940430E0,2.565964050E0,7.096891937E0,9.756596021E0
1.580748771E1,-6.574029236E0,2.855462036E0,7.348967743E0,1.026542014E1
1.581748971E1,-7.181016998E0,2.756817169E0,7.381450195E0,1.066080921E1
1.582749271E1,-8.203989716E0,2.137554932E0,7.364535370E0,1.122991405E1
1.583749471E1,-9.389374695E0,1.485810242E0,7.912695465E0,1.236845741E1
1.584749771E1,-1.002869522E1,1.254690857E0,8.910221100E0,1.347371578E1
1.585749971E1,-9.427395630E0,1.472338257E0,9.481732635E0,1.345164756E1
1.586750271E1,-7.972870331E0,2.055076447E0,9.365574188E0,1.247012351E1
1.587750471E1,-7.049590302E0,2.675386505E0,8.544381866E0,1.139565171E1
1.588750771E1,-6.621330872E0,3.272195435E0,8.010142822E0,1.089548868E1
1.589750971E1,-6.334976349E0,3.762725372E0,7.791597290E0,1.072375941E1
1.590751271E1,-6.097869415E0,4.007466431E0,7.948770447E0,1.079012281E1
1.591751571E1,-5.841452637E0,3.852388916E0,8.167315979E0,1.075493001E1
1.592751771E1,-5.892945557E0,3.006048889E0,8.189320221E0,1.052749272E1
1.593752071E1,-6.789281616E0,1.690584412E0,8.715176697E0,1.117616774E1
1.594752271E1,-8.273894348E0,4.644841003E-1,9.044192505E0,1.226664140E1
1.595752571E1,-1.057760376E1,-5.004093933E-1,9.136400757E0,1.398606198E1
1.596752771E1,-1.253104156E1,-7.560777283E-1,9.061107330E0,1.548232290E1
1.597753071E1,-1.425770096E1,-1.917512512E-1,8.187673645E0,1.644253037E1
1.598753271E1,-1.609033997E1,1.652563477E0,7.633376312E0,1.788570491E1
1.599753571E1,-1.783466263E1,3.896247711E0,6.692133636E0,1.944326593E1
1.600753771E1,-1.856574234E1,5.312153320E0,5.749992828E0,2.014865204E1
1.601754071E1,-1.720806564E1,5.839506683E0,4.675527191E0,1.876373939E1
1.602754371E1,-1.450154388E1,5.539530487E0,4.506229248E0,1.616438292E1
1.603754571E1,-1.100586319E1,4.424948273E0,5.632187805E0,1.313128826E1
1.604754871E1,-8.933123474E0,3.009641418E0,6.440207520E0,1.141643155E1
1.605755071E1,-7.968978424E0,2.026336212E0,6.743027802E0,1.063386475E1
1.606755371E1,-7.109316101E0,1.327439575E0,6.967411194E0,1.004237472E1
1.607755571E1,-6.599176941E0,6.370751953E-1,7.014563141E0,9.651896040E0
1.608755871E1,-6.333479462E0,2.770738220E-1,7.069049835E0,9.495325037E0
1.609756071E1,-6.034102020E0,2.576142883E-1,6.984026642E0,9.233275716E0
1.610756371E1,-5.633235626E0,3.748205566E-1,6.747518463E0,8.797888353E0
1.611756571E1,-5.265151062E0,5.251080322E-1,6.278094635E0,8.210482714E0
1.612756871E1,-5.164859619E0,6.310876465E-1,5.951324158E0,7.905207507E0
1.613757071E1,-5.202281799E0,6.165678406E-1,5.879473572E0,7.874776270E0
1.614757371E1,-5.272036743E0,4.605921936E-1,5.700146484E0,7.778058018E0
1.615757671E1,-5.372178497E0,3.097059631E-1,5.373076630E0,7.604352179E0
1.616757871E1,-5.491480408E0,2.630030823E-1,5.171146545E0,7.547601227E0
1.617758171E1,-5.565576324E0,2.174977112E-1,4.566703491E0,7.202619375E0
1.618758371E1,-5.527854767E0,1.953437805E-1,4.111649780E0,6.892097027E0
1.619758671E1,-5.291945343E0,2.074685669E-1,3.791016541E0,6.513028108E0
1.620758871E1,-5.128634949E0,1.704954529E-1,3.652853851E0,6.298833733E0
1.621759171E1,-4.942272491E0,1.179547119E-1,3.458557892E0,6.033373301E0
1.622759371E1,-4.717889099E0,8.098159790E-2,3.405717773E0,5.819273934E0
1.623759671E1,-4.511468353E0,9.445358276E-2,3.527564392E0,5.727650367E0
1.624759871E1,-4.396357727E0,1.618135071E-1,3.764970703E0,5.790436017E0
1.625760171E1,-4.268224182E0,2.435435486E-1,4.069138184E0,5.902112900E0
1.626760371E1,-4.203558655E0,2.945874023E-1,4.321663055E0,6.036013475E0
1.627760671E1,-4.203408966E0,3.894900513E-1,4.576433258E0,6.226081497E0
1.628760971E1,-4.253404999E0,4.707710266E-1,4.892575836E0,6.500029058E0
1.629761171E1,-4.318519592E0,4.920268250E-1,5.340893555E0,6.885989096E0
1.630761471E1,-4.366869049E0,4.643344116E-1,5.837411041E0,7.304828499E0
1.631761671E1,-4.362528076E0,4.028123474E-1,6.258186035E0,7.639293256E0
1.632761971E1,-4.329746246E0,3.429368591E-1,6.706952820E0,7.990464591E0
1.633762133E1,-4.417314148E0,2.582130432E-1,7.047943726E0,8.321829668E0
1.634762433E1,-4.644092560E0,2.655477905E-1,7.477101288E0,8.805972689E0
1.635762633E1,-5.087620239E0,3.875440979E-1,7.914342041E0,9.416521654E0
1.636762933E1,-5.791456604E0,6.985972595E-1,8.323890381E0,1.016445566E1
1.637763133E1,-6.851851501E0,1.231638794E0,8.812174988E0,1.123028188E1
1.638763433E1,-8.217910767E0,1.935175781E0,9.150621185E0,1.245041488E1
1.639763733E1,-8.966803436E0,2.720442810E0,8.990454254E0,1.298586311E1
1.640763933E1,-9.055269470E0,3.275638275E0,8.366851044E0,1.275664171E1
1.641764233E1,-8.991352386E0,3.385958862E0,7.730524292E0,1.233167227E1
1.642764433E1,-9.100774841E0,2.872975616E0,7.695048065E0,1.225935791E1
1.643764733E1,-9.340875549E0,2.166295166E0,8.365054779E0,1.272473702E1
1.644764933E1,-8.994196472E0,1.967358856E0,9.245673523E0,1.304793278E1
1.645765233E1,-8.543334045E0,2.261197815E0,1.015952316E1,1.346541804E1
1.646765433E1,-8.674611053E0,2.953807526E0,1.081994980E1,1.417903979E1
1.647765733E1,-9.201665039E0,3.999083862E0,1.069331314E1,1.466322806E1
1.648765933E1,-9.644144897E0,5.196593628E0,9.779014435E0,1.468479620E1
1.649766233E1,-9.870474243E0,6.270310822E0,8.166717224E0,1.426318091E1
1.650766533E1,-1.006042923E1,6.842121735E0,6.609056396E0,1.384581137E1
1.651766733E1,-1.043704605E1,5.998176727E0,4.822222137E0,1.296780169E1
1.652767033E1,-1.157033936E1,4.318669281E0,4.467310181E0,1.313318383E1
1.653767233E1,-1.297771271E1,3.005150757E0,4.981341248E0,1.422201529E1
1.654767533E1,-1.428000458E1,2.105072479E0,4.932991791E0,1.525399190E1
1.655767733E1,-1.531435364E1,1.422192535E0,4.519401855E0,1.603050380E1
1.656768033E1,-1.477427673E1,1.838327179E0,4.840334473E0,1.565527188E1
1.657768233E1,-1.275557465E1,3.326831818E0,5.564229126E0,1.430849888E1
1.658768533E1,-1.089524323E1,4.606820068E0,6.080505524E0,1.330043847E1
1.659768733E1,-9.545649719E0,4.892575836E0,6.966812439E0,1.279035584E1
1.660769033E1,-8.571026459E0,4.699477386E0,7.619455261E0,1.239369520E1
1.661769333E1,-7.707921295E0,4.317621460E0,7.452702026E0,1.155840271E1
1.662769533E1,-6.857839050E0,3.749852142E0,7.073839874E0,1.054184795E1
1.663769833E1,-6.142626343E0,3.053799591E0,6.644083557E0,9.549942232E0
1.664770033E1,-5.428611145E0,2.308948517E0,6.470744019E0,8.756231517E0
1.665770333E1,-4.635410614E0,1.840871887E0,6.105503540E0,7.883718307E0
1.666770533E1,-3.941154327E0,1.489702148E0,5.726042633E0,7.109112051E0
1.667770833E1,-3.268303528E0,1.309476929E0,5.407505035E0,6.452724113E0
1.668771033E1,-3.063828735E0,1.215322723E0,4.890480194E0,5.897529345E0
1.669771333E1,-3.315305786E0,1.300794983E0,4.304299164E0,5.586618954E0
1.670771533E1,-3.725452881E0,1.485510864E0,3.749403076E0,5.490333790E0
1.671771833E1,-4.042194214E0,1.810485077E0,3.302432556E0,5.524785160E0
1.672772133E1,-4.181704102E0,2.123035126E0,3.061433716E0,5.600562805E0
1.673772333E1,-4.240082703E0,2.344125366E0,3.116369476E0,5.760640917E0
1.674772633E1,-4.247567139E0,2.424807587E0,3.076402588E0,5.778042170E0
1.675772833E1,-4.107757874E0,2.393672333E0,3.091670837E0,5.671134856E0
1.676773133E1,-3.943998413E0,2.300266571E0,3.247646484E0,5.602995401E0
1.677773333E1,-3.802093506E0,2.224673767E0,3.550167389E0,5.657629971E0
1.678773633E1,-3.740122375E0,2.054178314E0,3.773952026E0,5.696567197E0
