"Time (s)","Acceleration x (m/s^2)","Acceleration y (m/s^2)","Acceleration z (m/s^2)","Absolute acceleration (m/s^2)"
2.345749999E-3,4.935386810E0,-1.080992065E1,-4.126918030E-1,1.189044751E1
1.234875000E-2,5.780679016E0,-1.265393600E1,-8.006849670E-1,1.393482841E1
2.235175000E-2,4.242477722E0,-1.390832748E1,-1.016386414E-1,1.454133835E1
3.235575000E-2,1.803000641E0,-1.436323151E1,4.050576782E-1,1.448161947E1
4.235875000E-2,-1.149759064E0,-1.402628220E1,-6.617738342E-1,1.408887798E1
5.236175000E-2,-2.809208221E0,-1.318832474E1,-3.381019135E0,1.390161324E1
6.236575000E-2,-1.566342773E0,-1.261366974E1,-4.849166107E0,1.360413562E1
7.236875000E-2,1.138682098E0,-1.230965195E1,-3.602558441E0,1.287643411E1
8.237175000E-2,2.853665771E0,-1.248748215E1,-1.981579285E0,1.296176204E1
9.237575000E-2,3.055895233E0,-1.244976059E1,-2.232008514E0,1.301218262E1
1.023787500E-1,3.241359558E0,-1.199156342E1,-2.475102997E0,1.266610200E1
1.123817500E-1,2.847229156E0,-1.201401672E1,-8.686436462E-1,1.237731205E1
1.223857500E-1,1.050964508E0,-1.237820938E1,1.166524200E0,1.247739446E1
1.323887500E-1,-2.616708527E0,-1.310404999E1,1.788031769E0,1.348185251E1
1.423917500E-1,-6.453679504E0,-1.345896194E1,2.345472565E0,1.510943008E1
1.523947500E-1,-7.870333557E0,-1.294058990E1,3.718567200E0,1.559579300E1
1.623987500E-1,-7.640860748E0,-1.313413742E1,3.964655457E0,1.570371968E1
1.724017500E-1,-7.678881683E0,-1.370190674E1,3.185825043E0,1.602675742E1
1.824047500E-1,-7.229067078E0,-1.423539734E1,7.117698669E-1,1.598163210E1
1.924087500E-1,-5.752088470E0,-1.444675781E1,-2.793041840E0,1.579862069E1
2.024117500E-1,-4.254452820E0,-1.339938583E1,-3.346441040E0,1.445138669E1
2.124147500E-1,-2.279908905E0,-1.239377701E1,-1.902094574E0,1.274447554E1
2.224187500E-1,-1.294957123E0,-1.354203918E1,-2.237247620E0,1.378655200E1
2.324217500E-1,-1.204844513E0,-1.391671005E1,-2.092049561E0,1.412455806E1
2.424247500E-1,-1.358425140E0,-1.298849030E1,-1.072819061E0,1.310332552E1
2.524287500E-1,-1.222956848E0,-1.236788086E1,-2.188449097E-1,1.243012444E1
2.624317500E-1,-1.290765839E0,-1.194920151E1,2.736309814E-1,1.202182877E1
2.724347500E-1,-1.482966156E0,-1.101394638E1,2.740800476E-1,1.111671369E1
2.824377500E-1,-8.195457458E-1,-1.003782623E1,3.969744873E-1,1.007904755E1
2.924417500E-1,-6.092330933E-2,-8.966653748E0,2.472857666E-1,8.970269858E0
3.024447500E-1,8.327183533E-1,-8.194110260E0,-5.047503662E-1,8.251765614E0
3.124477500E-1,9.729766846E-1,-7.814050598E0,-1.563648376E0,8.028142165E0
3.224517500E-1,3.767665100E-1,-7.427105255E0,-1.767374725E0,7.643785639E0
3.324547500E-1,1.513352966E-1,-6.656058655E0,-1.177750854E0,6.761147555E0
3.424577500E-1,6.002517700E-2,-6.271208954E0,-6.658154297E-1,6.306740438E0
3.524617500E-1,1.948947144E-1,-5.947881317E0,-7.020401001E-2,5.951487605E0
3.624647500E-1,1.317260742E-1,-5.304818573E0,2.338137817E-1,5.311602464E0
3.724677500E-1,-4.734654236E-1,-4.874014435E0,2.900967407E-1,4.905542002E0
3.824717500E-1,-1.341210938E0,-4.590953064E0,6.956034851E-1,4.833172977E0
3.924747500E-1,-2.003284149E0,-4.163591766E0,6.291416931E-1,4.663095865E0
4.024777500E-1,-2.672392731E0,-3.864513702E0,5.556445312E-1,4.731267262E0
4.124817500E-1,-3.412603455E0,-3.617826691E0,7.394622803E-1,5.028054968E0
4.224847500E-1,-3.700454865E0,-3.349734192E0,1.117725677E0,5.115016720E0
4.324877500E-1,-3.692671051E0,-3.147355042E0,1.275048523E0,5.016713265E0
4.424907500E-1,-3.104244690E0,-2.918780365E0,1.127305756E0,4.407542647E0
4.524947500E-1,-2.505040741E0,-2.873873749E0,6.747967529E-1,3.871657280E0
4.624977500E-1,-2.070344696E0,-2.856210480E0,1.757345581E-1,3.532017568E0
4.725007500E-1,-1.469943237E0,-2.888992310E0,-5.348377991E-1,3.285279464E0
4.825047500E-1,-9.786648560E-1,-3.187920685E0,-1.210682373E0,3.547728146E0
4.925077500E-1,-7.385641479E-1,-3.886517944E0,-2.062411194E0,4.461394251E0
5.025107500E-1,-7.825726318E-1,-4.918322296E0,-3.450774078E0,6.058890647E0
5.125147500E-1,-7.132667542E-1,-6.399043121E0,-5.242697754E0,8.303154947E0
5.225177500E-1,-3.641926575E-1,-8.324339447E0,-7.734865265E0,1.136905467E1
5.325207500E-1,1.740879822E-1,-1.094029953E1,-1.089254883E1,1.543917357E1
5.425247500E-1,1.638343048E0,-1.411010788E1,-1.337798035E1,1.951280786E1
5.525277500E-1,2.065854034E0,-1.831276840E1,-1.339699081E1,2.278386715E1
5.625307500E-1,2.545606384E0,-2.178854050E1,-1.415755920E1,2.610856357E1
5.725347500E-1,3.027604065E0,-2.263338364E1,-1.330433350E1,2.642804819E1
5.825377500E-1,2.553539886E0,-2.004272095E1,-7.902366943E0,2.169512923E1
5.925407500E-1,8.183482361E-1,-1.577913712E1,-4.569098511E0,1.644772091E1
6.025437500E-1,-8.478369141E-1,-1.130509094E1,-5.980214081E0,1.281744394E1
6.125477500E-1,-2.704875183E-1,-6.970255280E0,-8.363408203E0,1.089055641E1
6.225507500E-1,1.013841705E0,-3.690276031E0,-9.762548676E0,1.048586519E1
6.325537500E-1,2.158511353E0,-2.756068726E0,-9.096583557E0,9.746944059E0
6.425577500E-1,1.794468384E0,-4.722978516E0,-7.984995117E0,9.449168739E0
6.525607500E-1,-2.643502808E-1,-7.476053467E0,-6.121520233E0,9.666140206E0
6.625637500E-1,-3.011287994E0,-1.073597443E1,-2.207309875E0,1.136667142E1
6.725677500E-1,-5.740412750E0,-1.425560532E1,2.352507935E0,1.554699055E1
6.825707500E-1,-8.025411072E0,-1.623808273E1,6.144422607E0,1.912685240E1
6.925737500E-1,-9.128916321E0,-1.754800873E1,4.929848328E0,2.038561081E1
7.025777500E-1,-5.055287476E0,-1.636202499E1,-2.014211426E0,1.724322595E1
7.125807500E-1,-2.538571014E0,-1.068088898E1,-4.824766846E0,1.199183502E1
7.225837500E-1,-6.039041748E0,-5.122946777E0,-2.924318848E0,8.441933999E0
7.325877500E-1,-8.852441254E0,-1.404978333E0,-3.810625763E0,9.739638031E0
7.425907500E-1,-6.238277435E0,-1.430874481E0,-3.096760254E0,7.110093615E0
7.525937500E-1,-9.098080444E-1,-4.528832245E0,3.270848236E0,5.660081304E0
7.625977500E-1,5.023553467E-1,-8.549471283E0,8.098010101E0,1.178658507E1
7.726007500E-1,-2.298021240E0,-1.095676529E1,7.133565674E0,1.327476427E1
7.826037500E-1,-3.595672760E0,-1.184007843E1,5.323829041E0,1.347068950E1
7.926067500E-1,-3.002755737E0,-1.336480774E1,4.140090637E0,1.430996081E1
8.026107500E-1,-1.913021851E0,-1.429422501E1,3.000510406E0,1.473049842E1
8.126137500E-1,4.695735168E-1,-1.432895279E1,6.185137939E-1,1.434998072E1
8.226167500E-1,3.627706146E0,-1.421548874E1,-4.085005188E0,1.522917067E1
8.326207500E-1,4.209546204E0,-1.342318634E1,-3.991599426E0,1.462310079E1
8.426237500E-1,3.959266663E0,-1.213945587E1,-3.114273834E0,1.314309259E1
8.526267500E-1,3.218756561E0,-1.066981201E1,-3.512146454E0,1.168505263E1
8.626307500E-1,6.523434448E-1,-9.851912842E0,-3.223247223E0,1.038629199E1
8.726337500E-1,-1.037342834E0,-9.543404388E0,-2.818339233E0,1.000478303E1
8.826367500E-1,-1.271905060E0,-8.914262695E0,-2.171983337E0,9.262792964E0
8.926407500E-1,-1.427281952E0,-8.092471619E0,-1.366508331E0,8.330220627E0
9.026437500E-1,-1.365759888E0,-7.404651947E0,-3.579057312E-1,7.538054593E0
9.126467500E-1,-7.937992859E-1,-6.916517029E0,7.503895569E-1,7.002243184E0
9.226507500E-1,-5.343887329E-1,-6.821913757E0,1.353784790E0,6.975443490E0
9.326545000E-1,-2.396516418E-1,-6.876400452E0,1.474882965E0,7.036874011E0
9.426575000E-1,-4.035607910E-1,-7.332202606E0,9.431886292E-1,7.403624866E0
9.526615000E-1,-7.954458618E-1,-8.158035278E0,2.880010986E-1,8.201781413E0
9.626645000E-1,-6.747967529E-1,-8.847950592E0,-1.877096558E-1,8.875630414E0
9.726675000E-1,-7.216493225E-1,-9.019942932E0,-5.959107971E-1,9.068365780E0
9.826705000E-1,-9.156459045E-1,-8.934470673E0,-6.713539124E-1,9.006324983E0
9.926745000E-1,-6.713539124E-1,-8.697812805E0,-5.794450378E-1,8.742906852E0
1.002677500E0,-4.652325439E-1,-8.479866028E0,-3.818559265E-1,8.501198922E0
1.012680500E0,-2.228865051E-1,-8.052953796E0,5.607339478E-1,8.075528825E0
1.022684500E0,-1.601669312E-2,-7.880063324E0,4.050576782E-1,7.890483271E0
1.032687500E0,8.337661743E-2,-8.148006134E0,-1.649569702E-1,8.150102234E0
1.042690500E0,-1.550775146E-1,-8.460705872E0,-4.658312988E-1,8.474939037E0
1.052694500E0,-4.167333984E-1,-8.654253387E0,-8.732839966E-1,8.708179681E0
1.062697500E0,-4.887336731E-1,-8.861422577E0,-1.106648712E0,8.943620188E0
1.072700500E0,-2.860551453E-1,-9.357790375E0,-5.313949585E-1,9.377230340E0
1.082704500E0,-4.760101318E-2,-1.021550674E1,3.716770935E-1,1.022237682E1
1.092707500E0,-5.523513794E-2,-1.105600891E1,7.107220459E-1,1.107896700E1
1.102710500E0,-2.148033142E-1,-1.150836823E1,2.185455322E-1,1.151244726E1
1.112713500E0,-2.865042114E-1,-1.146974854E1,-8.632548523E-1,1.150575617E1
1.122717500E0,-1.639091492E-1,-1.108834167E1,-1.890718231E0,1.124957789E1
1.132720500E0,1.260379028E-1,-1.060918808E1,-2.200124817E0,1.083564979E1
1.142723500E0,7.089257812E-1,-1.010847931E1,-1.648970947E0,1.026659802E1
1.152727500E0,1.486259308E0,-9.580227814E0,-6.750961304E-1,9.718306770E0
1.162730500E0,2.831212463E0,-9.390123138E0,-3.748205566E-1,9.814818746E0
1.172733500E0,5.124743042E0,-1.012344818E1,-4.995112610E-1,1.135767167E1
1.182737500E0,6.859635315E0,-1.214574280E1,-2.881507874E-1,1.395194236E1
1.192740500E0,5.368436279E0,-1.411878983E1,9.610015869E-2,1.510528283E1
1.202743500E0,2.854713593E0,-1.505015305E1,2.529739380E-2,1.531852266E1
1.212747500E0,1.398092651E-1,-1.499087631E1,-5.384303284E-1,1.500119417E1
1.222750500E0,-2.167941742E0,-1.457923233E1,-2.123484192E0,1.489171487E1
1.232753500E0,-1.931583252E0,-1.409259430E1,-3.500021667E0,1.464863064E1
1.242757500E0,-5.370831299E-1,-1.327679077E1,-4.298161926E0,1.396552281E1
1.252760500E0,1.321002960E0,-1.270078857E1,-3.695515137E0,1.329330325E1
1.262763500E0,2.809058533E0,-1.213436646E1,-3.956422577E0,1.306854769E1
1.272766500E0,3.135829010E0,-1.194935120E1,-3.177292786E0,1.275600278E1
1.282770500E0,1.942660217E0,-1.185115540E1,-3.345542908E-1,1.201398100E1
1.292773500E0,-9.261241150E-1,-1.091575058E1,1.279090118E0,1.102938748E1
1.302776500E0,-5.121599579E0,-9.801617432E0,3.206781464E0,1.151459656E1
1.312780500E0,-6.655160522E0,-9.620943146E0,4.894072723E0,1.268091702E1
1.322783500E0,-6.278992767E0,-1.044318329E1,4.511618042E0,1.299386489E1
1.332786500E0,-6.201454010E0,-1.204455322E1,3.142864380E0,1.390708060E1
1.342790500E0,-6.141578522E0,-1.447385147E1,-6.619235229E-1,1.573688361E1
1.352793500E0,-5.723647614E0,-1.660781387E1,-4.567751312E0,1.815059161E1
1.362796500E0,-5.554948425E0,-1.701376968E1,-3.451073456E0,1.822733439E1
1.372800500E0,-4.550686798E0,-1.614841919E1,-1.449735260E0,1.683989088E1
1.382803500E0,-3.738475800E0,-1.538051605E1,-9.813592529E-1,1.585873707E1
1.392806500E0,-4.286186829E0,-1.557391388E1,-1.246308289E0,1.620097143E1
1.402810500E0,-4.222269745E0,-1.544248718E1,-6.535409546E-1,1.602264298E1
1.412813500E0,-2.713257751E0,-1.436936874E1,-2.484832764E-2,1.462330822E1
1.422816500E0,-1.047821045E0,-1.313024551E1,-1.887574768E-1,1.317334071E1
1.432819500E0,-8.207432556E-1,-1.180175812E1,-3.357518005E-1,1.183502613E1
1.442823500E0,4.011657715E-2,-1.002300705E1,-3.112028503E-1,1.002791737E1
1.452826500E0,1.383423157E0,-8.884923706E0,-2.857557678E-1,8.996520730E0
1.462829500E0,1.879192200E0,-8.109536133E0,-1.263073425E0,8.419696793E0
1.472833500E0,2.021546173E0,-7.625592499E0,-1.251846771E0,7.987704941E0
1.482836500E0,1.215622101E0,-6.748865662E0,-1.274449768E0,6.974894051E0
1.492839500E0,-3.228785706E-1,-5.646557922E0,-1.120569763E0,5.765721424E0
1.502843500E0,-4.776567078E-1,-5.027595062E0,-2.133064270E-1,5.054737152E0
1.512846500E0,-8.442443848E-2,-4.768633575E0,7.032376099E-1,4.820947708E0
1.522849500E0,4.176315308E-2,-4.547543335E0,1.532513123E0,4.799009379E0
1.532853500E0,-6.390211487E-1,-4.282444611E0,1.119372253E0,4.472211322E0
1.542856500E0,-1.561403046E0,-3.689078522E0,1.089584198E0,4.151442344E0
1.552859500E0,-2.247127075E0,-3.220403137E0,8.686436462E-1,4.021830211E0
1.562863500E0,-2.710263977E0,-2.846181335E0,8.982820129E-1,4.031524475E0
1.572866500E0,-3.342549133E0,-2.480342102E0,1.305435333E0,4.362211946E0
1.582869500E0,-3.633693695E0,-2.254312134E0,1.091530151E0,4.413285753E0
1.592872500E0,-3.469185791E0,-1.897005157E0,9.964778137E-1,4.077603052E0
1.602876500E0,-3.065475311E0,-1.637295227E0,9.315129089E-1,3.597998172E0
1.612879500E0,-2.362088013E0,-1.593735809E0,6.718029785E-1,2.927588231E0
1.622882500E0,-1.909728699E0,-1.798659668E0,1.649569702E-1,2.628583479E0
1.632886500E0,-1.700763245E0,-2.218087463E0,-4.414320374E-1,2.829729643E0
1.642889500E0,-1.278042297E0,-3.030597839E0,-1.425036621E0,3.584500628E0
1.652892500E0,-9.919871521E-1,-4.172722778E0,-2.780168610E0,5.111261233E0
1.662896500E0,-5.457650757E-1,-5.630541229E0,-5.162314911E0,7.658351604E0
1.672899500E0,-7.364685059E-2,-7.811805267E0,-8.288414154E0,1.138979958E1
1.682902500E0,1.436562653E0,-1.113040421E1,-1.182765427E1,1.630469305E1
1.692906500E0,2.946772156E0,-1.590861786E1,-1.494058090E1,2.202245549E1
1.702909500E0,2.936743011E0,-2.209225891E1,-1.485630615E1,2.678436476E1
1.712912500E0,2.525997162E0,-2.607921799E1,-1.788870026E1,3.172557122E1
1.722915500E0,1.956581268E0,-2.392355072E1,-1.436427933E1,2.797314802E1
1.732919500E0,1.199904785E0,-1.860810425E1,-6.849157104E0,1.986485007E1
1.742922500E0,3.329077148E-1,-1.259795242E1,-4.962480469E0,1.354420338E1
1.752925500E0,4.421804810E-1,-7.180118866E0,-8.550519104E0,1.117412222E1
1.762929500E0,1.173709259E0,-3.664828949E0,-9.642947388E0,1.038243704E1
1.772932500E0,2.278112640E0,-1.545985107E0,-8.610993347E0,9.040413352E0
1.782935500E0,2.743045807E0,-1.848206635E0,-7.694149933E0,8.374969328E0
1.792939500E0,9.458830261E-1,-4.871769104E0,-5.962401123E0,7.757516101E0
1.802942500E0,-2.273322601E0,-8.556057587E0,-3.078049164E0,9.372753263E0
1.812945500E0,-6.154601440E0,-1.304387512E1,1.589694214E-1,1.442383681E1
1.822949500E0,-9.164242859E0,-1.671753571E1,4.020938416E0,1.948402661E1
1.832952500E0,-1.121048767E1,-1.866064499E1,5.335654449E0,2.241347616E1
1.842955500E0,-8.271349640E0,-2.073637848E1,-1.135538635E0,2.235401676E1
1.852958500E0,-4.355941772E-1,-1.745235764E1,-7.428901520E0,1.897269372E1
1.862962500E0,-2.084714813E0,-9.044192505E0,-1.354233856E0,9.379627032E0
1.872965500E0,-6.996450806E0,-1.751058655E0,2.567161560E-1,7.216816020E0
1.882968500E0,-9.493108978E0,8.173004150E-1,-3.295247498E0,1.008195190E1
1.892972500E0,-5.366340637E0,-9.554631042E-1,-7.319778442E-1,5.499664821E0
1.902975500E0,-4.700225830E-1,-4.679718475E0,5.874234467E0,7.525112411E0
1.912978500E0,-7.923023987E-1,-8.889713745E0,7.743547211E0,1.181597550E1
1.922982500E0,-3.081192627E0,-1.126048370E1,6.093079376E0,1.316882142E1
1.932985375E0,-4.039200439E0,-1.291409500E1,5.106031952E0,1.446238404E1
1.942988375E0,-3.620072021E0,-1.484522919E1,3.966152344E0,1.578658023E1
1.952992375E0,-2.223625946E0,-1.587089630E1,2.839595032E0,1.627553875E1
1.962995375E0,-3.820056152E-1,-1.584275482E1,2.064357147E0,1.598125086E1
1.972998375E0,2.098785553E0,-1.485286331E1,-6.189628601E-1,1.501317969E1
1.983001375E0,4.657265167E0,-1.368199814E1,-5.285957794E0,1.538923460E1
1.993005375E0,3.722758484E0,-1.215801727E1,-4.840933228E0,1.360554847E1
2.003008375E0,2.040856018E0,-1.046788193E1,-4.277205505E0,1.149069764E1
2.013011375E0,2.210902405E-1,-9.637708282E0,-4.383933563E0,1.059023963E1
2.023015375E0,-9.798623657E-1,-8.880732422E0,-3.158432007E0,9.476456687E0
2.033018375E0,-1.702260132E0,-7.989635468E0,-1.465901642E0,8.299447698E0
2.043021375E0,-1.969753876E0,-7.392976227E0,-7.214996338E-2,7.651224310E0
2.053025375E0,-1.926942902E0,-7.127129059E0,1.102457428E0,7.464883787E0
2.063028375E0,-1.978585510E0,-6.794371033E0,1.704056396E0,7.278879485E0
2.073031375E0,-1.334025879E0,-6.548731842E0,1.896705780E0,6.947158167E0
2.083035375E0,-8.385562134E-1,-6.803651733E0,1.289268951E0,6.975318477E0
2.093038375E0,-5.863307190E-1,-7.320826263E0,4.851411438E-1,7.360274643E0
2.103041375E0,1.595681763E-1,-7.945626984E0,1.239422607E-1,7.948195509E0
2.113044375E0,5.626799011E-1,-8.431366882E0,-2.029779053E-1,8.452559151E0
2.123048375E0,6.402186584E-1,-8.627459106E0,-6.798861694E-1,8.677855482E0
2.133051375E0,3.776646423E-1,-8.093369751E0,-6.038442993E-1,8.124647220E0
2.143054375E0,2.029779053E-1,-7.821984100E0,-4.369413757E-1,7.836807581E0
2.153058375E0,1.116677856E-1,-7.886350250E0,-2.603086853E-1,7.891435267E0
2.163061375E0,-1.721420288E-1,-7.929310913E0,-2.174977112E-1,7.934160932E0
2.173064375E0,-5.601351929E-1,-8.315507812E0,-4.782554626E-1,8.348062644E0
2.183068375E0,-1.080752563E0,-8.540639648E0,-9.883946228E-1,8.665302974E0
2.193071375E0,-1.264570312E0,-8.743916931E0,-1.675166473E0,8.992296931E0
2.203074375E0,-6.518943787E-1,-8.819360046E0,-1.925446014E0,9.050603309E0
2.213078375E0,2.903961182E-2,-9.150022430E0,-9.865983582E-1,9.203104373E0
2.223081375E0,2.189945984E-1,-9.854307861E0,3.350033569E-1,9.862432221E0
2.233084375E0,-2.110610962E-2,-1.069271439E1,8.189469910E-1,1.072405057E1
2.243087375E0,-3.668870544E-1,-1.142349472E1,3.360511780E-1,1.143432412E1
2.253091375E0,-1.559756470E-1,-1.142349472E1,-7.200027466E-1,1.144722517E1
2.263094375E0,4.436773682E-1,-1.089239914E1,-1.415456543E0,1.099293982E1
2.273097375E0,8.572673035E-1,-1.036579422E1,-1.112636261E0,1.046052372E1
2.283101375E0,8.996292114E-1,-9.988129578E0,-4.710704041E-1,1.003962014E1
2.293104375E0,1.387165375E0,-9.714049530E0,-1.862127686E-1,9.814359951E0
2.303107375E0,2.513722687E0,-9.895322571E0,-2.671943665E-1,1.021310939E1
2.313111375E0,4.844675446E0,-1.097008759E1,-2.160008240E-1,1.199418018E1
2.323114375E0,7.369924164E0,-1.277114227E1,-3.445834351E-1,1.474912183E1
2.333117375E0,6.525530090E0,-1.461875015E1,-1.621128845E0,1.609094334E1
2.343121375E0,3.182082825E0,-1.549113602E1,-1.900897064E0,1.592841348E1
2.353124375E0,1.899549866E-1,-1.523292297E1,-9.836045837E-1,1.526582796E1
2.363127375E0,-1.313967590E0,-1.485091736E1,3.628454590E-1,1.491334684E1
2.373130375E0,-2.713257751E0,-1.475092529E1,6.093827820E-1,1.501075987E1
2.383134375E0,-2.454146576E0,-1.380998199E1,-2.199675751E0,1.419778192E1
2.393137375E0,-3.876937866E-1,-1.219454132E1,-5.366640015E0,1.332883977E1
2.403140375E0,2.283651123E0,-1.230321533E1,-4.614154816E0,1.333696347E1
2.413144375E0,3.073708191E0,-1.299851944E1,-2.979404297E0,1.368524898E1
2.423147375E0,1.768422546E0,-1.348665436E1,-1.132544861E0,1.364916928E1
2.433150375E0,6.465055847E-1,-1.338127350E1,1.014440460E0,1.343523499E1
2.443154375E0,-3.136727142E0,-1.205548050E1,2.588567047E0,1.272298497E1
2.453157375E0,-7.181316376E0,-1.072534653E1,4.654421082E0,1.372107862E1
2.463160375E0,-7.177424469E0,-1.054557037E1,5.872138824E0,1.404302285E1
2.473164375E0,-7.020999756E0,-1.134670441E1,4.698878632E0,1.414643414E1
2.483167375E0,-6.961573334E0,-1.300675232E1,2.244282990E0,1.492232942E1
2.493170375E0,-5.740113373E0,-1.489223145E1,-2.827320557E0,1.620867670E1
2.503173375E0,-4.309089203E0,-1.567704941E1,-5.221142578E0,1.707625421E1
2.513177375E0,-4.210294647E0,-1.465198105E1,-3.059637451E0,1.554890707E1
2.523180375E0,-3.730093231E0,-1.377465546E1,-1.445094910E0,1.434374525E1
2.533183375E0,-3.990701294E0,-1.337244186E1,-1.000968475E0,1.399106272E1
2.543187375E0,-3.915557556E0,-1.356583969E1,-8.351133728E-1,1.414429255E1
2.553190375E0,-3.453767853E0,-1.338890762E1,-1.073268127E-1,1.382761291E1
2.563193375E0,-2.232158203E0,-1.286215302E1,6.045927429E-1,1.306839863E1
2.573197375E0,-1.046473846E0,-1.187390808E1,3.667373657E-1,1.192557323E1
2.583200375E0,-5.755531311E-1,-1.064077240E1,4.888833618E-1,1.066753512E1
2.593203375E0,2.499801636E-2,-9.214089203E0,5.882766724E-1,9.232883308E0
2.603206375E0,1.567240906E0,-7.940537567E0,1.017883301E-1,8.094364816E0
2.613210375E0,2.358046417E0,-7.449708252E0,-1.293609924E0,7.920351165E0
2.623213375E0,1.198108521E0,-6.914870453E0,-1.586550751E0,7.195001090E0
2.633216375E0,-2.561174011E-1,-5.622458038E0,1.279988251E0,5.772001424E0
2.643220375E0,-2.067201233E-1,-4.005370789E0,-2.192939758E-1,4.016692447E0
2.653223375E0,-1.704056396E0,-4.354295197E0,-5.279371490E0,7.052337073E0
2.663226375E0,-1.337917786E0,-4.978796539E0,4.114942932E-1,5.171824295E0
2.673230375E0,-3.986210632E-1,-5.153782654E0,1.869163055E0,5.496739481E0
2.683233375E0,-7.867639160E-1,-4.792284393E0,1.539847870E0,5.094714774E0
2.693236375E0,-1.063837738E0,-4.741988983E0,1.151405640E0,4.994391374E0
2.703240375E0,-1.829196167E0,-4.440964966E0,9.764195251E-1,4.901175730E0
2.713243375E0,-2.881358185E0,-3.781885529E0,8.674461365E-1,4.832943817E0
2.723246375E0,-3.670217743E0,-3.237617340E0,9.725276184E-1,4.989837101E0
2.733249375E0,-3.678001556E0,-2.715503082E0,1.123114471E0,4.707763647E0
2.743253375E0,-3.295097809E0,-2.278112640E0,9.383985901E-1,4.114372210E0
2.753256375E0,-2.855012970E0,-2.024689636E0,6.976991272E-1,3.568928586E0
2.763259375E0,-2.481389923E0,-2.084415436E0,3.775149536E-1,3.262606504E0
2.773263375E0,-2.122586060E0,-2.425406342E0,-1.570234680E-1,3.226859754E0
2.783266375E0,-1.970801697E0,-2.991828461E0,-8.765771484E-1,3.688290168E0
2.793269375E0,-1.942510529E0,-3.937711487E0,-2.074685669E0,4.856257770E0
2.803273375E0,-1.905986481E0,-5.171146545E0,-3.734583893E0,6.657376203E0
2.813276375E0,-1.448388062E0,-7.128925323E0,-5.987399139E0,9.421695850E0
2.823279375E0,2.859054565E-2,-9.918075256E0,-8.796008606E0,1.325665122E1
2.833282375E0,2.183060303E0,-1.324775116E1,-1.215622101E1,1.811194005E1
2.843286375E0,4.073778534E0,-1.743334717E1,-1.452040466E1,2.305123460E1
2.853289375E0,3.987707520E0,-2.252934998E1,-1.570189774E1,2.774928853E1
2.863292375E0,4.294419708E0,-2.551070023E1,-1.802297104E1,3.152880194E1
2.873296375E0,3.181783447E0,-2.298140991E1,-1.127186005E1,2.579387091E1
2.883299375E0,1.318308563E0,-1.710642700E1,-5.576353912E0,1.804060712E1
2.893302375E0,1.426683197E0,-1.041953247E1,-7.785460052E0,1.308493294E1
2.903306375E0,1.380878448E0,-5.590424652E0,-9.251062317E0,1.089687235E1
2.913309375E0,1.311572571E0,-2.142644348E0,-8.247399445E0,8.621527997E0
2.923312375E0,1.251996460E0,-2.110610962E-1,-7.284751282E0,7.394568490E0
2.933316250E0,5.748046875E-2,-1.945204926E0,-6.613397369E0,6.893776249E0
2.943319250E0,-2.223176880E0,-5.848188629E0,-5.608836365E0,8.402551461E0
2.953322250E0,-4.518952789E0,-1.032283356E1,-3.041076050E0,1.167175953E1
2.963325250E0,-6.761439514E0,-1.493294678E1,3.948788452E-1,1.639713063E1
2.973329250E0,-8.488248596E0,-1.827444809E1,3.213966522E0,2.040429852E1
2.983332250E0,-8.040230255E0,-2.005080414E1,3.803590393E0,2.193507121E1
2.993335250E0,-2.797831879E0,-1.901016815E1,-1.081351318E0,1.924535469E1
3.003339250E0,-4.046086121E-1,-1.242970230E1,-1.465153198E0,1.252229537E1
3.013342250E0,-5.144052887E0,-5.435047760E0,-2.661465454E-1,7.488114465E0
3.023345250E0,-9.856104126E0,-1.488504639E0,-3.055595856E0,1.042569425E1
3.033349250E0,-8.599317627E0,-8.607101440E-1,-2.793939972E0,9.082686066E0
3.043352250E0,-2.394121399E0,-3.376229095E0,2.997816010E0,5.110542144E0
3.053355250E0,-6.324348450E-1,-7.198081512E0,7.815397797E0,1.064390878E1
3.063359250E0,-3.037483521E0,-9.823621674E0,6.578968964E0,1.220707506E1
3.073362250E0,-4.452790375E0,-1.136855896E1,5.611830139E0,1.343741465E1
3.083365250E0,-4.021686859E0,-1.340118210E1,4.556225281E0,1.471478289E1
3.093368250E0,-2.780467987E0,-1.467623062E1,3.214265900E0,1.527920982E1
3.103372250E0,-1.041085052E0,-1.525507690E1,2.279160461E0,1.545948906E1
3.113375250E0,1.059646454E0,-1.506182877E1,1.101559296E0,1.513918655E1
3.123378250E0,3.878734131E0,-1.427536423E1,-2.123035126E0,1.494449331E1
3.133382250E0,5.357808380E0,-1.313458649E1,-4.235442352E0,1.480413607E1
3.143385250E0,4.669389954E0,-1.161195282E1,-3.767964478E0,1.307050906E1
3.153388250E0,2.823129272E0,-9.763446808E0,-4.982239380E0,1.131890727E1
3.163392250E0,4.752616882E-1,-9.072184296E0,-5.176685028E0,1.045602551E1
3.173395250E0,-7.831713867E-1,-9.206604767E0,-3.987258453E0,1.006345660E1
3.183398250E0,-1.118474121E0,-8.553512878E0,-2.348915405E0,8.940412211E0
3.193401250E0,-1.354233856E0,-7.623945923E0,-6.375242615E-1,7.769487625E0
3.203405250E0,-8.632548523E-1,-7.009623413E0,6.042933655E-1,7.088384852E0
3.213408250E0,-7.631130981E-1,-6.586603088E0,1.354533234E0,6.767602391E0
3.223411250E0,-1.381626892E0,-6.549629974E0,1.624122620E0,6.887983736E0
3.233415250E0,-1.676363983E0,-6.789730682E0,1.034199371E0,7.069668117E0
3.243418250E0,-1.026116180E0,-7.230264587E0,2.787203979E-1,7.308031574E0
3.253421250E0,-5.998027039E-1,-7.802374878E0,-2.887495422E-1,7.830721124E0
3.263425250E0,-1.683998108E-1,-8.372389526E0,-4.487667847E-1,8.386099004E0
3.273428250E0,-3.502716064E-2,-8.719817047E0,-2.186952209E-1,8.722629411E0
3.283431250E0,4.475692749E-2,-8.617130585E0,1.222956848E-1,8.618114581E0
3.293434250E0,2.508782959E-1,-8.391399994E0,4.224215698E-1,8.405770266E0
3.303438250E0,-3.308120728E-2,-8.108338623E0,2.737806702E-1,8.113026898E0
3.313441250E0,-4.822970581E-1,-8.202642517E0,1.930984497E-2,8.216831968E0
3.323444250E0,-6.192622375E-1,-7.940537567E0,-5.414241028E-1,7.983029665E0
3.333448250E0,-1.126557312E0,-7.776029663E0,-1.425335999E0,7.985446225E0
3.343451250E0,-1.438059540E0,-8.368796997E0,-2.668351135E0,8.900835702E0
3.353454250E0,-1.002016296E0,-9.064999237E0,-2.504741364E0,9.457905536E0
3.363458250E0,-3.748205566E-1,-9.765542450E0,-7.382647705E-1,9.800578792E0
3.373461250E0,-1.698966980E-1,-1.049153275E1,6.304888916E-1,1.051183335E1
3.383464250E0,-5.960604858E-1,-1.117156860E1,4.318519592E-1,1.119579069E1
3.393468250E0,-1.042881317E0,-1.129700775E1,-8.469387817E-1,1.137661157E1
3.403471250E0,-8.479866028E-1,-1.091455307E1,-1.965562592E0,1.112249910E1
3.413474250E0,-2.730322266E-1,-1.033899994E1,-1.667382660E0,1.047614582E1
3.423477250E0,3.597019958E-1,-9.790241089E0,-5.255570984E-1,9.810933512E0
3.433481250E0,1.561552734E0,-9.477541351E0,2.769241333E-1,9.609314439E0
3.443484250E0,3.173251190E0,-9.373507690E0,5.975573730E-1,9.914093219E0
3.453487250E0,5.935307465E0,-1.007629623E1,8.849597168E-1,1.172786316E1
3.463491250E0,7.889942780E0,-1.178738800E1,3.944297791E-1,1.418975996E1
3.473494250E0,7.293582916E0,-1.366268829E1,-1.753453674E0,1.558653274E1
3.483497250E0,4.784799957E0,-1.467997284E1,-3.240311737E0,1.577642334E1
3.493501250E0,1.372346191E0,-1.595068039E1,-1.534010010E0,1.608293274E1
3.503504250E0,-1.469194794E0,-1.672097855E1,9.086105347E-1,1.680997412E1
3.513507250E0,-1.967508545E0,-1.574949875E1,1.704954529E-1,1.587283432E1
3.523511250E0,-4.631369019E-1,-1.391117157E1,-2.864892426E0,1.421065793E1
3.533514250E0,4.870870972E-1,-1.326122314E1,-5.881718903E0,1.451523029E1
3.543517250E0,9.063652039E-1,-1.335687424E1,-3.948938141E0,1.395785441E1
3.553520250E0,1.173260193E0,-1.276425659E1,-2.032174072E0,1.297815539E1
3.563524250E0,1.425036621E-1,-1.250035538E1,-7.110214233E-2,1.250136982E1
3.573527250E0,-1.705553284E0,-1.189231979E1,2.054477692E0,1.218839861E1
3.583530250E0,-5.281766510E0,-1.066666855E1,3.294648743E0,1.235028687E1
3.593534250E0,-6.503076782E0,-9.645043030E0,4.853956146E0,1.260467187E1
3.603537250E0,-5.853727112E0,-9.533375244E0,5.857768707E0,1.262793803E1
3.613540250E0,-6.086792450E0,-1.059017761E1,5.072801056E0,1.322626987E1
3.623544250E0,-6.231242065E0,-1.294552963E1,6.935078430E-1,1.438388224E1
3.633547250E0,-5.344785461E0,-1.504880585E1,-4.218976593E0,1.651765881E1
3.643550250E0,-4.957690430E0,-1.562166458E1,-3.858526154E0,1.683755691E1
3.653553250E0,-4.831502838E0,-1.524953842E1,-1.623673553E0,1.607881083E1
3.663557250E0,-4.803960114E0,-1.510299316E1,-9.888436890E-1,1.587942843E1
3.673560250E0,-5.970334625E0,-1.518966293E1,-8.711883545E-1,1.634410367E1
3.683563250E0,-5.693410492E0,-1.521466095E1,-7.942483521E-1,1.626442933E1
3.693567250E0,-4.905598755E0,-1.510598694E1,1.190025330E-1,1.588300671E1
3.703570250E0,-2.719095612E0,-1.414543442E1,5.511538696E-1,1.441494247E1
3.713573250E0,-7.273374939E-1,-1.214020432E1,1.062340851E0,1.220828197E1
3.723577250E0,4.108955383E-1,-1.031235535E1,8.345146179E-1,1.035422245E1
3.733580250E0,2.382295990E0,-8.683143311E0,-1.228944397E-1,9.004855078E0
3.743583250E0,4.273912354E0,-8.231382751E0,-5.941145325E-1,9.293813043E0
3.753587250E0,4.343667297E0,-8.238418121E0,-1.806144104E0,9.486892814E0
3.763590250E0,3.087629242E0,-7.351961517E0,-2.639161835E0,8.399402817E0
3.773593250E0,1.319805450E0,-6.220314789E0,-1.921703796E0,6.642826806E0
3.783596250E0,5.367837524E-1,-5.469326477E0,-6.396199036E-1,5.532701197E0
3.793600250E0,2.426454163E-1,-5.015619965E0,1.517843628E-1,5.023779346E0
3.803603250E0,1.604663086E-1,-4.325255585E0,7.958949280E-1,4.400799251E0
3.813606250E0,-4.912783813E-1,-3.803889771E0,1.295256500E0,4.048286210E0
3.823610250E0,-1.484912109E0,-3.821403351E0,1.439855804E0,4.345258598E0
3.833613250E0,-2.633623352E0,-3.522325287E0,1.727108459E0,4.725002753E0
3.843616250E0,-3.631598053E0,-2.728825378E0,1.917961578E0,4.930879129E0
3.853620250E0,-4.096830597E0,-2.069296875E0,1.638792114E0,4.873566465E0
3.863623250E0,-4.543950806E0,-2.016307068E0,1.745520172E0,5.268759227E0
3.873626250E0,-4.364923096E0,-1.987866211E0,1.717827759E0,5.094614599E0
3.883630250E0,-3.541784821E0,-1.671573944E0,1.080902252E0,4.062849843E0
3.893633250E0,-2.851420441E0,-1.758393402E0,6.060896301E-1,3.404392828E0
3.903636250E0,-2.266436920E0,-1.804347839E0,9.475296021E-2,2.898514372E0
3.913639250E0,-1.691632233E0,-1.960173798E0,-4.712200928E-1,2.631719838E0
3.923643250E0,-1.287023621E0,-2.713856506E0,-1.224004669E0,3.243398583E0
3.933645750E0,-9.922865295E-1,-3.824247437E0,-2.521356812E0,4.686869017E0
3.943648750E0,-9.604028320E-1,-5.470823364E0,-4.543501740E0,7.176049745E0
3.953652750E0,-6.987469482E-1,-7.925718384E0,-6.991511078E0,1.059181223E1
3.963655750E0,-2.754272461E-2,-1.104612946E1,-1.021281235E1,1.504391141E1
3.973658750E0,1.583107910E0,-1.513352966E1,-1.449480789E1,2.101498053E1
3.983662750E0,2.661764832E0,-2.071976303E1,-1.569097046E1,2.612661719E1
3.993665750E0,1.931433563E0,-2.595243164E1,-1.864358047E1,3.201315724E1
4.003668750E0,1.775308228E0,-2.618489822E1,-1.664418823E1,3.107779941E1
4.013672750E0,2.199226685E0,-2.108754822E1,-7.742349701E0,2.257133728E1
4.023675750E0,1.355730743E0,-1.460527817E1,-4.416416016E0,1.531851450E1
4.033678750E0,3.585044861E-1,-8.466244354E0,-6.975793762E0,1.097576957E1
4.043682750E0,1.068777466E0,-3.772305450E0,-9.103469238E0,9.911898196E0
4.053685750E0,1.468745728E0,-1.790726166E0,-8.823551331E0,9.122443329E0
4.063688750E0,1.264570312E0,-4.124822388E0,-9.041049042E0,1.001767765E1
4.073691750E0,1.631607056E-1,-8.314010925E0,-7.711962891E0,1.134124203E1
4.083695750E0,-1.729054413E0,-1.287682251E1,-3.281625824E0,1.340041996E1
4.093698750E0,-4.465364227E0,-1.653581360E1,2.750979309E0,1.734763662E1
4.103701750E0,-7.352410583E0,-1.806009384E1,6.427483978E0,2.053137797E1
4.113705750E0,-7.741451569E0,-1.772658737E1,5.196893005E0,2.002922038E1
4.123708750E0,-4.743336182E0,-1.295660660E1,-2.015408936E0,1.394398673E1
4.133711750E0,-4.670288086E0,-5.375920715E0,-2.932402039E0,7.701369752E0
4.143715750E0,-8.494086456E0,-8.421487427E-1,-4.073179779E0,9.457775253E0
4.153718750E0,-1.077444443E1,9.270222473E-1,-6.086792450E0,1.240955540E1
4.163721750E0,-6.407126312E0,-3.849993896E-1,-2.377955017E0,6.845010020E0
4.173724750E0,-2.685415649E-1,-4.692741394E0,5.724246368E0,7.406816648E0
4.183728750E0,-1.158590698E-1,-1.001806732E1,9.567803650E0,1.385344588E1
4.193731750E0,-3.601959686E0,-1.303519318E1,7.797285461E0,1.561051041E1
4.203734750E0,-4.500990143E0,-1.441711945E1,5.611680450E0,1.611220664E1
4.213738750E0,-4.189038849E0,-1.557511139E1,3.865860901E0,1.658544608E1
4.223741750E0,-2.215093689E0,-1.557166855E1,2.374661865E0,1.590668163E1
4.233744750E0,9.970765686E-1,-1.474493774E1,-8.767268372E-1,1.480459391E1
4.243748750E0,3.528462524E0,-1.396775391E1,-4.789739685E0,1.518189063E1
4.253751750E0,3.054697723E0,-1.287487656E1,-3.740421753E0,1.375079559E1
4.263754750E0,2.232756958E0,-1.125943588E1,-3.237168274E0,1.192641432E1
4.273758750E0,8.900491333E-1,-1.009710297E1,-2.936743011E0,1.055311022E1
4.283761750E0,-2.269281006E-1,-9.291927338E0,-2.016456757E0,9.510915196E0
4.293764750E0,-1.408271484E0,-8.426427155E0,-1.524579620E0,8.678262855E0
4.303767750E0,-2.252216492E0,-7.955506439E0,-9.966275024E-1,8.328014662E0
4.313771750E0,-2.626288605E0,-7.822882233E0,-5.539979553E-1,8.270537588E0
4.323774750E0,-2.499352570E0,-7.386988678E0,2.534230042E-1,7.802473211E0
4.333777750E0,-2.207908630E0,-7.089407501E0,1.430724792E0,7.561847173E0
4.343781750E0,-1.818717957E0,-7.223378906E0,1.785936127E0,7.659928569E0
4.353784750E0,-1.147214355E0,-7.067552948E0,1.494492188E0,7.314363427E0
4.363787750E0,-3.905378723E-1,-7.294031982E0,1.209035797E0,7.403863177E0
4.373791750E0,1.137634277E-1,-8.045619049E0,9.114546204E-1,8.097881052E0
4.383794750E0,6.806346130E-1,-8.803343353E0,7.206015015E-1,8.858971960E0
4.393797750E0,1.032852173E0,-8.953481140E0,4.939727783E-1,9.026384506E0
4.403801750E0,4.511618042E-1,-8.541687469E0,5.138813782E-1,8.569016622E0
4.413804750E0,-1.782792664E-1,-7.986641693E0,3.634442139E-1,7.996894443E0
4.423807750E0,-4.255650330E-1,-7.729177094E0,-2.139051819E-1,7.743838813E0
4.433810750E0,-6.135740662E-1,-7.760761414E0,-7.914042664E-1,7.825101377E0
4.443814750E0,-7.948471069E-1,-7.887697449E0,-1.473086700E0,8.063345298E0
4.453817750E0,-8.487350464E-1,-8.087082825E0,-2.206411743E0,8.425527436E0
4.463820750E0,-1.022972717E0,-8.759334869E0,-2.554587708E0,9.181412685E0
4.473824750E0,-8.226892090E-1,-9.319020996E0,-1.782942352E0,9.523647058E0
4.483827750E0,-5.418731689E-2,-9.761051788E0,-3.339555359E-1,9.766913258E0
4.493830750E0,3.432362366E-1,-1.017958145E1,6.364764404E-1,1.020523355E1
4.503834750E0,8.262817383E-2,-1.039543259E1,5.363346863E-1,1.040958697E1
4.513837750E0,-2.863545227E-1,-1.045021866E1,-6.360273743E-1,1.047347124E1
4.523840750E0,-1.010398865E-1,-1.045665527E1,-1.962119751E0,1.063963169E1
4.533844750E0,4.790039062E-1,-1.036309982E1,-2.112107849E0,1.058698646E1
4.543847750E0,1.018482056E0,-1.012105316E1,-1.313069458E0,1.025656737E1
4.553850750E0,1.668580170E0,-9.852960663E0,-7.261399841E-1,1.001959445E1
4.563853750E0,2.795885925E0,-9.563762054E0,-5.689668274E-1,9.980292881E0
4.573857750E0,4.991669769E0,-1.020667511E1,-4.986131287E-1,1.137284480E1
4.583860750E0,7.408394165E0,-1.194201645E1,9.894424438E-2,1.405367749E1
4.593863750E0,6.608307953E0,-1.403601196E1,-3.436853027E-1,1.551765077E1
4.603867750E0,3.843557281E0,-1.507994110E1,-1.716929626E0,1.565648120E1
4.613870750E0,1.226699066E0,-1.550071609E1,-2.133064270E0,1.569480657E1
4.623873750E0,-1.135688324E0,-1.550715271E1,-9.313632202E-1,1.557655323E1
4.633877750E0,-2.234253845E0,-1.514954636E1,-3.966751099E-2,1.531346527E1
4.643880750E0,-1.698517914E0,-1.433883224E1,-1.453926544E0,1.451209756E1
4.653883750E0,-1.292412415E0,-1.349608475E1,-4.856201477E0,1.440129599E1
4.663887750E0,2.543211365E-1,-1.331556015E1,-5.435047760E0,1.438431665E1
4.673890750E0,2.424059143E0,-1.307321411E1,-2.411036224E0,1.351288591E1
4.683893750E0,1.531016235E0,-1.254660919E1,-9.415420532E-2,1.264002682E1
4.693896750E0,-6.758445740E-1,-1.236368958E1,1.012943573E0,1.242351160E1
4.703900750E0,-5.258415070E0,-1.113130234E1,2.024689636E0,1.247622495E1
4.713903750E0,-7.057523804E0,-1.048973648E1,4.085753632E0,1.328670751E1
4.723906750E0,-6.445147247E0,-1.105930206E1,5.238356781E0,1.383070739E1
4.733910750E0,-6.829248505E0,-1.183918030E1,4.770429840E0,1.447625042E1
4.743913750E0,-7.721093903E0,-1.353111191E1,1.773062897E0,1.567960562E1
4.753916750E0,-6.920259247E0,-1.551508621E1,-3.846551056E0,1.741849142E1
4.763920750E0,-5.545068970E0,-1.593855560E1,-4.448150024E0,1.745197362E1
4.773923750E0,-4.787194977E0,-1.507515106E1,-1.979483643E0,1.594038176E1
4.783926750E0,-3.836222534E0,-1.459509933E1,-8.217910767E-1,1.511320179E1
4.793929750E0,-4.079616394E0,-1.465108292E1,-6.551875305E-1,1.522257440E1
4.803933750E0,-4.068240051E0,-1.458357330E1,-3.115022278E-1,1.514358680E1
4.813936750E0,-2.427651672E0,-1.438014633E1,-2.877017212E-1,1.458646199E1
4.823939750E0,-1.520238647E0,-1.349189346E1,1.345701599E-1,1.357793887E1
4.833943750E0,-1.327738953E0,-1.199500626E1,5.477110291E-1,1.208068927E1
4.843946750E0,-7.391629028E-1,-1.029379395E1,1.175206146E0,1.038699500E1
4.853949750E0,6.141728210E-1,-8.642278290E0,1.002315674E0,8.721858690E0
4.863953750E0,2.144290924E0,-7.727829895E0,-9.898915100E-1,8.080669753E0
4.873956750E0,2.036964111E0,-7.410190430E0,-1.698068848E0,7.870424563E0
4.883959750E0,1.290017395E0,-6.775061188E0,-1.072369995E0,6.979654460E0
4.893962750E0,2.887495422E-1,-5.883664856E0,-6.586303711E-1,5.927451594E0
4.903966750E0,-4.397854614E-1,-5.172793121E0,-4.671784973E-1,5.212432798E0
4.913969750E0,-2.583627319E-1,-4.641847229E0,-5.254074097E-2,4.649328718E0
4.923972750E0,1.013392639E-1,-4.464915161E0,5.575904846E-1,4.500738183E0
4.933977375E0,-5.149291992E-1,-4.044439545E0,1.225202179E0,4.257201392E0
4.943980375E0,-1.263522491E0,-3.640279999E0,1.203048248E0,4.036762644E0
4.953983375E0,-1.807491302E0,-3.241060181E0,1.091679840E0,3.868237425E0
4.963987375E0,-2.642155609E0,-2.739303589E0,9.909393311E-1,3.932776522E0
4.973990375E0,-2.976709900E0,-2.737207947E0,8.289761353E-1,4.127991110E0
4.983993375E0,-3.514242096E0,-2.968027954E0,9.075627136E-1,4.688577345E0
4.993997375E0,-3.662134552E0,-2.700234833E0,9.767189026E-1,4.653652054E0
5.004000375E0,-3.247197418E0,-2.234253845E0,1.098266144E0,4.091744107E0
5.014003375E0,-2.913541260E0,-1.993404694E0,9.563612366E-1,3.657459741E0
5.024006375E0,-2.365231476E0,-2.076032867E0,4.905299377E-1,3.185098432E0
5.034010375E0,-1.897304535E0,-2.193837891E0,-2.903961182E-1,2.914964681E0
5.044013375E0,-1.875899048E0,-2.551294556E0,-1.296304321E0,3.421769431E0
5.054016375E0,-1.664388885E0,-3.129691772E0,-2.531385956E0,4.355809432E0
5.064020375E0,-1.125659180E0,-4.019142151E0,-4.376149750E0,6.047420843E0
5.074023375E0,-8.379574585E-1,-6.196963348E0,-7.081773376E0,9.447541564E0
5.084026375E0,-3.023712158E-2,-9.646390228E0,-1.074241104E1,1.443790683E1
5.094030375E0,2.143991547E0,-1.370475082E1,-1.547257462E1,2.078021800E1
5.104033375E0,3.938908997E0,-1.952973770E1,-1.620844437E1,2.568344462E1
5.114036375E0,3.434308319E0,-2.585678055E1,-1.641860733E1,3.082106813E1
5.124039375E0,2.185754700E0,-2.779674637E1,-1.630140106E1,3.229817810E1
5.134043375E0,1.118773499E0,-2.325983093E1,-9.394464111E0,2.511030356E1
5.144046375E0,-1.887574768E-1,-1.555684937E1,-5.079237671E0,1.636611887E1
5.154049375E0,5.337899780E-1,-7.489675140E0,-8.132887573E0,1.106905713E1
5.164053375E0,1.794019318E0,-2.023791504E0,-1.006761429E1,1.042454291E1
5.174056375E0,1.917063446E0,-4.902305603E-1,-9.171577606E0,9.382605930E0
5.184059375E0,5.727090454E-1,-3.439996490E0,-8.882528687E0,9.542582846E0
5.194063375E0,-2.129471741E0,-9.038803711E0,-7.560178528E0,1.197459485E1
5.204066375E0,-5.344635773E0,-1.436427933E1,3.442840576E-1,1.533023756E1
5.214069375E0,-8.129444733E0,-1.752959702E1,6.430178375E0,2.036472040E1
5.224073375E0,-1.081141754E1,-1.901331161E1,7.532486115E0,2.313290113E1
5.234076375E0,-7.946525116E0,-1.961356339E1,5.653742981E-1,2.116976094E1
5.244079375E0,-9.045689392E-1,-1.305540115E1,-5.381010132E0,1.414980616E1
5.254082375E0,-4.416715393E0,-4.449497223E0,-1.899549866E-1,6.272278956E0
5.264086375E0,-1.043390259E1,1.023870850E-1,-3.128793640E0,1.089339965E1
5.274089375E0,-1.024634262E1,9.630972290E-1,-5.590873718E0,1.171208616E1
5.284092375E0,-3.482657776E0,-2.002386017E0,2.016905823E0,4.495148945E0
5.294096375E0,-1.558259583E-1,-6.320905609E0,9.940528564E0,1.178101174E1
5.304099375E0,-2.827021179E0,-1.008737320E1,9.818083191E0,1.435764272E1
5.314102375E0,-4.308939514E0,-1.241278748E1,6.853647766E0,1.481947166E1
5.324106375E0,-4.451443176E0,-1.464314941E1,4.997357941E0,1.610002352E1
5.334109375E0,-3.300785980E0,-1.568932388E1,3.425027618E0,1.639453830E1
5.344112375E0,-6.415658569E-1,-1.604214020E1,1.390907593E0,1.611510139E1
5.354115375E0,3.008593597E0,-1.620949219E1,-2.867437134E0,1.673384200E1
5.364119375E0,4.333787842E0,-1.561612610E1,-4.238735504E0,1.675147725E1
5.374122375E0,4.205055542E0,-1.386701340E1,-4.000580750E0,1.503267105E1
5.384125375E0,3.718118134E0,-1.167512146E1,-4.725972290E0,1.313269499E1
5.394129375E0,1.711241455E0,-1.020607635E1,-3.948339386E0,1.107617830E1
5.404132375E0,-2.094145203E-1,-9.427695007E0,-2.798879700E0,9.836616042E0
5.414135375E0,-1.217867432E0,-8.481213226E0,-1.970053253E0,8.791773922E0
5.424139375E0,-1.454824677E0,-7.623496857E0,-1.005758514E0,7.825967630E0
5.434142375E0,-1.603166199E0,-6.894363098E0,1.642085266E-1,7.080208248E0
5.444145375E0,-1.642833710E0,-6.313720551E0,1.583706665E0,6.713426591E0
5.454148375E0,-1.591939545E0,-6.164929962E0,2.563569031E0,6.863855996E0
5.464152375E0,-1.771566010E0,-6.362818451E0,2.417173462E0,7.033251902E0
5.474155375E0,-1.793420563E0,-6.813231812E0,1.497635651E0,7.202735423E0
5.484158375E0,-1.127156067E0,-7.629334717E0,1.016536102E0,7.778854329E0
5.494162375E0,-9.069639587E-1,-8.392747192E0,6.412664795E-1,8.465932421E0
5.504165375E0,-5.593867493E-1,-8.871002655E0,3.517684937E-1,8.895579954E0
5.514168375E0,-4.698728943E-1,-9.039103088E0,1.026864624E-1,9.051889841E0
5.524172375E0,-3.004252625E-1,-8.614436188E0,-1.148112488E-1,8.620437796E0
5.534175375E0,-3.028202820E-1,-8.136929169E0,-4.376898193E-1,8.154317188E0
5.544178375E0,-6.878196716E-1,-7.890990601E0,-1.086141357E0,7.995031683E0
5.554181375E0,-8.300239563E-1,-8.009095001E0,-1.715582428E0,8.232725282E0
5.564185375E0,-1.090781708E0,-8.393495636E0,-1.983225861E0,8.693316889E0
5.574188375E0,-8.379574585E-1,-8.124505005E0,-1.915267181E0,8.389159830E0
5.584191375E0,-4.001179504E-1,-8.221652985E0,-1.322948914E0,8.337017812E0
5.594195375E0,4.830455017E-1,-8.725505219E0,-8.750802612E-1,8.782570224E0
5.604198375E0,1.027164001E0,-9.424701233E0,-2.523751831E-1,9.483868011E0
5.614201375E0,9.699829102E-1,-1.014036301E1,1.175056458E-1,1.018732724E1
5.624205375E0,6.785389709E-1,-1.075184143E1,-3.562591553E-1,1.077912009E1
5.634208375E0,3.519181824E-1,-1.081785416E1,-1.211879883E0,1.089121058E1
5.644211375E0,-4.251159668E-2,-1.034004776E1,-1.686692505E0,1.047679944E1
5.654214375E0,-1.148112488E-1,-9.777667236E0,-1.622925110E0,9.912105938E0
5.664218375E0,8.801696777E-1,-9.231752472E0,-1.339714050E0,9.369887198E0
5.674221375E0,2.722688141E0,-9.053473206E0,-1.120120697E0,9.520140659E0
5.684224375E0,5.731132050E0,-1.036250107E1,-1.501377869E-1,1.184271271E1
5.694228375E0,7.668104095E0,-1.261097534E1,6.831793213E-1,1.477508895E1
5.704231375E0,6.620732117E0,-1.460303284E1,-1.205443268E0,1.607904709E1
5.714234375E0,3.498824158E0,-1.583826416E1,-3.563190308E0,1.660688734E1
5.724238375E0,6.218069458E-1,-1.586745346E1,-3.141068115E0,1.618731084E1
5.734241375E0,-1.612297211E0,-1.519325546E1,-8.481362915E-1,1.530208643E1
5.744244375E0,-1.650767212E0,-1.474089615E1,-1.778302002E-1,1.483410514E1
5.754247375E0,-2.158661041E0,-1.437266190E1,-3.470233612E0,1.494241442E1
5.764251375E0,-1.573527832E0,-1.424437866E1,-6.819369049E0,1.587079417E1
5.774254375E0,1.338366852E0,-1.364996475E1,-3.955075378E0,1.427429104E1
5.784257375E0,2.051184540E0,-1.283910095E1,-8.098159790E-1,1.302711300E1
5.794261375E0,3.592529297E-1,-1.279299683E1,8.638536072E-1,1.282716155E1
5.804264375E0,-4.703369293E0,-1.225830872E1,2.825673981E0,1.343027359E1
5.814267375E0,-7.536527710E0,-1.107801315E1,4.847519531E0,1.424851118E1
5.824271375E0,-6.415508881E0,-1.160461807E1,6.071374512E0,1.458380963E1
5.834274375E0,-6.537804565E0,-1.260992752E1,5.465434570E0,1.521920286E1
5.844277375E0,-7.952512665E0,-1.396191605E1,2.110461273E0,1.620591263E1
5.854280375E0,-8.007747803E0,-1.629631165E1,-4.779411163E0,1.877595721E1
5.864284375E0,-7.044500885E0,-1.730087265E1,-5.279371490E0,1.941177350E1
5.874287375E0,-6.268215179E0,-1.599753296E1,-1.638043671E0,1.725962831E1
5.884290375E0,-5.038073273E0,-1.507634857E1,-9.656419373E-1,1.592516665E1
5.894294375E0,-4.337679749E0,-1.483804413E1,-1.100212097E0,1.549817685E1
5.904297375E0,-3.345542908E0,-1.491214005E1,-9.681866455E-1,1.531345694E1
5.914300375E0,-2.463726654E0,-1.410980850E1,-5.179229736E-1,1.433265116E1
5.924304375E0,-6.921606445E-1,-1.266007324E1,4.258644104E-1,1.268613027E1
5.934307250E0,-3.671864319E-1,-1.122141495E1,1.704056396E0,1.135600227E1
5.944310250E0,6.677613831E-1,-9.596394196E0,1.609602814E0,9.753333176E0
5.954313250E0,1.849104767E0,-8.580007782E0,4.391867065E-1,8.787980823E0
5.964317250E0,2.676434326E0,-8.164022827E0,-8.535250854E-1,8.633833129E0
5.974320250E0,2.257754974E0,-7.468119965E0,-1.193767548E0,7.892740607E0
5.984323250E0,1.603764954E0,-6.305337982E0,-1.343306580E0,6.643329110E0
5.994327250E0,9.952803040E-1,-5.455854492E0,-8.792715454E-1,5.615162471E0
6.004330250E0,8.170010376E-1,-5.073399811E0,-1.429527283E-1,5.140750122E0
6.014333250E0,6.578819275E-1,-4.536466370E0,3.004252625E-1,4.593755663E0
6.024337250E0,3.727249146E-2,-3.929777985E0,4.614903259E-1,3.956958121E0
6.034340250E0,-3.815565491E-1,-3.495231628E0,8.586145020E-1,3.619316013E0
6.044343250E0,-1.071022797E0,-3.249293060E0,1.373992767E0,3.686848430E0
6.054346250E0,-2.404150543E0,-2.667303314E0,1.658251648E0,3.955280689E0
6.064350250E0,-3.213517456E0,-2.408042450E0,1.316063232E0,4.225799961E0
6.074353250E0,-3.611839142E0,-2.062111816E0,9.924362183E-1,4.275817674E0
6.084356250E0,-3.768114166E0,-1.857038269E0,1.254391479E0,4.384150258E0
6.094360250E0,-3.665427704E0,-1.682201843E0,1.685345306E0,4.370989830E0
6.104363250E0,-3.261118469E0,-1.436113586E0,1.727108459E0,3.959825695E0
6.114366250E0,-2.548749847E0,-1.240769806E0,1.534309387E0,3.223312084E0
6.124369250E0,-1.999841309E0,-1.183588715E0,8.863069153E-1,2.487124334E0
6.134373250E0,-1.833088074E0,-1.668879547E0,-8.607101440E-2,2.480479600E0
6.144376250E0,-1.590442657E0,-2.580633545E0,-1.265019379E0,3.284730030E0
6.154379250E0,-1.296004944E0,-3.804638214E0,-3.114573212E0,5.084827140E0
6.164383250E0,-9.467811584E-1,-5.840255127E0,-5.833219757E0,8.308515345E0
6.174386250E0,-1.092727661E-2,-8.769962769E0,-9.147926788E0,1.267268444E1
6.184389250E0,1.328786774E0,-1.256846375E1,-1.342498260E1,1.843806153E1
6.194393250E0,3.402723999E0,-1.764695297E1,-1.623733429E1,2.422074534E1
6.204396250E0,3.353775787E0,-2.368434814E1,-1.607851456E1,2.882212326E1
6.214399250E0,1.822011108E0,-2.721535538E1,-1.883727768E1,3.314873034E1
6.224402250E0,1.462309113E0,-2.462469269E1,-1.302935532E1,2.789763319E1
6.234406250E0,8.852590942E-1,-1.851424942E1,-5.274132385E0,1.927115948E1
6.244409250E0,3.558100891E-1,-1.123353973E1,-5.370382233E0,1.245632454E1
6.254412250E0,8.072712708E-1,-5.223088531E0,-8.616232452E0,1.010800685E1
6.264416250E0,9.452842712E-1,-2.564916229E0,-8.562344513E0,8.988108876E0
6.274419250E0,4.156855774E-1,-3.852987671E0,-7.608378296E0,8.538485157E0
6.284422250E0,-1.753303986E0,-7.722740479E0,-7.513625336E0,1.091647201E1
6.294425250E0,-5.744604034E0,-1.254301666E1,-4.988376617E0,1.467009352E1
6.304429250E0,-8.618477783E0,-1.707065140E1,-8.523275757E-1,1.914188498E1
6.314432250E0,-9.926607513E0,-1.945309708E1,2.730921021E0,2.200950822E1
6.324435250E0,-8.868607635E0,-1.934277649E1,4.954696655E0,2.184820868E1
6.334439250E0,-2.926115112E0,-1.443852493E1,-6.349795532E-1,1.474572314E1
6.344442250E0,-2.578537903E0,-5.417085114E0,-1.816023560E0,6.268302036E0
6.354445250E0,-8.062833252E0,2.918930054E-2,-4.767585754E-1,8.076969159E0
6.364449250E0,-1.062954575E1,1.787582703E0,-3.749403076E0,1.141230556E1
6.374452250E0,-6.967261505E0,1.168470154E0,-3.955973511E0,8.096776013E0
6.384455250E0,-1.836680603E-1,-3.200943604E0,3.804937592E0,4.975673219E0
6.394458250E0,1.412612457E0,-9.347162476E0,9.840686188E0,1.364565956E1
6.404462250E0,-2.517165527E0,-1.267608994E1,8.708889771E0,1.558409893E1
6.414465250E0,-4.090393982E0,-1.396940048E1,6.182144165E0,1.581437255E1
6.424468250E0,-3.364553375E0,-1.570249649E1,4.366719360E0,1.664202071E1
6.434472250E0,-1.858535156E0,-1.658027115E1,2.569107513E0,1.688075406E1
6.444475250E0,1.204395447E0,-1.597597778E1,-1.967508545E0,1.614167043E1
6.454478250E0,3.216660919E0,-1.494896347E1,-5.666167145E0,1.630717224E1
6.464482250E0,3.423381042E0,-1.373678421E1,-4.319866791E0,1.480135221E1
6.474485250E0,3.226839752E0,-1.186612427E1,-3.984713745E0,1.292653641E1
6.484488250E0,1.501976624E0,-1.043210632E1,-3.150049438E0,1.100034488E1
6.494491250E0,2.083666992E-1,-9.493258667E0,-2.039059753E0,9.712010167E0
6.504495250E0,-8.933422852E-1,-8.516839142E0,-1.456920319E0,8.686611895E0
6.514498250E0,-1.958676910E0,-7.776029663E0,-1.251697083E0,8.116021079E0
6.524501250E0,-2.177671509E0,-7.190896454E0,-8.780740356E-1,7.564539578E0
6.534505250E0,-2.123933258E0,-6.636898499E0,1.170565796E-1,6.969448788E0
6.544508250E0,-2.015259247E0,-6.547534332E0,1.120869141E0,6.941744975E0
6.554511250E0,-1.734592896E0,-6.623725891E0,1.654060364E0,7.044038109E0
6.564514250E0,-1.830393677E0,-6.824009399E0,1.399739227E0,7.202549215E0
6.574518250E0,-1.340312805E0,-7.264094238E0,1.415007477E0,7.521020521E0
6.584521250E0,-5.816903687E-1,-8.101153564E0,1.372046814E0,8.237084752E0
6.594524250E0,-2.709365845E-2,-8.690178680E0,8.372090149E-1,8.730455801E0
6.604528250E0,-1.763333130E-1,-8.744365997E0,2.832110596E-1,8.750727892E0
6.614531250E0,-3.932322693E-1,-8.350385284E0,1.468446350E-1,8.360928738E0
6.624534250E0,-5.719606018E-1,-7.985893250E0,-1.230441284E-1,8.007294785E0
6.634537250E0,-5.324427795E-1,-7.826474762E0,-6.307882690E-1,7.869885409E0
6.644541250E0,-6.559359741E-1,-7.960745544E0,-1.197060699E0,8.076922430E0
6.654544250E0,-7.521858215E-1,-7.970026245E0,-1.746567993E0,8.193753817E0
6.664547250E0,-8.973838806E-1,-8.149802399E0,-2.546654205E0,8.585454246E0
6.674551250E0,-1.037342834E0,-8.718769226E0,-2.593057709E0,9.155160580E0
6.684554250E0,-1.383123779E-1,-8.699309692E0,-1.288071442E0,8.795240047E0
6.694557250E0,7.312294006E-1,-9.273815002E0,1.395098877E-1,9.303644670E0
6.704561250E0,7.587721252E-1,-1.027493317E1,7.899073792E-1,1.033314765E1
6.714564250E0,2.148033142E-1,-1.125793900E1,6.330335999E-1,1.127776850E1
6.724567250E0,-2.751278687E-1,-1.152902527E1,-8.726852417E-1,1.156527987E1
6.734570250E0,-3.573069763E-1,-1.093221634E1,-2.650089111E0,1.125450997E1
6.744574250E0,-1.517843628E-1,-1.031145721E1,-2.908601532E0,1.071490323E1
6.754577250E0,1.508862305E-1,-1.001552261E1,-1.621278534E0,1.014701946E1
6.764580250E0,1.028960266E0,-9.682764587E0,-3.061134338E-1,9.742093960E0
6.774584250E0,3.082390137E0,-9.454788666E0,2.213896179E-1,9.947018198E0
6.784587250E0,6.548133087E0,-1.042447220E1,6.117778015E-1,1.232566183E1
6.794590250E0,8.941356354E0,-1.256307495E1,4.519102478E-1,1.542669532E1
6.804593250E0,7.738158417E0,-1.457668762E1,-9.587562561E-1,1.653112613E1
6.814597250E0,4.442312164E0,-1.541210037E1,-1.698966980E0,1.612927351E1
6.824600250E0,7.771838379E-1,-1.577524521E1,-1.414708099E0,1.585760938E1
6.834603250E0,-1.811233521E0,-1.544907349E1,3.308120728E-2,1.555491989E1
6.844607250E0,-3.412902832E0,-1.489268051E1,1.571731567E-1,1.527954652E1
6.854610250E0,-3.377127228E0,-1.402328842E1,-4.001927948E0,1.496906924E1
6.864613250E0,-2.196681976E0,-1.352871689E1,-6.048771515E0,1.498129598E1
6.874617250E0,4.981640625E-1,-1.366822678E1,-3.980223083E0,1.424467502E1
6.884620250E0,1.313518524E0,-1.319057007E1,-1.728455658E0,1.336802261E1
6.894623250E0,5.544470215E-1,-1.255124954E1,-2.743794250E-1,1.256648561E1
6.904626250E0,-2.252066803E0,-1.169907166E1,5.602848816E-1,1.192702820E1
6.914630250E0,-6.020929413E0,-1.036429733E1,3.018173676E0,1.236040544E1
6.924633250E0,-6.134692841E0,-1.034573593E1,5.666316833E0,1.329570813E1
6.934636417E0,-5.686375122E0,-1.078492264E1,6.427483978E0,1.378266914E1
6.944640417E0,-5.939199371E0,-1.187091431E1,4.873715057E0,1.414021903E1
6.954643417E0,-6.331533508E0,-1.418869446E1,-1.360670471E0,1.559675579E1
6.964646417E0,-5.657335510E0,-1.624451935E1,-6.581363983E0,1.841749727E1
6.974649417E0,-5.051096191E0,-1.649884048E1,-3.589086456E0,1.762404187E1
6.984653417E0,-4.484374695E0,-1.550266205E1,-1.116827545E0,1.617681831E1
6.994656417E0,-3.943549347E0,-1.491169098E1,-7.363188171E-1,1.544189997E1
7.004659417E0,-4.245621185E0,-1.521975037E1,-1.105750580E0,1.583946921E1
7.014663417E0,-4.578229523E0,-1.521735535E1,-1.071471863E0,1.592721386E1
7.024666417E0,-3.653602295E0,-1.424273209E1,-5.111869812E-1,1.471276790E1
7.034669417E0,-1.890418854E0,-1.282458115E1,5.620811462E-1,1.297534201E1
7.044672417E0,-1.279389496E0,-1.134475845E1,5.911207581E-1,1.143196421E1
7.054676417E0,-2.179467773E-1,-9.289981384E0,4.029620361E-1,9.301270522E0
7.064679417E0,1.695673828E0,-7.926017761E0,6.481521606E-2,8.105631887E0
7.074682417E0,2.371368713E0,-7.834258575E0,-6.797364807E-1,8.213466910E0
7.084686417E0,2.728076935E0,-7.357350311E0,-1.519789581E0,7.992669625E0
7.094689417E0,2.483485565E0,-6.761888580E0,-1.180145874E0,7.299560398E0
7.104692417E0,5.674699402E-1,-5.957162018E0,-4.516108704E-1,6.001146042E0
7.114695417E0,-7.765850830E-1,-4.867428131E0,2.312690735E-1,4.934412466E0
7.124699417E0,-4.073030090E-1,-4.020189972E0,8.562194824E-1,4.130488464E0
7.134702417E0,-4.137396240E-1,-3.746259613E0,1.210832062E0,3.958756856E0
7.144705417E0,-9.282197571E-1,-3.732488251E0,1.319206696E0,4.066124293E0
7.154709417E0,-1.382225647E0,-2.951412506E0,1.505419464E0,3.589940290E0
7.164712417E0,-2.447709961E0,-2.253114624E0,1.228495331E0,3.546408090E0
7.174715417E0,-3.357368317E0,-1.684896240E0,1.189875641E0,3.940380869E0
7.184718417E0,-3.755839691E0,-1.209484863E0,1.362017670E0,4.174239757E0
7.194722417E0,-3.852837982E0,-9.852511597E-1,1.274898834E0,4.176176170E0
7.204725417E0,-3.620371399E0,-1.041384430E0,1.464255066E0,4.041733971E0
7.214728417E0,-3.241808624E0,-1.004710693E0,1.231040039E0,3.610294491E0
7.224732417E0,-2.885250092E0,-8.857081604E-1,8.062234497E-1,3.123962754E0
7.234735417E0,-2.618055725E0,-1.243613892E0,1.341210938E-1,2.901513357E0
7.244738417E0,-2.430346069E0,-2.162852325E0,-1.002914429E0,3.404460244E0
7.254742417E0,-1.968556366E0,-3.443589020E0,-2.313439178E0,4.591897248E0
7.264745417E0,-1.529369659E0,-4.924309845E0,-3.878434753E0,6.452135704E0
7.274748417E0,-1.011895752E0,-6.914122009E0,-6.796915741E0,9.748183408E0
7.284751417E0,3.595523071E-1,-1.002435425E1,-1.083446960E1,1.476491407E1
7.294755417E0,2.620450745E0,-1.433419189E1,-1.539578430E1,2.119825450E1
7.304758417E0,5.195396118E0,-2.006756927E1,-1.631352585E1,2.637860123E1
7.314761417E0,3.592379608E0,-2.619747208E1,-1.639675278E1,3.111376281E1
7.324765417E0,1.783241730E0,-2.746997589E1,-1.669014267E1,3.219224113E1
7.334768417E0,2.634521484E-2,-2.301449112E1,-1.072070618E1,2.538899440E1
7.344771417E0,-1.116079102E0,-1.569935303E1,-6.398594055E0,1.698991830E1
7.354774417E0,1.309776306E-1,-8.398734741E0,-8.066425781E0,1.164573421E1
7.364778417E0,6.759942627E-1,-3.618126068E0,-9.004524994E0,9.727757956E0
7.374781417E0,-2.652484131E-1,-1.317260742E0,-8.283175049E0,8.391455266E0
7.384784417E0,-2.210004272E0,-3.161276093E0,-8.985364838E0,9.778270127E0
7.394788417E0,-3.896996155E0,-7.749834137E0,-9.091793518E0,1.256611386E1
7.404791417E0,-5.596262512E0,-1.300001633E1,-6.146518250E0,1.543043309E1
7.414794417E0,-6.256240082E0,-1.698637665E1,-8.592132568E-2,1.810206933E1
7.424797417E0,-7.124284973E0,-1.835557938E1,6.869215393E0,2.085350931E1
7.434801417E0,-7.904462585E0,-1.727168335E1,7.752827911E0,2.051579672E1
7.444804417E0,-3.628903656E0,-1.266920425E1,3.858975220E-1,1.318433142E1
7.454807417E0,-3.553310852E0,-6.143973541E0,7.021897888E-1,7.132145497E0
7.464811417E0,-7.424859924E0,-2.416574707E0,-2.543211365E0,8.211960926E0
7.474814417E0,-8.744216309E0,-9.493258667E-1,-5.245392151E0,1.024093146E1
7.484817417E0,-4.529880066E0,-2.359992371E0,-9.181906128E-1,5.189648485E0
7.494820417E0,1.025367737E-1,-6.479875031E0,6.714736633E0,9.332040627E0
7.504824417E0,-1.468596039E0,-1.035621414E1,9.204958191E0,1.393338440E1
7.514827417E0,-4.452191620E0,-1.193288544E1,7.183561707E0,1.462256215E1
7.524830417E0,-5.145100708E0,-1.337753128E1,4.814887390E0,1.511997173E1
7.534834417E0,-3.783232727E0,-1.451411774E1,3.265309753E0,1.535039776E1
7.544837417E0,-1.391805725E0,-1.485316269E1,1.711540833E0,1.501608927E1
7.554840417E0,2.281405792E0,-1.485540802E1,-1.246757355E0,1.508119238E1
7.564843417E0,4.744234314E0,-1.448522781E1,-3.682192841E0,1.568082039E1
7.574847417E0,4.837191010E0,-1.381237701E1,-3.701352997E0,1.509570103E1
7.584850417E0,4.235741730E0,-1.205218735E1,-4.014801178E0,1.339086839E1
7.594853417E0,2.670147400E0,-1.030741562E1,-3.970044250E0,1.136370341E1
7.604857417E0,1.147813110E0,-9.358688507E0,-3.512894897E0,1.006195588E1
7.614860417E0,-1.302291870E-1,-8.677305450E0,-2.941832428E0,9.163349145E0
7.624863417E0,-1.002165985E0,-7.970774689E0,-2.058219910E0,8.293000362E0
7.634866417E0,-1.356179810E0,-7.301666107E0,-8.598120117E-1,7.476150635E0
7.644870417E0,-1.138083344E0,-6.593638458E0,3.701802063E-1,6.701368159E0
7.654873417E0,-1.015937347E0,-6.089337158E0,1.215622101E0,6.292049969E0
7.664876417E0,-1.631457367E0,-6.108497314E0,1.654210052E0,6.535426802E0
7.674880417E0,-2.004331970E0,-6.479725342E0,1.378184052E0,6.921241105E0
7.684883417E0,-1.734443207E0,-6.908134460E0,6.735992432E-1,7.154323930E0
7.694886417E0,-1.294208679E0,-7.547155609E0,5.852828979E-2,7.657542651E0
7.704889417E0,-1.062789917E0,-8.004005585E0,2.769241333E-2,8.074304594E0
7.714893417E0,-9.550140381E-1,-8.190517731E0,4.640350342E-2,8.246137629E0
7.724896417E0,-7.273374939E-1,-8.014334106E0,1.624122620E-1,8.048909786E0
7.734899417E0,-6.596781921E-1,-7.896978149E0,-2.454895020E-2,7.924521554E0
7.744903417E0,-7.074288940E-1,-7.929759979E0,-4.731660461E-1,7.975301566E0
7.754906417E0,-7.020401001E-1,-8.264463959E0,-1.203347626E0,8.381066181E0
7.764909417E0,-8.436456299E-1,-8.630153503E0,-1.958976288E0,8.889818645E0
7.774912417E0,-5.822891235E-1,-8.680149536E0,-3.083437958E0,9.229932082E0
7.784916417E0,-9.056167603E-2,-8.857530670E0,-3.292253723E0,9.450025691E0
7.794919417E0,6.201603699E-1,-9.057514801E0,-1.537452850E0,9.207982109E0
7.804922417E0,1.333127747E0,-9.581575012E0,3.632945251E-1,9.680691722E0
7.814926417E0,1.278790741E0,-1.041638901E1,1.127305756E0,1.055496490E1
7.824929417E0,6.979985046E-1,-1.105376358E1,7.854167175E-1,1.110359269E1
7.834932417E0,-3.996688843E-2,-1.098864899E1,-6.249504089E-1,1.100647841E1
7.844935417E0,-4.305047607E-1,-1.032627640E1,-2.304607544E0,1.058907619E1
7.854939417E0,-3.903881836E-1,-9.822424164E0,-2.682870941E0,1.018971128E1
7.864942417E0,2.031275940E-1,-9.516909485E0,-1.491648102E0,9.635239542E0
7.874945417E0,1.647174683E0,-9.227261810E0,-4.855902100E-1,9.385698845E0
7.884949417E0,4.387975159E0,-9.845476227E0,-4.445755005E-2,1.077913283E1
7.894952417E0,7.669451294E0,-1.157797348E1,-8.367599487E-2,1.388801479E1
7.904955417E0,7.394024048E0,-1.390009460E1,-9.849517822E-1,1.577511812E1
7.914958417E0,5.413492584E0,-1.523172546E1,-1.823208618E0,1.626761975E1
7.924962417E0,2.625540161E0,-1.554113205E1,-1.505269775E0,1.583306930E1
7.934965375E0,-1.556313629E0,-1.526540543E1,1.725910950E-1,1.534550431E1
7.944968375E0,-2.891686707E0,-1.509371246E1,-2.246827698E-1,1.536985655E1
7.954972375E0,-3.687132568E0,-1.457968140E1,-4.868326263E0,1.580704453E1
7.964975375E0,-2.273172913E0,-1.407538010E1,-8.322243805E0,1.650888797E1
7.974978375E0,1.484762421E0,-1.420995026E1,-4.893174591E0,1.510199865E1
7.984981375E0,2.829116821E0,-1.362990646E1,-1.087338867E0,1.396282772E1
7.994985375E0,2.038760376E0,-1.264764908E1,1.637893982E0,1.291519523E1
8.004988375E0,-2.740052032E0,-1.186941742E1,4.045936432E0,1.283590887E1
8.014991375E0,-6.917115784E0,-1.161150375E1,5.326673126E0,1.452745528E1
8.024995375E0,-7.100035400E0,-1.213616272E1,6.145620117E0,1.534488823E1
8.034998375E0,-7.243437195E0,-1.302905594E1,5.322332153E0,1.582879972E1
8.045001375E0,-8.181536407E0,-1.433314407E1,1.214274902E0,1.654844466E1
8.055005375E0,-7.644153900E0,-1.581416428E1,-5.552852783E0,1.842159208E1
8.065008375E0,-6.345753937E0,-1.652159317E1,-5.361999664E0,1.849277357E1
8.075011375E0,-5.981411591E0,-1.594154938E1,-1.915865936E0,1.713420040E1
8.085014375E0,-4.552932129E0,-1.458791428E1,-9.113049316E-1,1.530904669E1
8.095018375E0,-3.941154327E0,-1.426428726E1,-1.355880432E0,1.486072005E1
8.105021375E0,-4.203558655E0,-1.433778442E1,-1.598076782E0,1.502650382E1
8.115024375E0,-2.906356201E0,-1.339758957E1,-1.240021362E0,1.376517220E1
8.125027375E0,-1.973496094E0,-1.241398499E1,2.335144043E-1,1.257204196E1
8.135031375E0,-1.319655762E0,-1.155941208E1,9.680369568E-1,1.167469890E1
8.145034375E0,-2.173480225E-1,-1.010279114E1,7.375163269E-1,1.013200668E1
8.155037375E0,8.214916992E-1,-8.960067444E0,4.376898193E-1,9.008286718E0
8.165041375E0,1.548529816E0,-8.338859253E0,-6.354286194E-1,8.505191812E0
8.175044375E0,2.206112366E0,-7.478598175E0,-1.493444366E0,7.938938122E0
8.185047375E0,1.880689087E0,-6.668632507E0,-1.512604523E0,7.091940736E0
8.195050375E0,6.231541443E-1,-5.600603485E0,-7.981402588E-1,5.691406536E0
8.205054375E0,-1.279838562E-1,-4.644242249E0,-2.131567383E-1,4.650892573E0
8.215057375E0,-2.612068176E-1,-4.103117523E0,2.974314880E-1,4.122167864E0
8.225060375E0,4.909790039E-2,-3.722010040E0,9.276210022E-1,3.836176491E0
8.235064375E0,-2.188449097E-1,-3.470233612E0,1.084794159E0,3.642415790E0
8.245067375E0,-6.075865173E-1,-3.362308044E0,9.602531433E-1,3.549135509E0
8.255070375E0,-1.405427399E0,-3.178939362E0,1.433568878E0,3.759787410E0
8.265073375E0,-2.717898102E0,-2.182760925E0,1.345851288E0,3.736673793E0
8.275077375E0,-3.917353821E0,-1.335073700E0,1.202150116E0,4.309669087E0
8.285080375E0,-4.111649780E0,-8.767268372E-1,1.458566895E0,4.449913623E0
8.295083375E0,-3.809278564E0,-9.783654785E-1,1.410816193E0,4.178301631E0
8.305087375E0,-3.297642517E0,-1.161135406E0,1.100511475E0,3.665215834E0
8.315090375E0,-2.897524567E0,-1.480421448E0,1.159189453E0,3.454130349E0
8.325093375E0,-2.464325409E0,-1.737736359E0,5.300477600E-1,3.061629958E0
8.335096375E0,-1.943558350E0,-2.342179413E0,-4.158352661E-1,3.071830469E0
8.345100375E0,-1.554966431E0,-3.516188049E0,-1.308429108E0,4.061217272E0
8.355103375E0,-1.494941254E0,-4.943170624E0,-2.890938263E0,5.918387382E0
8.365106375E0,-1.510658569E0,-6.912625122E0,-5.660029907E0,9.061038238E0
8.375110375E0,-1.013392639E0,-9.681417389E0,-8.978030090E0,1.324242544E1
8.385113375E0,6.083349609E-1,-1.341405533E1,-1.346330292E1,1.901492775E1
8.395116375E0,3.433859253E0,-1.864612518E1,-1.677351929E1,2.531442915E1
8.405119375E0,2.950664062E0,-2.458337860E1,-1.654180115E1,2.977717426E1
8.415123375E0,1.799408112E0,-2.645942734E1,-1.858265717E1,3.238293242E1
8.425126375E0,1.776954803E0,-2.206651245E1,-1.219499039E1,2.527461831E1
8.435129375E0,5.167254639E-1,-1.610770386E1,-5.455106049E0,1.701420908E1
8.445133375E0,4.920268250E-1,-1.044138702E1,-6.057004395E0,1.208105772E1
8.455136375E0,5.014572144E-1,-6.410868530E0,-8.705596619E0,1.082303595E1
8.465139375E0,-2.414479065E-1,-3.674409027E0,-8.644373932E0,9.395998056E0
8.475142375E0,-5.939648438E-1,-3.091970215E0,-8.041427765E0,8.635834328E0
8.485146375E0,-1.416504364E0,-5.442681885E0,-7.576344910E0,9.435585456E0
8.495149375E0,-3.433559875E0,-9.149273987E0,-6.337820435E0,1.164759700E1
8.505152375E0,-5.393434296E0,-1.385608612E1,-3.645668793E0,1.530918538E1
8.515156375E0,-6.473139038E0,-1.851260284E1,1.109941864E0,1.964306402E1
8.525159375E0,-7.000342712E0,-1.967807922E1,7.957901459E0,2.235083434E1
8.535162375E0,-5.541626129E0,-1.786924072E1,6.696923676E0,1.987129012E1
8.545165375E0,-2.356549530E0,-1.164757874E1,-1.127006378E0,1.193689907E1
8.555169375E0,-4.768034821E0,-4.583019562E0,-8.982820129E-1,6.674214181E0
8.565172375E0,-8.476572876E0,-2.755769348E-1,-4.503684540E0,9.602676960E0
8.575175375E0,-9.868677979E0,1.465302887E0,-6.850653992E0,1.210245338E1
8.585179375E0,-5.245841217E0,-5.071453857E-1,-1.608554993E0,5.510308129E0
8.595182375E0,-8.190966797E-1,-5.183870087E0,7.443870392E0,9.107943503E0
8.605185375E0,-2.165247345E0,-9.899064789E0,9.638007660E0,1.398466916E1
8.615188375E0,-4.585414581E0,-1.232072891E1,6.817572784E0,1.480897317E1
8.625192375E0,-4.967569885E0,-1.453043381E1,5.237009583E0,1.622456553E1
8.635195375E0,-3.839665375E0,-1.600786148E1,3.797752533E0,1.689430625E1
8.645198375E0,-1.676064606E0,-1.627760056E1,2.998265076E0,1.663607724E1
8.655202375E0,1.140178986E0,-1.559651688E1,2.107168121E0,1.577946464E1
8.665205375E0,4.301155701E0,-1.510583725E1,-3.847000122E0,1.617051852E1
8.675208375E0,6.237528992E0,-1.422686508E1,-6.890770569E0,1.699391588E1
8.685211375E0,4.954546967E0,-1.188139252E1,-4.248764648E0,1.355606967E1
8.695215375E0,3.548520813E0,-9.830207977E0,-5.472769318E0,1.179729600E1
8.705218375E0,1.595232697E0,-9.094188538E0,-5.650300140E0,1.082473668E1
8.715221375E0,-2.604583740E-1,-8.856632538E0,-3.608096924E0,9.566929596E0
8.725225375E0,-1.128353577E0,-8.202193451E0,-1.774559784E0,8.467480241E0
8.735228375E0,-1.281634827E0,-7.222480774E0,-1.492396545E-1,7.336830980E0
8.745231375E0,-1.452130280E0,-6.341113586E0,1.250798950E0,6.624417097E0
8.755234375E0,-1.571881256E0,-5.892197113E0,2.247875519E0,6.499364727E0
8.765238375E0,-1.473386078E0,-5.986650696E0,2.446662140E0,6.633024100E0
8.775241375E0,-1.712588654E0,-6.616540833E0,1.784289551E0,7.063657812E0
8.785244375E0,-1.534608765E0,-7.025191040E0,7.758366394E-1,7.232582920E0
8.795247375E0,-1.087338867E0,-7.283404083E0,1.480421448E-1,7.365609094E0
8.805251375E0,-8.156538391E-1,-7.923772430E0,-1.513352966E-1,7.967079960E0
8.815254375E0,-5.378315735E-1,-8.120912476E0,8.876541138E-2,8.139186786E0
8.825257375E0,-7.798782349E-1,-7.965984650E0,5.755531311E-1,8.024735691E0
8.835261375E0,-9.985734558E-1,-8.065527649E0,2.787203979E-1,8.131886021E0
8.845264375E0,-1.281335449E0,-7.962990875E0,-3.303630066E-1,8.072185821E0
8.855267375E0,-1.432521057E0,-7.667056274E0,-1.452429657E0,7.933814997E0
8.865270375E0,-1.588646393E0,-7.901618500E0,-2.897225189E0,8.564653296E0
8.875274375E0,-1.272204437E0,-8.585396576E0,-3.510948944E0,9.362387569E0
8.885277375E0,-5.655239868E-1,-9.382189636E0,-2.452050934E0,9.713797071E0
8.895280375E0,-1.565744019E-1,-1.002854553E1,-4.778063965E-1,1.004114236E1
8.905284375E0,-2.293231201E-1,-1.070977890E1,7.481442261E-1,1.073832729E1
8.915287375E0,-7.014413452E-1,-1.111573471E1,7.806266785E-1,1.116516709E1
8.925290375E0,-1.351988525E0,-1.107906097E1,1.438508606E-1,1.116217533E1
8.935293125E0,-1.536405029E0,-1.080243622E1,-7.282356262E-1,1.093542390E1
8.945297125E0,-1.153351593E0,-1.046878006E1,-1.329235840E0,1.061566973E1
8.955300125E0,-3.067121887E-1,-1.024754013E1,-1.405726776E0,1.034805387E1
8.965303125E0,1.109642487E0,-1.000983444E1,-1.119521942E0,1.013318417E1
8.975307125E0,3.021317139E0,-9.970166931E0,-7.848179626E-1,1.044741715E1
8.985310125E0,6.278244324E0,-1.084749252E1,-3.441343689E-1,1.253805704E1
8.995313125E0,8.920699310E0,-1.263402740E1,-1.453477478E-1,1.546669488E1
9.005316125E0,7.937992859E0,-1.424527679E1,-1.060394897E0,1.634209530E1
9.015320125E0,4.914131012E0,-1.496318390E1,-2.426304474E0,1.593525994E1
9.025323125E0,1.363813934E0,-1.516017426E1,-2.852917328E0,1.548644598E1
9.035326125E0,-1.044976959E0,-1.529624130E1,-1.308429108E0,1.538762365E1
9.045330125E0,-1.444945221E0,-1.515463577E1,-5.194198608E-1,1.523222404E1
9.055333125E0,-1.796564026E0,-1.417058212E1,-2.806364136E0,1.455708486E1
9.065336125E0,-1.630110168E0,-1.293220734E1,-5.669609985E0,1.421420850E1
9.075339125E0,1.047222290E0,-1.249077530E1,-5.591771851E0,1.372530708E1
9.085343125E0,2.158511353E0,-1.264749939E1,-2.693798218E0,1.311010911E1
9.095346125E0,1.439706116E0,-1.254735764E1,1.165925446E0,1.268338754E1
9.105349125E0,-1.454225922E0,-1.174727142E1,3.403622131E0,1.231656618E1
9.115352125E0,-6.113886108E0,-1.109148514E1,4.714296570E0,1.351389056E1
9.125356125E0,-6.365213470E0,-1.104298599E1,6.472390594E0,1.429529021E1
9.135359125E0,-6.335724792E0,-1.148441803E1,6.094725952E0,1.446302011E1
9.145362125E0,-7.432943115E0,-1.252879623E1,4.264182587E0,1.517901945E1
9.155366125E0,-7.802374878E0,-1.467248840E1,-3.891757050E0,1.706765194E1
9.165369125E0,-6.404282227E0,-1.647938095E1,-9.408534851E0,2.002761482E1
9.175372125E0,-5.922434235E0,-1.594110031E1,-3.473077698E0,1.735673285E1
9.185375125E0,-5.267845459E0,-1.489687180E1,-2.360591125E-1,1.580261716E1
9.195379125E0,-4.345762939E0,-1.473251358E1,-4.056564331E-2,1.536015161E1
9.205382125E0,-3.638334045E0,-1.446352295E1,-4.004173279E-1,1.491949412E1
9.215385125E0,-2.241588593E0,-1.332109863E1,-9.363029480E-1,1.354079213E1
9.225389125E0,-1.272803192E0,-1.222956848E1,-8.256829834E-1,1.232331634E1
9.235392125E0,-5.231620789E-1,-1.150477570E1,8.390052795E-1,1.154718547E1
9.245395125E0,3.712280273E-2,-1.049632278E1,8.437953186E-1,1.053024979E1
9.255398125E0,1.079704742E0,-9.294172668E0,2.755769348E-1,9.360734510E0
9.265402125E0,1.817819824E0,-8.538993073E0,-4.017645264E-1,8.739581588E0
9.275405125E0,1.782493286E0,-7.921976166E0,-1.421144714E0,8.243460498E0
9.285408125E0,1.523382111E0,-7.165449371E0,-1.591939545E0,7.496574502E0
9.295412125E0,1.050216064E0,-6.268963623E0,-8.590635681E-1,6.414113259E0
9.305415125E0,4.724176025E-1,-5.672005005E0,-3.652404785E-1,5.703351626E0
9.315418125E0,6.647676086E-1,-5.501359863E0,6.364764404E-1,5.577811271E0
9.325421125E0,4.041595459E-1,-5.128784637E0,1.097667389E0,5.260480063E0
9.335425125E0,-1.652563477E-1,-4.506977692E0,9.222322083E-1,4.603332469E0
9.345428125E0,-9.997709656E-1,-4.291276245E0,1.148262177E0,4.553361376E0
9.355431125E0,-2.476599884E0,-3.463048553E0,1.429826660E0,4.491175408E0
9.365434125E0,-3.688330078E0,-2.419568481E0,1.378184052E0,4.621415550E0
9.375438125E0,-4.458328857E0,-1.792821808E0,1.562600555E0,5.052981964E0
9.385441125E0,-4.258793793E0,-1.470541992E0,1.466051331E0,4.738050741E0
9.395444125E0,-4.035907288E0,-1.678010559E0,1.652862854E0,4.672924425E0
9.405448125E0,-3.691473541E0,-1.980082397E0,1.723815308E0,4.529817041E0
9.415451125E0,-2.698588257E0,-1.689536591E0,1.262624359E0,3.425074122E0
9.425454125E0,-2.138003998E0,-1.845063171E0,2.432441711E-1,2.834517054E0
9.435457125E0,-1.697021027E0,-2.177072754E0,-3.519181824E-1,2.782691601E0
9.445461125E0,-1.286424866E0,-2.759511566E0,-1.408121796E0,3.354489531E0
9.455464125E0,-1.201701050E0,-3.985611877E0,-3.110531616E0,5.196594499E0
9.465467125E0,-1.301244049E0,-5.876180420E0,-5.335355072E0,8.042931440E0
9.475471125E0,-1.146914978E0,-8.594078522E0,-8.449479218E0,1.210649820E1
9.485474125E0,3.135978699E-1,-1.222208405E1,-1.377270950E1,1.841643856E1
9.495477125E0,1.717528381E0,-1.739457779E1,-1.663490753E1,2.412967859E1
9.505480125E0,1.063089294E0,-2.310430435E1,-1.572120758E1,2.796596872E1
9.515484125E0,3.971241760E-1,-2.486374557E1,-1.634061951E1,2.975532553E1
9.525487125E0,6.942562866E-1,-2.129845963E1,-1.241952347E1,2.466477118E1
9.535490125E0,4.227209473E-1,-1.593271774E1,-5.099295959E0,1.673418677E1
9.545494125E0,4.773573303E-1,-9.880204010E0,-3.822002106E0,1.060443310E1
9.555497125E0,1.356928253E0,-5.806275787E0,-8.732989655E0,1.057445985E1
9.565500125E0,1.250798950E0,-3.391946411E0,-1.038091278E1,1.099241323E1
9.575503125E0,1.265917511E0,-2.657573547E0,-1.038705002E1,1.079611284E1
9.585507125E0,5.783972168E-1,-5.329068146E0,-1.012494507E1,1.145635297E1
9.595510125E0,-1.588047638E0,-9.528884583E0,-8.143365784E0,1.263471183E1
9.605513125E0,-3.722459106E0,-1.474418930E1,-2.812201996E0,1.546467911E1
9.615516125E0,-6.034551086E0,-1.922227707E1,4.222569122E0,2.058499047E1
9.625520125E0,-8.611891479E0,-2.069326813E1,9.788444824E0,2.445791636E1
9.635523125E0,-8.343798981E0,-2.031111282E1,5.654192047E0,2.267443876E1
9.645526125E0,-2.843786316E0,-1.359802277E1,-2.041155396E0,1.404135532E1
9.655530125E0,-4.221970367E0,-5.153034210E0,-1.159638519E0,6.761919613E0
9.665533125E0,-8.875643005E0,-4.834945679E-1,-4.972659302E0,1.018519250E1
9.675536125E0,-1.031325348E1,1.129401398E0,-6.174360352E0,1.207317152E1
9.685539125E0,-4.665947113E0,-1.244062958E0,-5.450166321E-1,4.859608856E0
9.695543125E0,-7.866142273E-1,-5.767955475E0,8.791517944E0,1.054413866E1
9.705546125E0,-3.317700806E0,-9.956395569E0,8.601862335E0,1.356941366E1
9.715549125E0,-4.957989807E0,-1.167751648E1,6.248605957E0,1.414182203E1
9.725553125E0,-5.196443939E0,-1.351225113E1,5.257217560E0,1.540202249E1
9.735556125E0,-4.305796051E0,-1.470841370E1,4.078718262E0,1.585916945E1
9.745559125E0,-2.456391907E0,-1.471485031E1,3.152743835E0,1.524796624E1
9.755562125E0,1.466949463E-2,-1.450289108E1,1.861379242E0,1.462186027E1
9.765566125E0,3.598965912E0,-1.423135574E1,-3.387455750E0,1.506515511E1
9.775569125E0,5.650599518E0,-1.374576553E1,-6.652466125E0,1.628283300E1
9.785572125E0,4.894222412E0,-1.217717743E1,-4.266577606E0,1.380002709E1
9.795575125E0,4.087100830E0,-1.053748718E1,-4.351301422E0,1.211102198E1
9.805579125E0,2.380948792E0,-9.790989532E0,-4.208348694E0,1.091982564E1
9.815582125E0,6.277944946E-1,-9.322912903E0,-3.070564728E0,9.835608709E0
9.825585125E0,-5.583389282E-1,-8.444090424E0,-1.798659668E0,8.651565294E0
9.835589125E0,-1.271605682E0,-7.638615417E0,-6.197113037E-1,7.768492042E0
9.845592125E0,-1.319206696E0,-6.785090332E0,2.862048340E-1,6.918068396E0
9.855595125E0,-1.375789032E0,-6.042035522E0,7.996371460E-1,6.248072365E0
9.865598125E0,-1.143172760E0,-5.905070343E0,1.106349335E0,6.115611872E0
9.875602125E0,-1.809736633E0,-6.659351807E0,1.256636810E0,7.014360216E0
9.885605125E0,-1.674268341E0,-7.531737671E0,1.108295288E0,7.794778077E0
9.895608125E0,-1.223705292E0,-8.414302368E0,4.201762390E-1,8.513194879E0
9.905612125E0,-7.860154724E-1,-8.873697052E0,-1.761836243E-1,8.910182959E0
9.915615125E0,-7.923023987E-1,-8.973090363E0,-5.746549988E-1,9.026312764E0
9.925618125E0,-5.059478760E-1,-8.736582184E0,-6.382727051E-1,8.774465428E0
9.935621000E0,-3.495231628E-1,-8.242459717E0,-7.162605286E-1,8.280901990E0
9.945625000E0,-5.315446472E-1,-7.914342041E0,-8.878038025E-1,7.981700649E0
9.955628000E0,-4.884342957E-1,-7.751031647E0,-9.515711975E-1,7.824483842E0
9.965631000E0,-4.457730103E-1,-7.884553986E0,-1.180445251E0,7.984882975E0
9.975634000E0,-4.799020386E-1,-7.934849396E0,-1.230141907E0,8.043966062E0
9.985638000E0,-4.076023865E-1,-8.050708466E0,-1.137634277E0,8.140900334E0
9.995641000E0,-1.567240906E-1,-8.956325226E0,-2.841091919E-1,8.962200736E0
1.000564400E1,1.004411316E-1,-1.030951126E1,6.412664795E-1,1.032992418E1
1.001564800E1,-6.735992432E-3,-1.152992340E1,5.281018066E-1,1.154201328E1
1.002565100E1,-2.104623413E-1,-1.187735092E1,-5.057981873E-1,1.188997860E1
1.003565400E1,-2.788700867E-1,-1.125554398E1,-1.606609039E0,1.137304846E1
1.004565700E1,-3.767665100E-1,-1.043420197E1,-1.874252472E0,1.060789074E1
1.005566100E1,-2.459385681E-1,-1.020428009E1,-1.201251984E0,1.027768574E1
1.006566400E1,5.932164001E-1,-1.010264145E1,-5.900729370E-1,1.013723118E1
1.007566700E1,2.031275940E0,-9.950857086E0,-2.857557678E-1,1.016008342E1
1.008567100E1,4.535568237E0,-1.043809387E1,-3.267704773E-1,1.138560327E1
1.009567400E1,7.895930328E0,-1.238913666E1,-5.887257385E-1,1.470316363E1
1.010567700E1,6.979835358E0,-1.421324341E1,-2.573448486E0,1.604235104E1
1.011568000E1,3.650309143E0,-1.504581207E1,-3.209625549E0,1.581148045E1
1.012568400E1,6.797364807E-1,-1.485885086E1,-2.030677185E0,1.501236625E1
1.013568700E1,-2.022444305E0,-1.445259567E1,-4.164340210E-1,1.459935683E1
1.014569000E1,-2.979853363E0,-1.430111069E1,-8.464897156E-1,1.463276590E1
1.015569300E1,-3.808380432E0,-1.349578537E1,-5.294939117E0,1.498920827E1
1.016569700E1,-2.676134949E0,-1.262280075E1,-9.753267975E0,1.617476532E1
1.017570000E1,3.357518005E-1,-1.214514404E1,-7.094496918E0,1.406943992E1
1.018570300E1,2.693049774E0,-1.138727005E1,-1.621128845E0,1.181314924E1
1.019570700E1,3.249293060E0,-1.036085449E1,2.191442871E0,1.107734774E1
1.020571000E1,9.041198730E-1,-1.030262558E1,5.050796814E0,1.150965139E1
1.021571300E1,-4.711153107E0,-1.080408279E1,6.482719116E0,1.345172167E1
1.022571600E1,-5.957760773E0,-1.211281128E1,6.512207794E0,1.498746012E1
1.023572000E1,-5.843099213E0,-1.337259155E1,5.587730255E0,1.562660368E1
1.024572300E1,-6.998247070E0,-1.461979797E1,2.534230042E0,1.640537341E1
1.025572600E1,-7.493267670E0,-1.646007111E1,-5.902825012E0,1.902436186E1
1.026573000E1,-6.437962189E0,-1.738844055E1,-7.887847137E0,2.015002120E1
1.027573300E1,-6.276148682E0,-1.700838089E1,-2.995271301E0,1.837516566E1
1.028573600E1,-5.587730255E0,-1.573827209E1,-2.550695801E-1,1.670272428E1
1.029573900E1,-4.278852081E0,-1.505853561E1,7.454498291E-2,1.565482759E1
1.030574300E1,-3.384461975E0,-1.467144058E1,-7.704478455E-1,1.507644990E1
1.031574600E1,-2.066901855E0,-1.355835526E1,-1.162931671E0,1.376421050E1
1.032574900E1,-1.194665680E0,-1.239377701E1,-9.392967224E-1,1.248660134E1
1.033575200E1,-5.861810303E-1,-1.075872711E1,3.558100891E-1,1.078055741E1
1.034575600E1,2.257305908E-1,-9.824070740E0,4.459226990E-1,9.836776263E0
1.035575900E1,7.725434875E-1,-9.009614410E0,-5.897735596E-1,9.061887668E0
1.036576200E1,9.773176575E-1,-8.325686646E0,-1.006806335E0,8.443095814E0
1.037576600E1,1.287472687E0,-7.645650787E0,-1.426383820E0,7.883408697E0
1.038576900E1,1.370699615E0,-7.612719269E0,-1.225351868E0,7.831589832E0
1.039577200E1,1.125659180E0,-7.070846100E0,-9.912387085E-1,7.228175934E0
1.040577500E1,6.978488159E-1,-6.014193420E0,-2.767744446E-1,6.060867888E0
1.041577900E1,-6.167175293E-2,-4.830455017E0,6.216572571E-1,4.870683404E0
1.042578200E1,-1.000369720E0,-3.703298950E0,8.325686646E-1,3.925344988E0
1.043578500E1,-1.833986206E0,-3.043620758E0,8.560697937E-1,3.655131764E0
1.044578900E1,-2.035018158E0,-3.031945038E0,7.918533325E-1,3.736445010E0
1.045579200E1,-2.312091980E0,-3.542832642E0,1.127455444E0,4.378194631E0
1.046579500E1,-2.712808685E0,-3.417842560E0,1.669777679E0,4.672166117E0
1.047579800E1,-3.529210968E0,-2.567610626E0,2.138602753E0,4.860203300E0
1.048580200E1,-3.925437012E0,-1.839225311E0,1.690434723E0,4.652888891E0
1.049580500E1,-3.902983704E0,-1.393302612E0,1.686243439E0,4.474146946E0
1.050580800E1,-3.592529297E0,-1.228495331E0,1.890718231E0,4.241495368E0
1.051581100E1,-2.753524017E0,-9.891430664E-1,1.057850189E0,3.111164660E0
1.052581500E1,-2.244732056E0,-1.248403931E0,1.224453735E-1,2.571444583E0
1.053581800E1,-1.902992706E0,-1.803000641E0,-5.966592407E-1,2.688530231E0
1.054582100E1,-1.657802582E0,-2.592009888E0,-1.549877014E0,3.445133295E0
1.055582500E1,-1.712888031E0,-3.812571716E0,-3.137625275E0,5.226316185E0
1.056582800E1,-1.883383484E0,-5.720354462E0,-5.493126984E0,8.151320910E0
1.057583100E1,-1.182540894E0,-8.504414978E0,-8.371641083E0,1.199199114E1
1.058583400E1,4.565505981E-2,-1.245993942E1,-1.189516388E1,1.722634896E1
1.059583800E1,2.369273071E0,-1.757600052E1,-1.495001129E1,2.319551868E1
1.060584100E1,3.129991150E0,-2.403177567E1,-1.542676987E1,2.872817980E1
1.061584400E1,1.375789032E0,-2.799149139E1,-1.765428772E1,3.312235289E1
1.062584700E1,1.303489380E0,-2.529724411E1,-1.432715652E1,2.910183943E1
1.063585100E1,7.203021240E-1,-1.903277115E1,-7.093748474E0,2.032452903E1
1.064585400E1,2.195933533E-1,-1.176044403E1,-5.209017792E0,1.286429677E1
1.065585700E1,1.430126038E0,-5.409600677E0,-8.786727905E0,1.041708343E1
1.066586100E1,2.215692444E0,-1.266216888E0,-1.051653076E1,1.082173819E1
1.067586400E1,3.038830719E0,9.075627136E-1,-9.416318665E0,9.936056532E0
1.068586700E1,3.418441315E0,-2.671943665E-1,-8.251740417E0,8.935790607E0
1.069587000E1,1.291214905E0,-3.687431946E0,-6.676865387E0,7.735949953E0
1.070587400E1,-1.750010834E0,-7.761509857E0,-2.676883392E0,8.394598137E0
1.071587700E1,-5.498216400E0,-1.298564621E1,3.685186615E0,1.457525271E1
1.072588000E1,-1.073986633E1,-1.822999054E1,7.718549194E0,2.252228420E1
1.073588400E1,-1.404888519E1,-2.166789139E1,7.832162933E0,2.698539362E1
1.074588700E1,-9.264983368E0,-2.354094635E1,-2.901416473E0,2.546437294E1
1.075589000E1,5.628295898E-1,-1.754875717E1,-8.078700256E0,1.932721018E1
1.076589300E1,-2.126028900E0,-7.269782410E0,-1.918560333E0,7.813488908E0
1.077589700E1,-8.158035278E0,-4.766088867E-1,-4.111799469E0,9.148092179E0
1.078590000E1,-9.776320038E0,1.031205597E0,-4.872667236E0,1.097190523E1
1.079590300E1,-4.147275696E0,-9.283694458E-1,1.149759064E0,4.402693656E0
1.080590600E1,-1.314416656E0,-4.780908051E0,8.126001892E0,9.519279368E0
1.081591000E1,-3.793860626E0,-8.925938416E0,7.150181122E0,1.204951639E1
1.082591300E1,-4.620890808E0,-1.183888092E1,6.110742645E0,1.410152151E1
1.083591600E1,-4.349205780E0,-1.392643982E1,5.474565582E0,1.558307368E1
1.084592000E1,-3.986659698E0,-1.531734741E1,4.150269470E0,1.636274195E1
1.085592300E1,-3.151546326E0,-1.574934906E1,2.754571838E0,1.629607026E1
1.086592600E1,-8.045768738E-1,-1.529624130E1,4.076023865E-1,1.532280920E1
1.087592900E1,2.568808136E0,-1.464853821E1,-3.682043152E0,1.532109293E1
1.088593300E1,3.629951477E0,-1.354877518E1,-3.911216583E0,1.456171253E1
1.089593600E1,3.416046295E0,-1.156360336E1,-3.270399170E0,1.249327042E1
1.090593900E1,2.128423920E0,-9.769584045E0,-2.616858215E0,1.033551681E1
1.091594300E1,5.951623535E-1,-8.714278564E0,-1.696721649E0,8.897849936E0
1.092594600E1,-6.393205261E-1,-8.105644226E0,-1.441203003E0,8.257558062E0
1.093594912E1,-1.303489380E0,-7.888745270E0,-1.342408447E0,8.107616600E0
1.094595212E1,-1.541344757E0,-7.698191528E0,-7.698490906E-1,7.888635122E0
1.095595612E1,-1.385369110E0,-7.219487000E0,3.246748352E-1,7.358373044E0
1.096595913E1,-1.292711792E0,-6.928192749E0,1.278341675E0,7.162758964E0
1.097596212E1,-1.516646118E0,-6.702761536E0,1.623972931E0,7.061481129E0
1.098596613E1,-1.465751953E0,-6.777755585E0,1.548829193E0,7.105298827E0
1.099596912E1,-8.122109985E-1,-7.443121948E0,8.174501038E-1,7.531797642E0
1.100597212E1,5.628295898E-2,-8.182883606E0,2.125579834E-1,8.185837329E0
1.101597512E1,4.315525818E-1,-8.727900238E0,-4.345463562E-1,8.749360590E0
1.102597912E1,5.547463989E-1,-8.838071136E0,-8.809181213E-1,8.899171968E0
1.103598213E1,5.152285767E-1,-8.331823883E0,-5.947132874E-1,8.368896797E0
1.104598512E1,3.992198181E-1,-8.040978699E0,-1.716929626E-1,8.052713417E0
1.105598813E1,2.034269714E-1,-7.990234222E0,-1.933978271E-1,7.995162799E0
1.106599212E1,-5.837860107E-2,-8.102949829E0,-5.292993164E-1,8.120428669E0
1.107599513E1,-4.519102478E-1,-8.325536957E0,-1.320404205E0,8.441697445E0
1.108599812E1,-7.990383911E-1,-8.744964752E0,-2.934048615E0,9.258591261E0
1.109600212E1,-4.432283020E-1,-8.931177521E0,-4.324357452E0,9.932897393E0
1.110600513E1,1.422042847E-1,-9.386979675E0,-2.987637177E0,9.851983830E0
1.111600812E1,6.523434448E-1,-1.015742752E1,-8.044271851E-1,1.021009250E1
1.112601113E1,8.369096375E-1,-1.098610428E1,5.074447632E-1,1.102961491E1
1.113601512E1,8.756790161E-1,-1.161270126E1,7.530839539E-1,1.166999485E1
1.114601813E1,9.990225220E-1,-1.158845169E1,1.646575928E-2,1.163144573E1
1.115602112E1,1.080602875E0,-1.097188385E1,-1.100062408E0,1.107971458E1
1.116602512E1,1.097068634E0,-1.011626312E1,-2.020049286E0,1.037414759E1
1.117602813E1,1.436412964E0,-9.448501740E0,-2.414479065E0,9.857341248E0
1.118603112E1,2.230062561E0,-9.085356903E0,-2.199675751E0,9.610174946E0
1.119603413E1,3.936813354E0,-9.699978790E0,-1.528770905E0,1.057947203E1
1.120603812E1,6.899901581E0,-1.137664215E1,-1.935475159E-1,1.330691884E1
1.121604113E1,6.504274292E0,-1.375175308E1,-3.525169373E-1,1.521645705E1
1.122604412E1,4.941524048E0,-1.517559219E1,-7.038363647E-1,1.597537618E1
1.123604812E1,2.444865875E0,-1.556403442E1,-1.869612122E-1,1.575599858E1
1.124605112E1,-1.403032379E0,-1.538994644E1,7.414082336E-1,1.547154283E1
1.125605412E1,-3.442241821E0,-1.536869064E1,-7.484436035E-3,1.574946783E1
1.126605713E1,-4.069138184E0,-1.519819519E1,-3.993246002E0,1.623234537E1
1.127606112E1,-4.146826630E0,-1.467368591E1,-9.287137299E0,1.785396731E1
1.128606413E1,-1.383423157E0,-1.437071594E1,-7.880811768E0,1.644805552E1
1.129606712E1,2.709365845E-1,-1.417716843E1,-2.073637848E0,1.433057867E1
1.130607113E1,-4.141886902E-1,-1.279194901E1,2.547252960E0,1.304967468E1
1.131607412E1,-3.826043701E0,-1.063059357E1,5.110522614E0,1.240022465E1
1.132607712E1,-5.278173981E0,-9.388626251E0,6.105952606E0,1.238095637E1
1.133608013E1,-4.444707184E0,-9.518256683E0,6.378236389E0,1.228961072E1
1.134608412E1,-4.064797211E0,-1.036040543E1,5.333409119E0,1.234122481E1
1.135608713E1,-4.054468689E0,-1.264151184E1,2.327659607E-1,1.327782806E1
1.136609012E1,-4.529281311E0,-1.554083267E1,-7.036866760E0,1.765076098E1
1.137609413E1,-5.769452362E0,-1.697275497E1,-5.050048370E0,1.862428470E1
1.138609712E1,-6.113437042E0,-1.626951736E1,-1.322350159E0,1.743043079E1
1.139610012E1,-5.842051392E0,-1.524444901E1,4.340972900E-1,1.633129604E1
1.140610313E1,-5.457201691E0,-1.478894623E1,4.105961609E-1,1.576903834E1
1.141610712E1,-5.401367798E0,-1.515328857E1,-1.263073425E0,1.613667510E1
1.142611013E1,-4.939578094E0,-1.500539612E1,-1.518292694E0,1.587030425E1
1.143611312E1,-3.567531281E0,-1.370175705E1,-9.824070740E-1,1.419262306E1
1.144611613E1,-2.296374664E0,-1.231279541E1,2.035766602E-1,1.252675979E1
1.145612012E1,-1.495839386E0,-1.069091812E1,8.225395203E-1,1.082634920E1
1.146612312E1,3.128494263E-1,-8.817264404E0,7.902067566E-1,8.858129208E0
1.147612613E1,2.166594543E0,-7.612419891E0,5.095404053E-1,7.931122237E0
1.148613012E1,2.869981842E0,-7.383396149E0,-6.599775696E-1,7.949019113E0
1.149613313E1,3.027604065E0,-6.705006866E0,-1.583856354E0,7.525430513E0
1.150613612E1,1.922152863E0,-6.037993927E0,-1.337169342E0,6.476114895E0
1.151613913E1,5.107379150E-1,-5.531896362E0,-5.216651917E-1,5.579862467E0
1.152614312E1,7.888595581E-2,-4.680017853E0,1.917512512E-1,4.684608696E0
1.153614612E1,5.093907166E-1,-4.458328857E0,6.988966370E-1,4.541434973E0
1.154614913E1,4.941224670E-1,-4.307742004E0,1.490450592E0,4.585001762E0
1.155615312E1,-1.953437805E-1,-3.656147003E0,1.527872772E0,3.967362513E0
1.156615613E1,-1.603465576E0,-2.851570129E0,9.807604980E-1,3.415325052E0
1.157615912E1,-3.598816223E0,-1.652114410E0,7.851173401E-1,4.037000058E0
1.158616213E1,-3.331322479E0,-1.348545685E0,2.052980804E0,4.138963047E0
1.159616612E1,-3.395688629E0,-1.252744904E0,2.018552399E0,4.144227895E0
1.160616912E1,-3.712579651E0,-9.855505371E-1,1.372196503E0,4.078906810E0
1.161617212E1,-3.806135101E0,-1.087638245E0,2.017205200E0,4.442829974E0
1.162617612E1,-3.029849396E0,-8.011340332E-1,1.544039154E0,3.493688597E0
1.163617913E1,-2.382146301E0,-8.942404175E-1,7.240443420E-1,2.645472951E0
1.164618212E1,-2.082020416E0,-1.811682587E0,-4.670288086E-1,2.799128207E0
1.165618513E1,-1.504221954E0,-2.862198029E0,-1.297352142E0,3.483960939E0
1.166618912E1,-7.686515808E-1,-3.921994171E0,-2.781366119E0,4.869174573E0
1.167619212E1,-1.754351807E-1,-5.870641937E0,-5.980812836E0,8.382442152E0
1.168619512E1,3.975732422E-1,-9.245823212E0,-9.893526306E0,1.354714635E1
1.169619912E1,1.446591797E0,-1.321062836E1,-1.413540527E1,1.940162394E1
1.170620213E1,2.558479614E0,-1.815619400E1,-1.754711060E1,2.537901276E1
1.171620512E1,1.828447723E0,-2.470881775E1,-1.915970718E1,3.132033325E1
1.172620813E1,7.141648865E-1,-2.713422409E1,-2.075029953E1,3.416651986E1
1.173621212E1,1.514251099E0,-2.229179398E1,-1.351823868E1,2.611436026E1
1.174621513E1,8.478369141E-1,-1.586700439E1,-5.128185883E0,1.669667471E1
1.175621812E1,1.062939606E0,-9.462422791E0,-4.311184845E0,1.045244471E1
1.176622212E1,1.055455170E0,-4.824317780E0,-7.771239624E0,9.207616030E0
1.177622513E1,7.354206848E-1,-2.561323700E0,-8.055797882E0,8.485110618E0
1.178622812E1,1.309027863E0,-3.040177917E0,-8.632099457E0,9.244964940E0
1.179623113E1,2.894979858E-1,-6.604266357E0,-9.634864197E0,1.168463741E1
1.180623512E1,-2.920426941E0,-1.216011292E1,-5.918542328E0,1.383569235E1
1.181623813E1,-7.049290924E0,-1.791100388E1,1.364562378E0,1.929659537E1
1.182624112E1,-1.009216324E1,-2.070105194E1,8.068222046E0,2.440248998E1
1.183624412E1,-1.211520630E1,-2.118289993E1,8.418942719E0,2.581418350E1
1.184624813E1,-5.516328735E0,-1.584679642E1,-3.095413055E0,1.706260301E1
1.185625112E1,-3.254382477E0,-7.250771942E0,-3.642076263E0,8.742392039E0
1.186625413E1,-7.162455597E0,-1.754052429E0,-1.458716583E0,7.517002340E0
1.187625812E1,-9.216633911E0,1.537901917E0,-3.453917542E0,9.961979188E0
1.188626113E1,-5.593717804E0,7.807763672E-1,-1.975591736E0,5.983498418E0
1.189626412E1,-2.841091919E-1,-3.541335754E0,6.593039703E0,7.489322365E0
1.190626712E1,-1.006057892E0,-8.827892303E0,9.448950806E0,1.297021613E1
1.191627112E1,-3.121309204E0,-1.108774292E1,6.940018158E0,1.344784244E1
1.192627412E1,-3.434458008E0,-1.252325775E1,5.868396606E0,1.425010755E1
1.193627700E1,-3.139870605E0,-1.430141006E1,4.952301636E0,1.545685637E1
1.194628100E1,-2.567161560E0,-1.512978745E1,3.508104858E0,1.574190542E1
1.195628400E1,7.918533325E-1,-1.516930527E1,-7.249424744E-1,1.520724813E1
1.196628700E1,5.056784363E0,-1.526944702E1,-6.575526123E0,1.737712934E1
1.197629000E1,4.594246216E0,-1.431248703E1,-4.075724487E0,1.557452771E1
1.198629400E1,4.301904144E0,-1.213137268E1,-5.199587402E0,1.388208527E1
1.199629700E1,2.639610901E0,-1.054452255E1,-5.736221466E0,1.229059552E1
1.200630000E1,5.231620789E-1,-9.961484985E0,-3.860172729E0,1.069606541E1
1.201630400E1,-6.738986206E-1,-8.893455963E0,-2.176773376E0,9.180742925E0
1.202630700E1,-1.350042572E0,-7.602241058E0,-1.148561554E0,7.806143587E0
1.203631000E1,-1.836979980E0,-6.576274567E0,-2.624043274E-1,6.833062173E0
1.204631300E1,-2.129920807E0,-6.112089844E0,7.622149658E-1,6.517298256E0
1.205631700E1,-2.183659058E0,-6.149661713E0,1.752705231E0,6.757120813E0
1.206632000E1,-2.000290375E0,-6.447093201E0,2.098336487E0,7.068888762E0
1.207632300E1,-1.303938446E0,-6.954537964E0,1.443448334E0,7.221453929E0
1.208632700E1,-4.364923096E-1,-7.760462036E0,6.057902527E-1,7.796299018E0
1.209633000E1,4.266128540E-2,-8.438102875E0,3.685336304E-1,8.446254622E0
1.210633300E1,-9.310638428E-2,-8.608298950E0,4.366419983E-1,8.619868668E0
1.211633600E1,-4.773573303E-1,-8.404722290E0,2.453398132E-1,8.421841747E0
1.212634000E1,-5.016069031E-1,-8.098309479E0,3.233276367E-2,8.113893720E0
1.213634300E1,-3.793112183E-1,-7.855065308E0,-1.945953369E-2,7.864242281E0
1.214634600E1,-3.650907898E-1,-7.662864990E0,-1.080752563E-1,7.672318516E0
1.215635000E1,-4.318519592E-1,-7.858358459E0,-2.276765442E-1,7.873508138E0
1.216635300E1,-8.997789001E-1,-8.436156921E0,-2.736309814E-1,8.488416789E0
1.217635600E1,-9.116043091E-1,-8.425079956E0,-8.060737610E-1,8.512505483E0
1.218635900E1,-1.168021088E0,-8.566535797E0,-1.530567169E0,8.780230332E0
1.219636300E1,-1.549128571E0,-9.065448303E0,-1.976190491E0,9.406778467E0
1.220636600E1,-1.649120636E0,-9.691596222E0,-2.127825165E0,1.005854245E1
1.221636900E1,-1.457219696E0,-1.021969803E1,-1.862277374E0,1.048969943E1
1.222637200E1,-1.018032990E0,-1.076666061E1,-9.735754395E-1,1.085841706E1
1.223637600E1,-5.188211060E-1,-1.118983063E1,4.715194702E-2,1.120195109E1
1.224637900E1,-7.244934082E-2,-1.109867020E1,5.135820007E-1,1.111078285E1
1.225638200E1,7.182064819E-1,-1.076052338E1,1.763333130E-1,1.078590642E1
1.226638600E1,2.160307617E0,-1.028331573E1,-7.101232910E-1,1.053175135E1
1.227638900E1,4.441563721E0,-1.023960663E1,-1.610500946E0,1.127700073E1
1.228639200E1,8.338410187E0,-1.142229721E1,-1.159339142E0,1.418950405E1
1.229639500E1,9.978549500E0,-1.332349365E1,-1.219813385E0,1.669056254E1
1.230639900E1,7.655829620E0,-1.474029739E1,-2.460134125E0,1.679107961E1
1.231640200E1,4.357288971E0,-1.533381317E1,-2.828667755E0,1.618990904E1
1.232640500E1,1.456171875E0,-1.585862183E1,-1.466500397E0,1.599271541E1
1.233640900E1,-1.110989685E0,-1.594888412E1,6.732998657E-1,1.600170415E1
1.234641200E1,-3.059487762E0,-1.522394165E1,-1.455124054E0,1.559635376E1
1.235641500E1,-3.787274323E0,-1.421683594E1,-6.310427399E0,1.600885270E1
1.236641800E1,-3.011287994E0,-1.361119537E1,-7.562573547E0,1.585954014E1
1.237642200E1,-1.704655151E0,-1.333921097E1,-3.728596344E0,1.395502881E1
1.238642500E1,-1.011147308E0,-1.286799088E1,-1.743873596E-1,1.290883492E1
1.239642800E1,-3.804787903E0,-1.178574142E1,2.820135498E0,1.270170367E1
1.240643100E1,-6.743327179E0,-1.061113403E1,5.775589600E0,1.383568076E1
1.241643500E1,-6.453080750E0,-1.037073395E1,6.636150055E0,1.390082233E1
1.242643800E1,-5.354066162E0,-1.088251968E1,6.197861481E0,1.362015955E1
1.243644100E1,-4.515809326E0,-1.211116470E1,3.788322144E0,1.346938117E1
1.244644500E1,-4.299060059E0,-1.484837265E1,-6.277944946E0,1.668438433E1
1.245644800E1,-4.639003143E0,-1.718336700E1,-8.494086456E0,1.972151000E1
1.246645100E1,-4.795876923E0,-1.645213760E1,-3.287313995E0,1.744934671E1
1.247645400E1,-4.420158234E0,-1.478011459E1,-1.425485687E0,1.549263037E1
1.248645800E1,-4.426295471E0,-1.462818054E1,-1.039438477E0,1.531849176E1
1.249646100E1,-4.828808441E0,-1.511002853E1,-1.911824341E0,1.597765394E1
1.250646400E1,-4.190386047E0,-1.419333481E1,-1.721869354E0,1.489882285E1
1.251646800E1,-2.822081451E0,-1.285751266E1,-1.075962524E0,1.320747784E1
1.252647100E1,-2.156565399E0,-1.174487640E1,4.176315308E-2,1.194129977E1
1.253647400E1,-1.517244873E0,-1.055036041E1,1.045875092E0,1.071008831E1
1.254647700E1,-8.831634521E-2,-8.810827789E0,7.479945374E-1,8.842962283E0
1.255648100E1,1.597777405E0,-7.633076935E0,-4.212240601E-1,7.809877453E0
1.256648400E1,2.581681366E0,-7.087311859E0,-1.366059265E0,7.665584517E0
1.257648700E1,2.424807587E0,-6.402186584E0,-7.056326294E-1,6.882267236E0
1.258649000E1,1.193617859E0,-6.020779724E0,-6.987469482E-1,6.177601426E0
1.259649400E1,4.245172119E-1,-5.321883087E0,-8.726852417E-1,5.409642686E0
1.260649700E1,3.174897766E-1,-5.097948761E0,1.740879822E-1,5.110791324E0
1.261650000E1,1.871109009E-1,-4.894222412E0,1.333876190E0,5.076184512E0
1.262650400E1,-2.197430420E-1,-3.988905029E0,1.742376709E0,4.358385817E0
1.263650700E1,-7.234455872E-1,-3.282823334E0,8.030799866E-1,3.456188656E0
1.264651000E1,-1.656305695E0,-2.924767914E0,9.828561401E-1,3.501945473E0
1.265651300E1,-2.994073792E0,-2.471809845E0,7.661068726E-1,3.957428650E0
1.266651700E1,-3.364253998E0,-2.049837341E0,4.065545654E-1,3.960470263E0
1.267652000E1,-3.639980621E0,-1.518592072E0,1.222058716E0,4.129044479E0
1.268652300E1,-3.598965912E0,-1.083147583E0,1.590442657E0,4.081087131E0
1.269652700E1,-3.165467377E0,-8.949888611E-1,1.453627167E0,3.596417761E0
1.270653000E1,-2.649190979E0,-1.165027313E0,7.978408813E-1,3.002007921E0
1.271653300E1,-2.265089722E0,-1.600022736E0,2.395019531E-1,2.783534693E0
1.272653600E1,-1.862876129E0,-2.204914856E0,-6.158193970E-1,2.951472603E0
1.273654000E1,-1.236428833E0,-3.131937103E0,-1.516197052E0,3.692782119E0
1.274654300E1,-5.069956970E-1,-4.107458496E0,-2.603535919E0,4.889443651E0
1.275654600E1,9.924362183E-2,-5.729186096E0,-4.939428406E0,7.565142140E0
1.276654900E1,6.146218872E-1,-8.404273224E0,-8.388555908E0,1.189022450E1
1.277655300E1,1.349294128E0,-1.221489899E1,-1.177211975E1,1.701784814E1
1.278655600E1,2.765798492E0,-1.705179062E1,-1.595786545E1,2.351736963E1
1.279655900E1,2.806813202E0,-2.370575363E1,-1.766536469E1,2.969690329E1
1.280656300E1,7.020401001E-1,-2.714874390E1,-1.913890045E1,3.322415787E1
1.281656600E1,-1.360520782E0,-2.257605286E1,-1.430709824E1,2.676232873E1
1.282656900E1,-7.963439941E-2,-1.715507584E1,-7.792645111E0,1.884219431E1
1.283657200E1,-6.530918884E-1,-1.121692429E1,-4.917274475E0,1.226480769E1
1.284657600E1,-5.137316895E-1,-5.294340363E0,-6.769223328E0,8.609085003E0
1.285657900E1,-1.194665680E0,-2.098336487E0,-8.916208649E0,9.237370771E0
1.286658200E1,-1.741628265E0,-2.645299072E0,-8.777896271E0,9.331791850E0
1.287658600E1,-2.224823456E0,-6.404431915E0,-9.721533966E0,1.185220698E1
1.288658900E1,-3.652105408E0,-1.107457031E1,-7.746990051E0,1.399999416E1
1.289659200E1,-5.227728882E0,-1.579081284E1,-8.187973022E-2,1.663386977E1
1.290659500E1,-6.775809631E0,-1.868025421E1,7.200326843E0,2.113547256E1
1.291659900E1,-9.584419098E0,-1.977597565E1,1.076501404E1,2.447112236E1
1.292660200E1,-4.563560028E0,-1.745639923E1,1.893113251E0,1.814210109E1
1.293660500E1,-2.954855347E-1,-1.161090500E1,-2.205962677E0,1.182229664E1
1.294660792E1,-4.224814453E0,-5.698499908E0,-8.277786255E-1,7.141930819E0
1.295661192E1,-6.774013367E0,-9.057664490E-1,-3.828588409E0,7.833630012E0
1.296661492E1,-6.436465302E0,7.364685059E-2,-4.115841064E0,7.640265513E0
1.297661792E1,-1.990111542E0,-2.435435486E0,2.653831329E0,4.115180516E0
1.298662192E1,-1.461410980E0,-6.725214844E0,8.450826416E0,1.089865606E1
1.299662492E1,-3.610042877E0,-9.547745361E0,6.958579559E0,1.235369097E1
1.300662792E1,-4.287833405E0,-1.145313309E1,5.419480133E0,1.337649198E1
1.301663092E1,-4.051474915E0,-1.344563965E1,4.605772247E0,1.477879604E1
1.302663492E1,-3.381917267E0,-1.477607300E1,3.225941620E0,1.549762553E1
1.303663792E1,-1.479972382E0,-1.540252029E1,1.729802856E0,1.556984803E1
1.304664092E1,3.233725433E0,-1.571806412E1,-3.426823883E0,1.640907193E1
1.305664492E1,5.206323395E0,-1.532962189E1,-5.536536713E0,1.711012417E1
1.306664792E1,4.363575897E0,-1.325748093E1,-4.265829163E0,1.459448161E1
1.307665092E1,2.933300171E0,-1.068567902E1,-5.193749542E0,1.223777023E1
1.308665392E1,1.033001862E0,-9.474098511E0,-4.596042480E0,1.058060688E1
1.309665792E1,-3.538641357E-1,-8.848249969E0,-3.172053680E0,9.406310217E0
1.310666092E1,-9.605525208E-1,-7.662266235E0,-1.738933868E0,7.915609642E0
1.311666392E1,-1.174457703E0,-6.644233246E0,-7.827223206E-1,6.792484122E0
1.312666692E1,-1.515747986E0,-6.117029572E0,-1.710942078E-1,6.304348972E0
1.313667092E1,-1.457070007E0,-5.808820496E0,6.206094360E-1,6.020847501E0
1.314667392E1,-9.584568787E-1,-5.931864624E0,1.114133148E0,6.111215115E0
1.315667692E1,-8.755293274E-1,-6.528972931E0,1.200802917E0,6.695966456E0
1.316668092E1,-8.158035278E-2,-7.185208282E0,9.526190186E-1,7.248541675E0
1.317668392E1,6.384223938E-1,-7.885601807E0,4.363426208E-1,7.923426903E0
1.318668692E1,7.354206848E-1,-8.369096375E0,2.583627319E-1,8.405317901E0
1.319668992E1,2.944377136E-1,-8.462053070E0,3.978726196E-1,8.476516876E0
1.320669392E1,1.050814819E-1,-8.262068939E0,2.630030823E-1,8.266921791E0
1.321669692E1,9.131011963E-2,-8.172255707E0,-3.056643677E-1,8.178479784E0
1.322669992E1,-1.633103943E-1,-8.169261932E0,-7.167095947E-1,8.202266970E0
1.323670392E1,-6.857240295E-1,-8.060438232E0,-6.761439514E-1,8.117761550E0
1.324670692E1,-8.310717773E-1,-7.897576904E0,-1.553768921E0,8.091761188E0
1.325670992E1,-7.637118530E-1,-7.831713867E0,-3.242856445E0,8.510882200E0
1.326671292E1,-8.202941895E-1,-8.436306610E0,-3.722459106E0,9.257475551E0
1.327671692E1,-5.620811462E-1,-9.400451660E0,-2.001487885E0,9.627584348E0
1.328671992E1,-1.930984497E-2,-1.015473312E1,-2.779719543E-1,1.015855532E1
1.329672292E1,-2.392025757E-1,-1.074884766E1,8.307723999E-2,1.075182987E1
1.330672692E1,-7.581733704E-1,-1.115001343E1,-3.052153015E-1,1.117992767E1
1.331672992E1,-7.131170654E-1,-1.098879868E1,-9.154962158E-1,1.104990342E1
1.332673292E1,-4.694238281E-1,-1.072100555E1,-1.161135406E0,1.079391283E1
1.333673592E1,1.553768921E-1,-1.037402710E1,-9.415420532E-1,1.041782519E1
1.334673992E1,1.491348724E0,-9.964778137E0,-8.708889771E-1,1.011332645E1
1.335674292E1,3.290307770E0,-1.007345215E1,-1.190324707E0,1.066383779E1
1.336674592E1,6.143823853E0,-1.132664612E1,-9.644444275E-1,1.292167315E1
1.337674992E1,8.671168213E0,-1.337019653E1,-4.541555786E-1,1.594232012E1
1.338675292E1,6.065836029E0,-1.500599487E1,-1.972597961E0,1.630537922E1
1.339675592E1,2.507585449E0,-1.521106842E1,-1.914818115E0,1.553483555E1
1.340675892E1,6.740483093E-1,-1.518337601E1,5.942642212E-2,1.519844662E1
1.341676292E1,-1.729653168E0,-1.530956360E1,1.328637085E0,1.546414285E1
1.342676592E1,-3.737727356E0,-1.466934494E1,1.315913544E0,1.519512801E1
1.343676892E1,-3.919299774E0,-1.382225647E1,-4.961432648E0,1.519972034E1
1.344677292E1,-1.905238037E0,-1.307845322E1,-9.830058289E0,1.647136656E1
1.345677592E1,1.442999268E-1,-1.303339691E1,-4.590803375E0,1.381903517E1
1.346677892E1,1.084045715E0,-1.324475739E1,3.421884155E-1,1.329345125E1
1.347678192E1,-7.369175720E-1,-1.303339691E1,3.049159241E0,1.340559042E1
1.348678592E1,-5.077291718E0,-1.216939362E1,5.628595276E0,1.433715861E1
1.349678892E1,-7.496261444E0,-1.127141098E1,7.405550079E0,1.542986757E1
1.350679192E1,-6.813082123E0,-1.097368011E1,7.545658722E0,1.495916805E1
1.351679592E1,-7.373516693E0,-1.171433990E1,5.010081482E0,1.472057826E1
1.352679892E1,-7.279512177E0,-1.366628082E1,-2.940335541E0,1.576084078E1
1.353680192E1,-6.048771515E0,-1.584724548E1,-8.244555359E0,1.885989182E1
1.354680592E1,-5.782026215E0,-1.626188324E1,-4.301604767E0,1.778719981E1
1.355680892E1,-5.698499908E0,-1.599543732E1,-1.337169342E0,1.703276073E1
1.356681192E1,-5.360802155E0,-1.578272964E1,-6.313870239E-1,1.668026991E1
1.357681492E1,-5.176385651E0,-1.554068298E1,-1.288370819E0,1.643069370E1
1.358681892E1,-4.134103088E0,-1.508682678E1,-1.672172699E0,1.573211086E1
1.359682192E1,-2.357148285E0,-1.371807312E1,-1.163979492E0,1.396769582E1
1.360682492E1,-8.629554749E-1,-1.240575211E1,2.715353394E-1,1.243869402E1
1.361682892E1,-7.484436035E-3,-1.077668976E1,1.438358917E0,1.087225710E1
1.362683192E1,1.071771240E0,-9.149423676E0,1.242566071E0,9.295408416E0
1.363683492E1,2.533780975E0,-8.325686646E0,8.276289368E-1,8.741971963E0
1.364683792E1,3.394491119E0,-7.525001678E0,-4.537065125E-1,8.267652014E0
1.365684192E1,2.723885651E0,-6.451883240E0,-1.417252808E0,7.145275075E0
1.366684492E1,1.310973816E0,-5.641169128E0,-1.622476044E0,6.014471714E0
1.367684792E1,3.002755737E-1,-4.778513031E0,-1.318907318E0,4.966273122E0
1.368685192E1,3.577560425E-2,-4.499642944E0,-5.227130127E-1,4.530043644E0
1.369685492E1,3.357518005E-1,-4.815336456E0,4.454736328E-1,4.847539708E0
1.370685792E1,1.431024170E-1,-4.187991028E0,8.798703003E-1,4.281812571E0
1.371686192E1,-4.267625427E-1,-3.503015442E0,1.098116455E0,3.695822399E0
1.372686492E1,-1.321152649E0,-3.031495972E0,1.134191437E0,3.495969445E0
1.373686792E1,-2.449655914E0,-2.379751282E0,1.079405365E0,3.581779754E0
1.374687092E1,-3.292702789E0,-1.722917175E0,1.350791016E0,3.954108195E0
1.375687492E1,-4.041894836E0,-1.072519684E0,1.646725616E0,4.494320593E0
1.376687792E1,-4.069886627E0,-8.045768738E-1,1.736538849E0,4.497431298E0
1.377688092E1,-3.486549683E0,-7.735913086E-1,1.767674103E0,3.984864356E0
1.378688492E1,-2.681972809E0,-9.849517822E-1,1.421144714E0,3.191043788E0
1.379688792E1,-2.080523529E0,-1.512604523E0,8.195457458E-1,2.699667725E0
1.380689092E1,-1.591340790E0,-2.072290649E0,1.654060364E-1,2.618036135E0
1.381689492E1,-1.108295288E0,-2.648442535E0,-5.129832458E-1,2.916456432E0
1.382689792E1,-7.280859375E-1,-3.498674469E0,-1.816772003E0,4.008926625E0
1.383690092E1,-4.587959290E-1,-4.799020386E0,-4.013603668E0,6.272966186E0
1.384690392E1,-5.445675659E-1,-7.009473724E0,-6.911427612E0,9.858859334E0
1.385690792E1,-6.494993591E-1,-1.020832169E1,-1.034214340E1,1.454618889E1
1.386691092E1,5.019062805E-1,-1.430769699E1,-1.529219971E1,2.094787519E1
1.387691392E1,2.190694427E0,-2.054597443E1,-1.749965927E1,2.707719117E1
1.388691792E1,9.286688232E-1,-2.782533691E1,-1.918260956E1,3.380952986E1
1.389692092E1,7.460485840E-1,-2.841136826E1,-1.873578873E1,3.404103720E1
1.390692392E1,1.101259918E0,-2.264999908E1,-1.089554260E1,2.515845942E1
1.391692692E1,5.852828979E-2,-1.528905624E1,-4.841382294E0,1.603738286E1
1.392693092E1,9.719288635E-1,-7.556885376E0,-5.661975861E0,9.492583049E0
1.393693392E1,1.358275452E0,-2.609673157E0,-8.549920349E0,9.041927016E0
1.394693754E1,2.033970337E0,3.233276367E-2,-7.924969940E0,8.181884214E0
1.395694154E1,3.052003326E0,-1.297801208E-1,-7.808063049E0,8.384355417E0
1.396694454E1,1.853296051E0,-3.465742950E0,-6.208489380E0,7.347885467E0
1.397694754E1,-2.175575867E0,-7.586523743E0,-1.271755371E0,7.994112494E0
1.398695154E1,-7.331903229E0,-1.217822525E1,3.195854187E0,1.456981329E1
1.399695454E1,-1.146076721E1,-1.683354446E1,5.966891785E0,2.122077289E1
1.400695754E1,-1.390608215E1,-1.964814148E1,6.776408386E0,2.500696493E1
1.401696054E1,-1.050290909E1,-2.192176346E1,-3.240910492E0,2.452301599E1
1.402696454E1,1.507365417E-1,-1.775892014E1,-1.008662476E1,2.042405359E1
1.403696754E1,-2.187401276E0,-7.932005310E0,6.012995911E-1,8.250029926E0
1.404697054E1,-9.749974823E0,-1.124611359E0,-1.330583038E0,9.904403616E0
1.405697454E1,-1.102382584E1,6.469546509E-1,-6.604116669E0,1.286692051E1
1.406697754E1,-3.854334869E0,-1.160686340E0,-1.460961914E-1,4.027956574E0
1.407698054E1,2.591111755E-1,-5.532345428E0,7.782466278E0,9.552003241E0
1.408698454E1,-2.133363647E0,-9.405541077E0,7.673792267E0,1.232487449E1
1.409698754E1,-3.888164520E0,-1.131242569E1,6.039191437E0,1.340002356E1
1.410699054E1,-4.101470947E0,-1.295660660E1,5.119653625E0,1.452262276E1
1.411699354E1,-3.769161987E0,-1.479268845E1,3.944297791E0,1.576666416E1
1.412699754E1,-2.763852539E0,-1.613629440E1,2.442620544E0,1.655250051E1
1.413700054E1,4.191284180E-3,-1.663011749E1,-1.010698242E0,1.666080239E1
1.414700354E1,2.907404022E0,-1.621173752E1,-3.716621246E0,1.688451080E1
1.415700754E1,3.501518555E0,-1.455827591E1,-3.159180450E0,1.530308631E1
1.416701054E1,3.614234161E0,-1.189471481E1,-3.121608582E0,1.281761948E1
1.417701354E1,2.034868469E0,-9.612859955E0,-2.265838165E0,1.008373883E1
1.418701754E1,-4.586462402E-1,-8.524622955E0,-1.504521332E0,8.668514137E0
1.419702054E1,-1.559457092E0,-7.959248657E0,-1.698667603E0,8.286556416E0
1.420702354E1,-2.288291473E0,-7.385641479E0,-1.608554993E0,7.897558300E0
1.421702654E1,-2.596051483E0,-6.950945435E0,-7.714956665E-1,7.459914966E0
1.422703054E1,-1.908381500E0,-6.458020477E0,7.545808411E-1,6.776233517E0
1.423703354E1,-1.703906708E0,-5.962101746E0,2.121538239E0,6.553692073E0
1.424703654E1,-1.639241180E0,-6.007457428E0,2.739153900E0,6.802912647E0
1.425704054E1,-9.623487854E-1,-6.700067139E0,2.638114014E0,7.264754669E0
1.426704354E1,8.158035278E-2,-7.599696350E0,1.987117767E0,7.855614361E0
1.427704654E1,3.477268982E-1,-8.170010376E0,1.672023010E0,8.346594784E0
1.428704954E1,-6.152206421E-2,-8.500074005E0,1.340462494E0,8.605340363E0
1.429705354E1,-5.789959717E-1,-8.471184082E0,9.415420532E-1,8.542991135E0
1.430705654E1,-1.040186920E0,-8.262068939E0,3.306623840E-1,8.333853226E0
1.431705954E1,-9.475296021E-1,-7.780370636E0,-5.545967102E-1,7.857452328E0
1.432706354E1,-9.114546204E-1,-7.613467712E0,-1.311871948E0,7.779244702E0
1.433706654E1,-5.081932068E-1,-7.636669464E0,-2.760110321E0,8.136042639E0
1.434706954E1,5.718109131E-2,-8.077652435E0,-4.805606689E0,9.399233703E0
1.435707354E1,6.451583862E-2,-9.001231842E0,-4.400549011E0,1.001953934E1
1.436707654E1,2.983296204E-1,-9.616003418E0,-1.394949188E0,9.721234774E0
1.437707954E1,5.545967102E-1,-9.965676270E0,7.753875732E-1,1.001116911E1
1.438708254E1,6.292913818E-1,-1.053569092E1,1.387165375E0,1.064523455E1
1.439708654E1,4.971162415E-1,-1.111857880E1,7.813751221E-1,1.115708143E1
1.440708954E1,7.080276489E-1,-1.123788071E1,-6.387217712E-1,1.127826367E1
1.441709254E1,1.096020813E0,-1.058299255E1,-2.261048126E0,1.087719319E1
1.442709654E1,9.530680847E-1,-9.808652802E0,-3.085982666E0,1.032672734E1
1.443709954E1,7.547305298E-1,-9.094038849E0,-2.688110046E0,9.512996183E0
1.444710254E1,1.292562103E0,-8.677305450E0,-1.864373016E0,8.968959439E0
1.445710654E1,2.637215881E0,-9.265582123E0,-1.256936188E0,9.715235883E0
1.446710954E1,6.266568604E0,-1.135224289E1,-9.295669556E-2,1.296734135E1
1.447711254E1,7.871980133E0,-1.402747971E1,3.724255371E-1,1.608965378E1
1.448711554E1,5.566923523E0,-1.561642548E1,-5.221142578E-1,1.658722356E1
1.449711954E1,2.523003387E0,-1.563738190E1,-1.504970398E0,1.591094575E1
1.450712254E1,-4.116439819E-1,-1.513936752E1,-1.046324158E0,1.518106367E1
1.451712554E1,-3.919150085E0,-1.535985901E1,5.769003296E-1,1.586246577E1
1.452712954E1,-5.447771301E0,-1.502740036E1,-3.326233063E0,1.632681231E1
1.453713254E1,-3.758683777E0,-1.431742676E1,-8.480764160E0,1.705988785E1
1.454713554E1,-5.358856201E-1,-1.407493103E1,-5.930667114E0,1.528278997E1
1.455713954E1,2.627785492E0,-1.381941238E1,-2.288590851E0,1.425198454E1
1.456714254E1,3.276686096E0,-1.276799881E1,-1.387614441E-1,1.318247777E1
1.457714554E1,1.103804626E0,-1.193019104E1,1.276844788E0,1.204899064E1
1.458714854E1,-4.939129028E0,-1.072759186E1,4.023333435E0,1.247651532E1
1.459715254E1,-6.916666718E0,-1.020532791E1,6.372997284E0,1.387818758E1
1.460715554E1,-5.463039551E0,-1.136287079E1,6.907236328E0,1.437600596E1
1.461715854E1,-5.558990021E0,-1.325957657E1,5.698499908E0,1.546582174E1
1.462716254E1,-6.980134735E0,-1.620485184E1,-4.734654236E-1,1.765059981E1
1.463716554E1,-6.753506012E0,-1.907483368E1,-7.468269653E0,2.156928777E1
1.464716854E1,-5.647456055E0,-1.927751221E1,-4.705764313E0,2.063154029E1
1.465717254E1,-4.980143738E0,-1.731329681E1,-1.710493011E0,1.809634948E1
1.466717554E1,-4.366270294E0,-1.532782562E1,-1.319805450E0,1.599213685E1
1.467717854E1,-4.915478210E0,-1.478026428E1,-1.416354675E0,1.564046671E1
1.468718154E1,-4.582869873E0,-1.441442505E1,-1.262175293E0,1.517799171E1
1.469718554E1,-3.304977264E0,-1.360939911E1,-3.156935120E-1,1.400850746E1
1.470718854E1,-1.937121735E0,-1.236189331E1,6.494993591E-1,1.252959282E1
1.471719154E1,-9.779164124E-1,-1.094404175E1,8.270301819E-1,1.101872720E1
1.472719554E1,-2.948867798E-2,-9.395511932E0,6.337820435E-1,9.416909989E0
1.473719854E1,1.424886932E0,-8.285270691E0,2.278262329E-1,8.409989179E0
1.474720154E1,2.168241119E0,-7.806416473E0,-5.878276062E-1,8.123235132E0
1.475720554E1,2.054028625E0,-7.216343536E0,-1.319655762E0,7.618145375E0
1.476720854E1,7.282356262E-1,-6.348148956E0,-1.263073425E0,6.513422816E0
1.477721154E1,-1.582209778E-1,-5.113366699E0,-9.113049316E-1,5.196347713E0
1.478721454E1,-4.041595459E-3,-4.408332825E0,8.083190918E-3,4.408342088E0
1.479721854E1,1.667532349E-1,-3.591032410E0,1.162332916E0,3.778139518E0
1.480722154E1,-7.560777283E-1,-2.584974518E0,1.470092926E0,3.068374162E0
1.481722454E1,-1.085093536E0,-2.222129059E0,1.509610748E0,2.897276333E0
1.482722854E1,-1.097966766E0,-2.315534821E0,1.801204376E0,3.132342531E0
1.483723154E1,-1.850302277E0,-2.091899872E0,1.293460236E0,3.077775653E0
1.484723454E1,-2.681374054E0,-1.454375610E0,1.218615875E0,3.284813524E0
1.485723754E1,-3.250340881E0,-8.074209595E-1,1.343306580E0,3.608478491E0
1.486724154E1,-3.969894562E0,-1.038390656E0,1.796863403E0,4.479624546E0
1.487724454E1,-3.640878754E0,-1.020877075E0,1.309476929E0,4.001614415E0
1.488724754E1,-2.730621643E0,-1.147513733E0,8.535250854E-1,3.082464500E0
1.489725154E1,-2.214345245E0,-1.661095734E0,3.556604004E-1,2.790888429E0
1.490725454E1,-2.286195831E0,-1.859283600E0,-1.175056458E-1,2.949141309E0
1.491725754E1,-2.405647430E0,-2.006427612E0,-8.488847351E-1,3.245534874E0
1.492726154E1,-1.789079590E0,-2.491269379E0,-1.807341614E0,3.560015815E0
1.493726454E1,-1.018182678E0,-3.645818481E0,-3.449875946E0,5.121555663E0
1.494726692E1,-9.336085510E-1,-5.806126099E0,-6.819967804E0,9.005258800E0
1.495726992E1,-6.301895142E-2,-9.318122864E0,-1.168335434E1,1.494430171E1
1.496727392E1,2.743494873E0,-1.421024963E1,-1.735625748E1,2.259862014E1
1.497727692E1,5.610932007E0,-2.120535324E1,-1.818912552E1,2.849550581E1
1.498727992E1,2.637066193E0,-2.917193665E1,-1.689910812E1,3.381620708E1
1.499728392E1,-1.405726776E0,-3.001333694E1,-1.602672226E1,3.405337412E1
1.500728692E1,-2.494712219E0,-2.379856064E1,-1.062969543E1,2.618368772E1
1.501728992E1,-1.986519012E0,-1.488130417E1,-6.624174957E0,1.640972777E1
1.502729392E1,-1.959425354E-1,-6.262826385E0,-6.817572784E0,9.259626692E0
1.503729692E1,4.773573303E-1,-3.353027344E-2,-7.941136322E0,7.955541489E0
1.504729992E1,-1.370400238E0,2.222278748E0,-8.978329468E0,9.350236343E0
1.505730292E1,-3.989354095E0,-6.045927429E-1,-9.947414246E0,1.073459495E1
1.506730692E1,-5.363346863E0,-7.042255554E0,-9.297166443E0,1.283729554E1
1.507730992E1,-5.770500183E0,-1.314521439E1,-4.332590332E0,1.499555509E1
1.508731292E1,-5.591322784E0,-1.823133774E1,2.757864990E0,1.926785887E1
1.509731692E1,-6.821614380E0,-2.129247208E1,9.026678925E0,2.411192075E1
1.510731992E1,-6.612199860E0,-2.155592422E1,7.391329651E0,2.372784883E1
1.511732292E1,-1.197509766E-1,-1.580368607E1,-1.516646118E0,1.587674554E1
1.512732592E1,-2.639311523E0,-7.051236877E0,-4.610412598E-2,7.529145530E0
1.513732992E1,-8.613837433E0,-5.014572144E-1,-4.653822327E0,9.803454335E0
1.514733292E1,-1.053808594E1,2.105671234E0,-7.835456085E0,1.329960445E1
1.515733592E1,-4.775070190E0,4.278103638E-1,-1.539099426E0,5.035190570E0
1.516733992E1,5.069956970E-1,-4.375251617E0,6.266418915E0,7.659495895E0
1.517734292E1,-1.321751404E0,-8.824000397E0,9.685159607E0,1.316861141E1
1.518734592E1,-3.256927185E0,-1.150178192E1,7.495662689E0,1.410969600E1
1.519734992E1,-4.234544220E0,-1.395562912E1,5.307363281E0,1.551963446E1
1.520735292E1,-4.265230408E0,-1.582793564E1,3.942651215E0,1.686001885E1
1.521735592E1,-2.456990662E0,-1.681198929E1,2.943479004E0,1.724366132E1
1.522735892E1,1.866618347E-1,-1.666245026E1,2.272274780E-1,1.666504496E1
1.523736292E1,3.701053619E0,-1.596355362E1,-4.179458771E0,1.691155574E1
1.524736592E1,4.518653412E0,-1.452669159E1,-4.008214874E0,1.573241188E1
1.525736892E1,4.055067444E0,-1.206056992E1,-4.494403839E0,1.349446496E1
1.526737292E1,2.593057709E0,-9.792037354E0,-5.088817749E0,1.133596092E1
1.527737592E1,5.677693176E-1,-8.542286224E0,-4.147126007E0,9.512710973E0
1.528737892E1,-9.457333374E-1,-8.017028503E0,-2.993774414E0,8.609868920E0
1.529738292E1,-1.745969238E0,-7.710915070E0,-1.791773987E0,8.106606800E0
1.530738592E1,-2.186203766E0,-7.171137543E0,-2.281256104E-1,7.500449444E0
1.531738892E1,-1.852098541E0,-6.674320679E0,1.107846222E0,7.014566899E0
1.532739192E1,-1.713486786E0,-6.555467834E0,1.506467285E0,6.941155464E0
1.533739592E1,-1.599124603E0,-6.510561218E0,1.384470978E0,6.845536265E0
1.534739892E1,-1.383872223E0,-6.562952271E0,9.695338440E-1,6.776978730E0
1.535740192E1,-8.225395203E-1,-7.023694153E0,5.331912231E-1,7.091765908E0
1.536740592E1,-3.623963928E-1,-7.597900085E0,5.261558533E-1,7.624713558E0
1.537740892E1,-1.480421448E-1,-8.075706482E0,4.965174866E-1,8.092310008E0
1.538741192E1,-1.405577087E-1,-8.390801239E0,4.361929321E-1,8.403306860E0
1.539741592E1,-1.678010559E-1,-8.064330139E0,6.692582703E-1,8.093792956E0
1.540741892E1,-3.243754578E-1,-7.361541595E0,4.920268250E-1,7.385093398E0
1.541742192E1,-8.904981995E-1,-7.383695526E0,-1.784289551E-1,7.439340264E0
1.542742492E1,-1.354533234E0,-7.359296265E0,-1.030008087E0,7.553470623E0
1.543742892E1,-2.152673492E0,-7.761659546E0,-2.756368103E0,8.513220730E0
1.544743192E1,-2.013912048E0,-8.492739258E0,-5.619164886E0,1.038062984E1
1.545743492E1,-1.335971832E0,-9.369615784E0,-4.960384827E0,1.068550131E1
1.546743892E1,-4.873864746E-1,-9.995464325E0,-1.861678619E0,1.017903237E1
1.547744192E1,3.790118408E-1,-1.024694138E1,3.483256531E-1,1.025986298E1
1.548744492E1,5.257067871E-1,-1.081770447E1,1.206341400E0,1.089744728E1
1.549744792E1,8.173004150E-2,-1.144400208E1,1.098864899E0,1.149692861E1
1.550745192E1,-2.194436646E-1,-1.138038437E1,4.715194702E-1,1.139226205E1
1.551745492E1,-8.232879639E-2,-1.060589493E1,-7.532336426E-1,1.063292745E1
1.552745792E1,3.197351074E-1,-9.773026886E0,-2.119292908E0,1.000528298E1
1.553746192E1,1.289867706E0,-8.985813904E0,-2.988086243E0,9.557053396E0
1.554746492E1,3.426374817E0,-8.973389740E0,-2.749781799E0,9.991149471E0
1.555746792E1,6.903643799E0,-1.030232620E1,-1.254391479E0,1.246481933E1
1.556747192E1,8.359965363E0,-1.256591904E1,-6.602769470E-1,1.510719391E1
1.557747492E1,7.441475372E0,-1.478924561E1,-4.703219604E-1,1.656256454E1
1.558747792E1,4.579277344E0,-1.578886688E1,-5.556445312E-1,1.644891605E1
1.559748092E1,1.614243164E0,-1.551328995E1,-9.184899902E-1,1.562407021E1
1.560748492E1,-1.313817902E0,-1.552376816E1,1.561253357E-1,1.558004719E1
1.561748792E1,-2.573747864E0,-1.539458679E1,-9.343569946E-1,1.563619211E1
1.562749092E1,-3.260370026E0,-1.454300766E1,-6.445895691E0,1.623818511E1
1.563749492E1,-1.644480286E0,-1.392554169E1,-7.529192963E0,1.591583405E1
1.564749792E1,3.426374817E-1,-1.371373215E1,-4.076323242E0,1.431084418E1
1.565750092E1,1.300345917E0,-1.296753387E1,-1.622625732E-1,1.303357830E1
1.566750492E1,3.847000122E-2,-1.206086929E1,2.449655914E0,1.230718742E1
1.567750792E1,-4.849016418E0,-1.092922256E1,3.741020508E0,1.252821218E1
1.568751092E1,-6.920259247E0,-1.063119232E1,5.931864624E0,1.400354441E1
1.569751392E1,-6.004463654E0,-1.155881332E1,7.160659332E0,1.486387538E1
1.570751792E1,-5.871989136E0,-1.286305115E1,5.891897736E0,1.531838112E1
1.571752092E1,-6.470145264E0,-1.493085114E1,-1.248403931E-1,1.627294320E1
1.572752392E1,-6.151907043E0,-1.753768021E1,-7.981701965E0,2.022680779E1
1.573752792E1,-5.255570984E0,-1.832713852E1,-4.931794281E0,1.969333967E1
1.574753092E1,-4.691543884E0,-1.695314575E1,-1.292412415E0,1.763774546E1
1.575753392E1,-4.361180878E0,-1.513876877E1,-2.655477905E-1,1.575667268E1
1.576753792E1,-4.665498047E0,-1.471020996E1,-4.836442566E-1,1.543991777E1
1.577754092E1,-4.978946228E0,-1.461830109E1,-1.424437866E0,1.550850268E1
1.578754392E1,-4.213438110E0,-1.369457199E1,-9.740245056E-1,1.436116592E1
1.579754692E1,-2.649939423E0,-1.237850876E1,7.734416199E-1,1.268258136E1
1.580755092E1,-1.206640778E0,-1.111917755E1,1.529519348E0,1.128855707E1
1.581755392E1,-1.040635986E0,-9.717043304E0,1.065634003E0,9.830535574E0
1.582755692E1,-1.930984497E-2,-8.521778870E0,3.046165466E-1,8.527243354E0
1.583756092E1,1.105301514E0,-7.910450134E0,-5.999523926E-1,8.009797478E0
1.584756392E1,2.283202057E0,-7.327262878E0,-1.035097504E0,7.744237843E0
1.585756692E1,1.883682861E0,-6.742878113E0,-9.672885132E-1,7.067553568E0
1.586757092E1,2.453398132E-1,-5.570216675E0,-9.181906128E-1,5.650714949E0
1.587757392E1,-1.044827271E-1,-4.572691040E0,-3.135978699E-1,4.584622516E0
1.588757692E1,1.640588379E-1,-4.183949432E0,4.453239441E-1,4.210779212E0
1.589757992E1,3.080593872E-1,-3.754492493E0,1.127605133E0,3.932252255E0
1.590758392E1,3.350033569E-1,-3.445085907E0,1.929936676E0,3.963016494E0
1.591758692E1,-7.119195557E-1,-3.196902008E0,1.816023560E0,3.744990450E0
1.592758992E1,-2.041454773E0,-2.519710236E0,1.285227356E0,3.488307128E0
1.593759392E1,-3.238066406E0,-1.709145813E0,1.398092651E0,3.919300515E0
1.594759750E1,-3.949536896E0,-1.116378479E0,1.365909576E0,4.325604186E0
1.595760050E1,-4.201013947E0,-8.530760193E-1,1.568438416E0,4.564674790E0
1.596760450E1,-3.967050476E0,-8.599617004E-1,1.798360291E0,4.439721088E0
1.597760750E1,-3.890409851E0,-7.261399841E-1,1.158890076E0,4.123783978E0
1.598761050E1,-2.914738770E0,-1.283431091E0,1.196162567E0,3.402014454E0
1.599761450E1,-2.356399841E0,-1.870360565E0,1.150208130E0,3.220845789E0
1.600761750E1,-2.520009613E0,-2.288141785E0,-4.191284180E-2,3.404085481E0
1.601762050E1,-2.161804504E0,-2.872376862E0,-1.115330658E0,3.764028431E0
1.602762350E1,-1.640139313E0,-3.541036377E0,-2.578687592E0,4.677459276E0
1.603762750E1,-1.846560059E0,-5.118755493E0,-5.429060211E0,7.686750720E0
1.604763050E1,-1.481319580E0,-8.052205353E0,-1.027343628E1,1.313681132E1
1.605763350E1,1.853146362E-1,-1.218421280E1,-1.593032272E1,2.005653423E1
1.606763750E1,4.064048767E0,-1.785217621E1,-1.869971375E1,2.617051742E1
1.607764050E1,5.625152435E0,-2.580184479E1,-1.504685989E1,3.039384028E1
1.608764350E1,2.317480774E0,-3.049458618E1,-1.490495499E1,3.402129020E1
1.609764750E1,-1.160686340E0,-2.722748016E1,-1.353066284E1,3.042633244E1
1.610765050E1,-1.657652893E0,-1.999197647E1,-8.496780853E0,2.178582615E1
1.611765350E1,2.591111755E-1,-1.010473709E1,-6.594386902E0,1.206891830E1
1.612765750E1,1.830693054E0,-2.359393616E0,-7.543413391E0,8.113030314E0
1.613766050E1,1.931433563E0,2.373015289E0,-8.719817047E0,9.241041419E0
1.614766350E1,-2.269281006E-1,2.179467773E0,-9.465266876E0,9.715598447E0
1.615766750E1,-2.778671722E0,-3.733386383E0,-1.019859192E1,1.121028401E1
1.616767050E1,-5.147196350E0,-1.122934845E1,-8.853938141E0,1.519816165E1
1.617767350E1,-6.336173859E0,-1.872501114E1,-1.094523926E0,1.979826063E1
1.618767650E1,-7.637567596E0,-2.386771683E1,6.889423370E0,2.598969988E1
1.619768050E1,-8.501720581E0,-2.528990936E1,9.289532318E0,2.825162259E1
1.620768350E1,-1.822759552E0,-1.947959198E1,9.854008484E-1,1.958948623E1
1.621768650E1,-9.184899902E-1,-7.405699768E0,2.375559998E0,7.831430152E0
1.622769050E1,-8.764124908E0,5.480104065E-1,-1.153950348E0,8.856737674E0
1.623769350E1,-1.252415588E1,3.960613861E0,-8.757987671E0,1.578744092E1
1.624769650E1,-8.090974731E0,3.245999908E0,-4.892875214E0,9.997030327E0
1.625770050E1,3.317102051E-1,-1.222657471E0,4.125870209E0,4.315985163E0
1.626770350E1,5.903723145E-1,-7.009024658E0,9.018446045E0,1.143710344E1
1.627770650E1,-4.017794952E0,-1.061248123E1,8.368647308E0,1.409970539E1
1.628770950E1,-4.621040497E0,-1.294103897E1,6.203849030E0,1.507687792E1
1.629771350E1,-4.802014160E0,-1.555714874E1,4.804259491E0,1.697542713E1
1.630771650E1,-3.616329803E0,-1.736778351E1,3.066373444E0,1.800334389E1
1.631771950E1,8.921447754E-1,-1.807251801E1,-2.763553162E0,1.830434526E1
1.632772350E1,3.811823273E0,-1.716675156E1,-4.839735718E0,1.823870603E1
1.633772650E1,4.003125458E0,-1.495360382E1,-2.789149933E0,1.572941951E1
1.634772950E1,4.692591705E0,-1.274315048E1,-4.191882935E0,1.421197325E1
1.635773350E1,3.633544006E0,-1.091829529E1,-3.956572266E0,1.216824877E1
1.636773650E1,1.637594604E0,-9.646090851E0,-2.398462372E0,1.007379802E1
1.637773950E1,2.701881409E-1,-8.573271790E0,-1.847607880E0,8.774260407E0
1.638774350E1,-5.307962036E-1,-7.690258026E0,-1.750609589E0,7.904836940E0
1.639774650E1,-1.218166809E0,-7.354356537E0,-1.492695923E0,7.602541125E0
1.640774950E1,-2.073937225E0,-7.432194672E0,-7.072792053E-1,7.748482247E0
1.641775350E1,-2.028880920E0,-7.279512177E0,3.424877930E-1,7.564717655E0
