"Time (s)","Acceleration x (m/s^2)","Acceleration y (m/s^2)","Acceleration z (m/s^2)","Absolute acceleration (m/s^2)"
-1.367083314E-4,-1.059032730E1,-2.003134460E0,1.151555328E0,1.083944923E1
1.236729167E-2,-1.038585251E1,-1.842368774E0,5.933660889E-1,1.056467408E1
2.237029167E-2,-1.023975632E1,-1.688788147E0,3.662882996E-1,1.038454534E1
3.237329167E-2,-1.002136047E1,-1.494342499E0,4.245172119E-1,1.014105222E1
4.237629167E-2,-9.729617157E0,-1.319655762E0,7.795788574E-1,9.849603268E0
5.238029167E-2,-9.362879791E0,-1.208886108E0,1.307830353E0,9.530757779E0
6.238329167E-2,-8.933273163E0,-1.176253967E0,1.889520721E0,9.206369065E0
7.238629167E-2,-8.531658325E0,-1.106049957E0,2.402653656E0,8.932260905E0
8.238929167E-2,-8.079748077E0,-1.016087036E0,2.622696075E0,8.555308093E0
9.239329167E-2,-7.648045807E0,-1.012943573E0,2.849773865E0,8.224346201E0
1.023962917E-1,-7.235054626E0,-9.720785522E-1,3.124302979E0,7.940542882E0
1.123992917E-1,-6.927294617E0,-9.647438049E-1,3.347937927E0,7.754149191E0
1.224022917E-1,-6.721622314E0,-9.500743103E-1,3.491190033E0,7.633561134E0
1.324062917E-1,-6.633755035E0,-9.596543884E-1,3.609144745E0,7.612724099E0
1.424092917E-1,-6.711892548E0,-9.592053223E-1,3.656745758E0,7.703334730E0
1.524122917E-1,-6.790329437E0,-9.189390564E-1,3.504212952E0,7.696267359E0
1.624152917E-1,-6.840475159E0,-8.927435303E-1,3.135829010E0,7.577764511E0
1.724182917E-1,-6.842720490E0,-9.048683167E-1,2.739752655E0,7.426160177E0
1.824222917E-1,-6.774761810E0,-9.174421692E-1,2.414928131E0,7.250584500E0
1.924252917E-1,-6.770869904E0,-9.692344666E-1,2.212548981E0,7.188843279E0
2.024282917E-1,-6.857839050E0,-1.039288788E0,2.133064270E0,7.256723834E0
2.124312917E-1,-6.998696136E0,-1.138233032E0,2.105222168E0,7.396572343E0
2.224352917E-1,-7.212900696E0,-1.266516266E0,2.068997498E0,7.609911336E0
2.324382917E-1,-7.534581757E0,-1.407672729E0,2.029479675E0,7.929076397E0
2.424412917E-1,-7.970625000E0,-1.555116119E0,1.906884613E0,8.341789854E0
2.524442917E-1,-8.425229645E0,-1.797162781E0,1.667981415E0,8.774762141E0
2.624482917E-1,-8.837771759E0,-2.050585785E0,1.392703857E0,9.178819955E0
2.724512917E-1,-9.077273712E0,-2.266885986E0,1.166524200E0,9.428491334E0
2.824542917E-1,-9.193731537E0,-2.470612335E0,1.067130890E0,9.579529906E0
2.924572917E-1,-9.260642395E0,-2.711461487E0,1.122366028E0,9.714485394E0
3.024612917E-1,-9.377100220E0,-2.938539276E0,1.255588989E0,9.906640466E0
3.124642917E-1,-9.630822601E0,-3.099304962E0,1.423988800E0,1.021695548E1
3.224672917E-1,-9.949509888E0,-3.171005859E0,1.696122894E0,1.057945452E1
3.324702917E-1,-1.041968216E1,-3.237767029E0,1.970202942E0,1.108758816E1
3.424742917E-1,-1.099748062E1,-3.360212402E0,2.165995789E0,1.170158729E1
3.524772917E-1,-1.138846756E1,-3.510200500E0,2.241139526E0,1.212606314E1
3.624802917E-1,-1.169083878E1,-3.606749725E0,2.276016998E0,1.244446095E1
3.724832917E-1,-1.198452805E1,-3.602558441E0,2.278861084E0,1.272008442E1
3.824862917E-1,-1.233809280E1,-3.616778870E0,2.291584625E0,1.305989983E1
3.924902917E-1,-1.283311340E1,-3.815116425E0,2.252066803E0,1.357629249E1
4.024932917E-1,-1.340163116E1,-4.226610718E0,2.156715088E0,1.421686942E1
4.124962917E-1,-1.384949982E1,-4.690795441E0,2.093696136E0,1.477145120E1
4.224992917E-1,-1.396715515E1,-5.015470276E0,2.051932983E0,1.498154845E1
4.325032917E-1,-1.371747437E1,-5.003644867E0,2.141147461E0,1.475771247E1
4.425062917E-1,-1.338082443E1,-4.771178284E0,2.436333618E0,1.441340786E1
4.525092917E-1,-1.303624100E1,-4.287234650E0,2.750979309E0,1.399613688E1
4.625122917E-1,-1.248972748E1,-3.493135986E0,2.896027679E0,1.328842608E1
4.725162917E-1,-1.209499832E1,-2.964285736E0,3.027454376E0,1.281567222E1
4.825192917E-1,-1.185250259E1,-2.731070709E0,3.177592163E0,1.257130291E1
4.925222917E-1,-1.167063080E1,-2.656376038E0,3.404520264E0,1.244390273E1
5.025252917E-1,-1.149399811E1,-2.814746704E0,3.599714355E0,1.236902320E1
5.125292917E-1,-1.136047577E1,-3.261717224E0,3.731739807E0,1.239455892E1
5.225322917E-1,-1.123234222E1,-3.926784210E0,3.798500977E0,1.249054666E1
5.325352917E-1,-1.109073669E1,-4.591551819E0,3.815266113E0,1.259535804E1
5.425382917E-1,-1.092383377E1,-5.086422729E0,3.886068878E0,1.266109678E1
5.525422917E-1,-1.067235672E1,-5.460794220E0,4.017495575E0,1.264356525E1
5.625452917E-1,-1.036863831E1,-5.598208466E0,4.094285889E0,1.247444489E1
5.725482917E-1,-9.993668060E0,-5.436394958E0,4.077071686E0,1.208512743E1
5.825512917E-1,-9.689799957E0,-5.034480743E0,3.984863434E0,1.162399915E1
5.925542917E-1,-9.647737427E0,-4.522994385E0,3.797602844E0,1.131185675E1
6.025582917E-1,-9.751920776E0,-3.947291565E0,3.570075989E0,1.110974852E1
6.125612917E-1,-9.769284668E0,-3.398682404E0,3.254232788E0,1.084343101E1
6.225642917E-1,-9.656419373E0,-2.906206512E0,2.917433167E0,1.049780395E1
6.325672917E-1,-9.560618591E0,-2.490221558E0,2.647544403E0,1.022820232E1
6.425712917E-1,-9.456435242E0,-2.162253571E0,2.433639221E0,1.000110533E1
6.525742917E-1,-9.345366211E0,-1.853146362E0,2.263293457E0,9.792472534E0
6.625764167E-1,-9.273515625E0,-1.620230713E0,2.117646332E0,9.649231347E0
6.725794167E-1,-9.164841614E0,-1.481768646E0,2.115700378E0,9.521877347E0
6.825834167E-1,-8.983119507E0,-1.384770355E0,2.186802521E0,9.348589748E0
6.925864167E-1,-8.759035492E0,-1.358874207E0,2.289938049E0,9.154837963E0
7.025894167E-1,-8.379275208E0,-1.420995026E0,2.363135834E0,8.821331579E0
7.125924167E-1,-7.950566711E0,-1.503024445E0,2.362986145E0,8.429371094E0
7.225964167E-1,-7.592361603E0,-1.592538300E0,2.295925598E0,8.090204404E0
7.325994167E-1,-7.291936340E0,-1.687740326E0,2.278861084E0,7.823938320E0
7.426024167E-1,-7.099436646E0,-1.774260406E0,2.348915405E0,7.685532139E0
7.526054167E-1,-6.908583527E0,-1.821112976E0,2.453098755E0,7.553983871E0
7.626094167E-1,-6.696324921E0,-1.882485352E0,2.540966034E0,7.405472769E0
7.726124167E-1,-6.495891724E0,-1.929786987E0,2.555934906E0,7.242478191E0
7.826154167E-1,-6.226901093E0,-1.951641541E0,2.490221558E0,6.984583404E0
7.926184167E-1,-5.956114197E0,-2.025737457E0,2.403851166E0,6.734790939E0
8.026214167E-1,-5.695057068E0,-2.109114075E0,2.313588867E0,6.498825327E0
8.126254167E-1,-5.503455505E0,-2.180964661E0,2.175725555E0,6.307012846E0
8.226284167E-1,-5.346132660E0,-2.256707153E0,1.980232086E0,6.131490904E0
8.326314167E-1,-5.200036469E0,-2.335742798E0,1.780697021E0,5.972181810E0
8.426344167E-1,-5.117108917E0,-2.434986420E0,1.623374176E0,5.894854218E0
8.526384167E-1,-5.003495178E0,-2.548450470E0,1.441951447E0,5.797308666E0
8.626414167E-1,-5.012027435E0,-2.727627869E0,1.260828094E0,5.843805292E0
8.726444167E-1,-5.168452148E0,-2.944676514E0,1.205892334E0,6.069447562E0
8.826474167E-1,-5.401367798E0,-3.109483795E0,1.311871948E0,6.369040082E0
8.926514167E-1,-5.635780334E0,-3.171604614E0,1.492546234E0,6.636926252E0
9.026544167E-1,-5.924978943E0,-3.254083099E0,1.623074799E0,6.951892123E0
9.126574167E-1,-6.198011169E0,-3.398682404E0,1.750010834E0,7.282096021E0
9.226604167E-1,-6.543642426E0,-3.645668793E0,1.833537140E0,7.711810137E0
9.326644167E-1,-6.996600494E0,-4.024530945E0,1.857936401E0,8.282583865E0
9.426674167E-1,-7.296277313E0,-4.437372437E0,1.870210876E0,8.742060712E0
9.526704167E-1,-7.510781250E0,-4.673880615E0,1.937570801E0,9.056002186E0
9.626734167E-1,-7.679181061E0,-4.741539917E0,2.133513336E0,9.273828859E0
9.726774167E-1,-7.727979584E0,-4.725822601E0,2.381098480E0,9.366146362E0
9.826804167E-1,-7.956853638E0,-4.827311554E0,2.582429810E0,9.658333209E0
9.926834167E-1,-8.475674744E0,-5.140909424E0,2.702480164E0,1.027469762E1
1.002686417E0,-9.228309631E0,-5.523513794E0,2.783910828E0,1.110950326E1
1.012690417E0,-9.949060822E0,-5.904321899E0,2.794389038E0,1.190182500E1
1.022693417E0,-1.061008621E1,-6.129304047E0,2.857707367E0,1.258208206E1
1.032696417E0,-1.101529358E1,-6.048621826E0,2.953957214E0,1.290923630E1
1.042699417E0,-1.117546051E1,-5.715414734E0,2.949017487E0,1.289393607E1
1.052703417E0,-1.118578903E1,-5.134323120E0,2.982547760E0,1.266407286E1
1.062706417E0,-1.095766342E1,-4.324357452E0,3.074905701E0,1.217478953E1
1.072709417E0,-1.057460999E1,-3.485501862E0,3.104993134E0,1.155906925E1
1.082712417E0,-1.032537827E1,-2.916085968E0,3.281326447E0,1.121980824E1
1.092716417E0,-1.058089691E1,-2.697540436E0,3.743265839E0,1.154314268E1
1.102719417E0,-1.091754684E1,-2.654430084E0,4.245770874E0,1.201105318E1
1.112722417E0,-1.135673355E1,-2.935844879E0,4.651576996E0,1.261870638E1
1.122725417E0,-1.179906372E1,-3.315156097E0,4.905449066E0,1.320119673E1
1.132728417E0,-1.199889816E1,-3.614683228E0,4.973407745E0,1.348236910E1
1.142732417E0,-1.194680649E1,-3.831731873E0,4.657564545E0,1.338287196E1
1.152735417E0,-1.171987839E1,-3.955225067E0,4.023183746E0,1.300712736E1
1.162738417E0,-1.147438889E1,-3.906875610E0,3.261717224E0,1.255245301E1
1.172741417E0,-1.125734024E1,-3.674558716E0,2.554887085E0,1.211435261E1
1.182745417E0,-1.100122284E1,-3.331921234E0,1.820514221E0,1.163799274E1
1.192748417E0,-1.066577042E1,-2.968926086E0,1.193767548E0,1.113545067E1
1.202751417E0,-1.038989410E1,-2.639161835E0,8.069718933E-1,1.075017573E1
1.212754417E0,-1.019200562E1,-2.305056610E0,6.813830566E-1,1.047160672E1
1.222758417E0,-9.976304169E0,-1.926942902E0,7.343728638E-1,1.018720066E1
1.232761417E0,-9.657766571E0,-1.502575378E0,1.010997620E0,9.826103200E0
1.242764417E0,-9.267378387E0,-1.102457428E0,1.383572845E0,9.434722485E0
1.252767417E0,-8.767717438E0,-7.280859375E-1,1.715881805E0,8.963661560E0
1.262771417E0,-8.226742401E0,-4.577481079E-1,2.050585785E0,8.490802431E0
1.272774417E0,-7.797435150E0,-2.466870117E-1,2.349514160E0,8.147457652E0
1.282777417E0,-7.278464355E0,-1.020877075E-1,2.500250702E0,7.696604371E0
1.292780417E0,-6.757547607E0,-6.032455444E-2,2.576142883E0,7.232191983E0
1.302784417E0,-6.437812500E0,-1.580712891E-1,2.575993195E0,6.935860239E0
1.312787417E0,-6.244115295E0,-2.661465454E-1,2.593357086E0,6.766484374E0
1.322790417E0,-6.136339417E0,-3.653901672E-1,2.601140900E0,6.674886170E0
1.332793417E0,-6.201454010E0,-5.041516113E-1,2.639012146E0,6.758445516E0
1.342796417E0,-6.427933044E0,-7.111711121E-1,2.673141174E0,6.997840475E0
1.352800417E0,-6.719526672E0,-8.955876160E-1,2.704575806E0,7.298550964E0
1.362803417E0,-7.001091156E0,-9.684860229E-1,2.701731720E0,7.566544577E0
1.372806417E0,-7.382198639E0,-1.010398865E0,2.530936890E0,7.869142530E0
1.382809417E0,-7.910899200E0,-1.020877075E0,2.355950775E0,8.317152170E0
1.392813417E0,-8.343948669E0,-1.017284546E0,2.123334503E0,8.669769124E0
1.402816417E0,-8.593928833E0,-1.006956024E0,1.883233795E0,8.855288970E0
1.412819417E0,-8.893605652E0,-1.103954315E0,1.706002350E0,9.122794563E0
1.422822417E0,-9.280401306E0,-1.249002686E0,1.595382385E0,9.499005267E0
1.432826417E0,-9.724228363E0,-1.404229889E0,1.634600830E0,9.960140497E0
1.442829417E0,-1.016446289E1,-1.515747986E0,1.730700989E0,1.042157012E1
1.452832417E0,-1.064481400E1,-1.623972931E0,1.789977722E0,1.091573971E1
1.462835417E0,-1.114926498E1,-1.808838501E0,1.877545624E0,1.145002987E1
1.472839417E0,-1.155402328E1,-2.059567108E0,2.027084656E0,1.190992624E1
1.482842417E0,-1.197090637E1,-2.378553772E0,2.163301392E0,1.239515996E1
1.492845417E0,-1.237791000E1,-2.783012695E0,2.309547272E0,1.289541873E1
1.502848417E0,-1.273985733E1,-3.182980957E0,2.474504242E0,1.336257849E1
1.512852417E0,-1.303190002E1,-3.489842834E0,2.587668915E0,1.373701029E1
1.522855417E0,-1.326661194E1,-3.609743500E0,2.670297089E0,1.400584617E1
1.532858417E0,-1.350461700E1,-3.534599762E0,2.746488647E0,1.422713168E1
1.542861417E0,-1.377181137E1,-3.455713806E0,2.687211914E0,1.445080808E1
1.552865417E0,-1.410561722E1,-3.607797546E0,2.530038757E0,1.477787997E1
1.562868417E0,-1.447804276E1,-4.032913513E0,2.411934357E0,1.522154857E1
1.572871417E0,-1.463551529E1,-4.555177460E0,2.318378906E0,1.550234918E1
1.582874417E0,-1.448971848E1,-4.868326263E0,2.395468597E0,1.547225943E1
1.592878417E0,-1.423180481E1,-4.906646576E0,2.615660706E0,1.527943486E1
1.602881417E0,-1.411699356E1,-4.863087158E0,2.895578613E0,1.520932278E1
1.612884417E0,-1.382495087E1,-4.387825470E0,3.122656403E0,1.483688855E1
1.622887417E0,-1.325613373E1,-3.581152954E0,3.274291077E0,1.411632813E1
1.632890417E0,-1.291065216E1,-3.088377686E0,3.301983490E0,1.367940463E1
1.642894417E0,-1.276979507E1,-3.054847412E0,3.204236755E0,1.351543163E1
1.652897417E0,-1.266067200E1,-3.339854736E0,3.023113403E0,1.343824616E1
1.662901417E0,-1.249571503E1,-3.877835999E0,2.922522583E0,1.340603015E1
1.672904417E0,-1.228600113E1,-4.586911469E0,2.912194061E0,1.343378036E1
1.682908417E0,-1.215008377E1,-5.244643707E0,2.982697449E0,1.356566649E1
1.692911417E0,-1.197150513E1,-5.692662048E0,3.085383911E0,1.361039787E1
1.702914417E0,-1.151076324E1,-5.878874817E0,3.261567535E0,1.333029116E1
1.712917417E0,-1.098595459E1,-5.775589600E0,3.415896606E0,1.287311086E1
1.722921417E0,-1.049632278E1,-5.489983521E0,3.499123535E0,1.235137954E1
1.732924417E0,-1.012778915E1,-5.086572418E0,3.597618713E0,1.189067671E1
1.742927417E0,-9.833800507E0,-4.640949097E0,3.663481750E0,1.147445595E1
1.752930417E0,-9.569899292E0,-4.169429626E0,3.697461090E0,1.107421936E1
1.762934417E0,-9.286987610E0,-3.695664825E0,3.687731323E0,1.065389317E1
1.772937417E0,-8.984915771E0,-3.281476135E0,3.634142761E0,1.023248702E1
1.782940417E0,-8.709488525E0,-2.944676514E0,3.561394043E0,9.859504941E0
1.792943417E0,-8.448431396E0,-2.632425842E0,3.472778320E0,9.506095315E0
1.802947417E0,-8.177494812E0,-2.403551788E0,3.313808899E0,9.144933680E0
1.812950417E0,-7.961044922E0,-2.243833923E0,3.143912201E0,8.848571119E0
1.822953417E0,-7.799081726E0,-2.138602753E0,2.985840912E0,8.620588347E0
1.832956417E0,-7.596403198E0,-2.103126526E0,2.843187561E0,8.379271940E0
1.842960417E0,-7.392377472E0,-2.050585785E0,2.721790009E0,8.140042236E0
1.852963417E0,-7.202422485E0,-2.026635590E0,2.701132965E0,7.954763401E0
1.862966417E0,-7.055128784E0,-2.026934967E0,2.542462921E0,7.768360524E0
1.872969417E0,-6.915469208E0,-2.177970886E0,2.405198364E0,7.638864491E0
1.882972417E0,-6.787784729E0,-2.316432953E0,2.354154510E0,7.548637401E0
1.892976417E0,-6.656807098E0,-2.407144318E0,2.305954742E0,7.444786886E0
1.902979417E0,-6.538403320E0,-2.537223816E0,2.229613495E0,7.359306965E0
1.912982417E0,-6.417604523E0,-2.695893860E0,2.174827423E0,7.292692633E0
1.922985417E0,-6.269712067E0,-2.843486938E0,2.104324036E0,7.198811500E0
1.932989417E0,-6.045478363E0,-2.954256592E0,1.998643799E0,7.019260480E0
1.942992417E0,-5.835165710E0,-3.069217529E0,1.894310760E0,6.859859209E0
1.952995417E0,-5.660329285E0,-3.213966522E0,1.808539124E0,6.755717740E0
1.962998417E0,-5.544170837E0,-3.352877655E0,1.743424530E0,6.709630984E0
1.973002417E0,-5.524262238E0,-3.507805481E0,1.746418304E0,6.772898158E0
1.983005417E0,-5.621559906E0,-3.726800079E0,1.780547333E0,6.975766869E0
1.993008417E0,-5.722899170E0,-3.884272614E0,1.802102509E0,7.147497611E0
2.003011417E0,-5.789061584E0,-4.011058960E0,1.756746826E0,7.258649146E0
2.013015417E0,-5.828579407E0,-4.102219391E0,1.727108459E0,7.333719756E0
2.023018417E0,-5.915249176E0,-4.226910095E0,1.610950012E0,7.446616796E0
2.033021417E0,-5.974376221E0,-4.397405548E0,1.498234406E0,7.568028351E0
2.043024417E0,-6.115233307E0,-4.587510223E0,1.478026428E0,7.786262940E0
2.053028417E0,-6.449488220E0,-4.830904083E0,1.502425690E0,8.197000398E0
2.063031417E0,-6.763984222E0,-5.068909149E0,1.515598297E0,8.587337231E0
2.073034417E0,-6.990762634E0,-5.310656433E0,1.486558685E0,8.904138964E0
2.083037417E0,-7.081024933E0,-5.474266205E0,1.454525299E0,9.067753218E0
2.093040417E0,-7.107220459E0,-5.498515778E0,1.504072266E0,9.110899615E0
2.103044417E0,-7.422315216E0,-5.506149902E0,1.703307953E0,9.397324507E0
2.113047417E0,-8.009693756E0,-5.662574615E0,1.938618622E0,9.998909316E0
2.123050417E0,-8.662186890E0,-5.965394897E0,2.073188782E0,1.071995941E1
2.133053417E0,-9.216633911E0,-6.331234131E0,2.050136719E0,1.136811008E1
2.143057417E0,-9.449100494E0,-6.613397369E0,2.014361115E0,1.170812434E1
2.153060417E0,-9.375753021E0,-6.609206085E0,2.049537964E0,1.165276601E1
2.163063417E0,-9.192833405E0,-6.302044830E0,2.182611237E0,1.135727726E1
2.173066417E0,-9.140592041E0,-5.779780884E0,2.484383698E0,1.109632607E1
2.183070417E0,-9.260941772E0,-5.074896698E0,2.778222656E0,1.091962179E1
2.193073417E0,-9.235943756E0,-4.250710602E0,2.918031921E0,1.057762298E1
2.203076417E0,-9.335935822E0,-3.493884430E0,2.936892700E0,1.039193268E1
2.213079417E0,-9.557774506E0,-2.960244141E0,3.071462860E0,1.046651723E1
2.223083417E0,-9.761500854E0,-2.782413940E0,3.233875122E0,1.065301246E1
2.233086417E0,-1.003273682E1,-3.091072083E0,3.443289642E0,1.104838351E1
2.243089417E0,-1.030382309E1,-3.781436462E0,3.664978638E0,1.157152109E1
2.253092417E0,-1.048794022E1,-4.522545319E0,3.885470123E0,1.206429377E1
2.263096417E0,-1.054452255E1,-5.035378876E0,4.030518494E0,1.236070692E1
2.273099417E0,-1.057910065E1,-5.254074097E0,4.060007172E0,1.249024913E1
2.283102417E0,-1.073836945E1,-5.225483551E0,3.945944366E0,1.257731027E1
2.293105417E0,-1.097502731E1,-4.912783813E0,3.575165405E0,1.254465930E1
2.303108417E0,-1.118474121E1,-4.444707184E0,2.936593323E0,1.238860114E1
2.313112417E0,-1.116677856E1,-3.816014557E0,2.269580383E0,1.201706727E1
2.323115417E0,-1.097787140E1,-3.041824493E0,1.612147522E0,1.150501527E1
2.333118417E0,-1.072878937E1,-2.329156494E0,9.598040771E-1,1.102057690E1
2.343121417E0,-1.048060547E1,-1.805096283E0,5.993536377E-1,1.065179273E1
2.353125417E0,-1.029693741E1,-1.335373077E0,6.192622375E-1,1.040161656E1
2.363128417E0,-1.012913635E1,-9.008267212E-1,8.762777710E-1,1.020679944E1
2.373131417E0,-9.929750977E0,-6.122268677E-1,1.328188019E0,1.003687499E1
2.383134417E0,-9.675878906E0,-3.956272888E-1,1.781744843E0,9.846510460E0
2.393138417E0,-9.428593140E0,-3.303630066E-1,2.229164429E0,9.694157125E0
2.403141417E0,-9.016350403E0,-2.788700867E-1,2.629731445E0,9.396160417E0
2.413144417E0,-8.465495911E0,-2.261796570E-1,2.845133514E0,8.933675781E0
2.423147417E0,-7.898924103E0,-2.980302429E-1,2.914289703E0,8.424660734E0
2.433151417E0,-7.254963226E0,-3.845503235E-1,2.794089661E0,7.783913373E0
2.443154417E0,-6.902146912E0,-5.240602112E-1,2.548300781E0,7.376185191E0
2.453157417E0,-6.749913483E0,-7.343728638E-1,2.440674591E0,7.215090296E0
2.463160417E0,-6.665039978E0,-8.652008057E-1,2.448009338E0,7.152907106E0
2.473163417E0,-6.691983948E0,-9.382489014E-1,2.528990936E0,7.215175349E0
2.483167417E0,-6.771768036E0,-1.003213806E0,2.569406891E0,7.311985506E0
2.493170417E0,-6.942263489E0,-1.064885559E0,2.628084869E0,7.499055519E0
2.503173417E0,-7.192543030E0,-1.066681824E0,2.615511017E0,7.727314102E0
2.513176417E0,-7.487130432E0,-1.083147583E0,2.519111481E0,7.973471857E0
2.523180417E0,-7.782765656E0,-1.102607117E0,2.328557739E0,8.198131790E0
2.533183417E0,-8.180189209E0,-1.119671631E0,2.083666992E0,8.515329012E0
2.543186417E0,-8.664731598E0,-1.261576538E0,1.898202667E0,8.959482261E0
2.553189417E0,-9.123228149E0,-1.409618683E0,1.857637024E0,9.416535032E0
2.563193417E0,-9.639654236E0,-1.572629700E0,1.909129944E0,9.951928210E0
2.573196417E0,-1.018781433E1,-1.864223328E0,1.939217377E0,1.053695656E1
2.583199417E0,-1.079076050E1,-2.149530029E0,1.981279907E0,1.117973441E1
2.593202417E0,-1.139894577E1,-2.414928131E0,2.093845825E0,1.183858239E1
2.603206417E0,-1.208631638E1,-2.783611450E0,2.271376648E0,1.260899235E1
2.613209417E0,-1.286514679E1,-3.201093292E0,2.464026031E0,1.348445121E1
2.623212417E0,-1.353620132E1,-3.657643890E0,2.637814636E0,1.426762668E1
2.633215417E0,-1.403316788E1,-3.995191956E0,2.800675964E0,1.485715805E1
2.643219417E0,-1.427775925E1,-4.053420868E0,2.975662079E0,1.513734437E1
2.653222417E0,-1.433134781E1,-3.861819305E0,3.139870605E0,1.517102389E1
2.663224792E0,-1.450753143E1,-3.648961945E0,3.192860413E0,1.529633123E1
2.673227792E0,-1.492097168E1,-3.711980896E0,3.054997101E0,1.567632627E1
2.683230792E0,-1.546808395E1,-4.095633087E0,2.816542969E0,1.624711500E1
2.693234792E0,-1.594574066E1,-4.684807892E0,2.615361328E0,1.682421425E1
2.703237792E0,-1.606818604E1,-5.095853119E0,2.425256653E0,1.703044895E1
2.713240792E0,-1.559382248E1,-5.125491486E0,2.205962677E0,1.656213253E1
2.723243792E0,-1.467458405E1,-4.832251282E0,1.968556366E0,1.557463590E1
2.733247792E0,-1.380638947E1,-4.310286713E0,1.735341339E0,1.456730487E1
2.743250792E0,-1.322350159E1,-3.861819305E0,1.606159973E0,1.386918860E1
2.753253792E0,-1.294163773E1,-3.723057861E0,1.655557251E0,1.356790392E1
2.763256792E0,-1.289209076E1,-3.848646698E0,1.802850952E0,1.357454814E1
2.773260792E0,-1.292083099E1,-4.285139008E0,1.864223328E0,1.373992789E1
2.783263792E0,-1.296543823E1,-5.061574402E0,1.944606171E0,1.405359801E1
2.793266792E0,-1.302531372E1,-5.923332367E0,2.163750458E0,1.447157489E1
2.803269792E0,-1.292951294E1,-6.653813324E0,2.453098755E0,1.474663453E1
2.813272792E0,-1.260603561E1,-7.153025208E0,2.755170593E0,1.475360527E1
2.823276792E0,-1.204694824E1,-7.291487274E0,3.006348267E0,1.439905825E1
2.833279792E0,-1.141062149E1,-7.005432129E0,3.123704224E0,1.374903234E1
2.843282792E0,-1.090302704E1,-6.434519348E0,3.140319672E0,1.304379720E1
2.853285792E0,-1.063553329E1,-5.805377655E0,3.138074341E0,1.251656857E1
2.863289792E0,-1.040186920E1,-5.207221527E0,3.150049438E0,1.205142524E1
2.873292792E0,-1.011461655E1,-4.646936646E0,3.148552551E0,1.156775135E1
2.883295792E0,-9.935439148E0,-4.164340210E0,3.155288544E0,1.122544103E1
2.893298792E0,-9.716743927E0,-3.710933075E0,3.193010101E0,1.088032400E1
2.903302792E0,-9.456884308E0,-3.378624115E0,3.241359558E0,1.055244870E1
2.913305792E0,-9.192983093E0,-3.110830994E0,3.274590454E0,1.024261443E1
2.923308792E0,-8.854686584E0,-2.879711609E0,3.241808624E0,9.859388248E0
2.933311792E0,-8.513246613E0,-2.730771332E0,3.184627533E0,9.490749837E0
2.943315792E0,-8.149952087E0,-2.618504791E0,3.103945312E0,9.105644561E0
2.953318792E0,-7.774383087E0,-2.499352570E0,2.984643402E0,8.694589806E0
2.963321792E0,-7.481292572E0,-2.423161011E0,2.859353943E0,8.367637229E0
2.973324792E0,-7.280859375E0,-2.375559998E0,2.708916779E0,8.123572407E0
2.983328792E0,-7.052883453E0,-2.369273071E0,2.546055450E0,7.863778878E0
2.993331792E0,-6.831793213E0,-2.445614319E0,2.393822021E0,7.640995470E0
3.003334792E0,-6.630611572E0,-2.531535645E0,2.218686218E0,7.436144907E0
3.013337792E0,-6.438111877E0,-2.639760590E0,2.058369598E0,7.256342462E0
3.023340792E0,-6.265520782E0,-2.777474213E0,1.944306793E0,7.124004673E0
3.033344792E0,-6.064189453E0,-2.924169159E0,1.821562042E0,6.974471110E0
3.043347792E0,-5.882617035E0,-3.066223755E0,1.663640442E0,6.839196650E0
3.053350792E0,-5.702391815E0,-3.196303253E0,1.568737793E0,6.722690322E0
3.063353792E0,-5.489384766E0,-3.334465942E0,1.560504913E0,6.609628114E0
3.073357792E0,-5.247338104E0,-3.438200226E0,1.553319855E0,6.462861637E0
3.083360792E0,-5.089416504E0,-3.587739258E0,1.599723358E0,6.429086106E0
3.093363792E0,-4.891228638E0,-3.734583893E0,1.678609314E0,6.378790141E0
3.103366792E0,-4.631967773E0,-3.892505493E0,1.686542816E0,6.281015136E0
3.113370792E0,-4.456382904E0,-4.078418884E0,1.607806549E0,6.251231165E0
3.123373792E0,-4.385131073E0,-4.268673248E0,1.479373627E0,6.295990165E0
3.133376792E0,-4.299209747E0,-4.389322357E0,1.410217438E0,6.303813800E0
3.143379792E0,-4.259841614E0,-4.499792633E0,1.429377594E0,6.359049034E0
3.153382792E0,-4.375550995E0,-4.656666412E0,1.474733276E0,6.557806556E0
3.163386792E0,-4.663252716E0,-4.857997742E0,1.552870789E0,6.910678378E0
3.173389792E0,-5.054239655E0,-5.050048370E0,1.634301453E0,7.329342963E0
3.183392792E0,-5.444927216E0,-5.247936859E0,1.708247681E0,7.752817797E0
3.193395792E0,-5.746849365E0,-5.416336670E0,1.835632782E0,8.107559945E0
3.203399792E0,-6.047873383E0,-5.447022858E0,2.047142944E0,8.392712595E0
3.213402792E0,-6.463558960E0,-5.376519470E0,2.268682251E0,8.708126963E0
3.223405792E0,-7.189848633E0,-5.499413910E0,2.529440002E0,9.398699029E0
3.233408792E0,-7.964637451E0,-5.857768707E0,2.662962341E0,1.023915389E1
3.243412792E0,-8.669222260E0,-6.283633118E0,2.546055450E0,1.100553761E1
3.253415792E0,-9.190737762E0,-6.691085815E0,2.351609802E0,1.160906364E1
3.263418792E0,-9.413175201E0,-6.790628815E0,2.203268280E0,1.181418208E1
3.273421792E0,-9.464967499E0,-6.529571686E0,2.236499176E0,1.171421550E1
3.283425792E0,-9.420509949E0,-5.892197113E0,2.456691284E0,1.137977709E1
3.293428792E0,-9.339528351E0,-4.989274750E0,2.678080902E0,1.092207717E1
3.303431792E0,-9.260492706E0,-4.102369080E0,2.784808960E0,1.050434758E1
3.313434792E0,-9.449848938E0,-3.351380768E0,2.798131256E0,1.040965593E1
3.323437792E0,-9.813293152E0,-2.854264526E0,2.844983826E0,1.060855699E1
3.333441792E0,-1.035756134E1,-2.837050323E0,2.929857330E0,1.113157650E1
3.343444792E0,-1.113953522E1,-3.346141663E0,3.006497955E0,1.201353149E1
3.353447792E0,-1.180250656E1,-4.203858032E0,2.893033905E0,1.285850803E1
3.363450792E0,-1.212224167E1,-5.064717865E0,2.628983002E0,1.339819621E1
3.373454792E0,-1.232267487E1,-5.782924347E0,2.441123657E0,1.382930275E1
3.383457792E0,-1.252161118E1,-6.179749146E0,2.367177429E0,1.416275308E1
3.393460792E0,-1.248508713E1,-6.151757355E0,2.238445129E0,1.409723929E1
3.403463792E0,-1.229617996E1,-5.728138275E0,2.004032593E0,1.371217548E1
3.413467792E0,-1.201506454E1,-4.959187317E0,1.714235229E0,1.311083206E1
3.423470792E0,-1.150522476E1,-4.201013947E0,1.499282227E0,1.233963380E1
3.433473792E0,-1.119372253E1,-3.655997314E0,1.404379578E0,1.185909029E1
3.443476792E0,-1.084764221E1,-3.210523682E0,1.449286194E0,1.140522838E1
3.453480792E0,-1.040097107E1,-2.681074677E0,1.587149506E0,1.085759661E1
3.463483792E0,-9.879904633E0,-2.312391357E0,1.847158813E0,1.031366400E1
3.473486792E0,-9.312434692E0,-2.053878937E0,2.292183380E0,9.807852121E0
3.483489792E0,-8.734187164E0,-1.794468384E0,2.775977325E0,9.338746828E0
3.493492792E0,-8.227341156E0,-1.577569427E0,3.123704224E0,8.940659700E0
3.503496792E0,-7.755522308E0,-1.388512573E0,3.319048004E0,8.549396066E0
3.513499792E0,-7.334298248E0,-1.176852722E0,3.389701080E0,8.164985397E0
3.523502792E0,-6.968159637E0,-1.010997620E0,3.391647034E0,7.815410067E0
3.533505792E0,-6.608607330E0,-8.875044250E-1,3.308120728E0,7.443454688E0
3.543509792E0,-6.313720551E0,-7.999365234E-1,3.158432007E0,7.104833452E0
3.553512792E0,-6.118077393E0,-7.310797119E-1,2.937192078E0,6.825865940E0
3.563515792E0,-5.979765015E0,-6.881190491E-1,2.701282654E0,6.597577240E0
3.573518792E0,-5.911656647E0,-6.875202942E-1,2.467468872E0,6.442730097E0
3.583522792E0,-6.007457428E0,-7.632627869E-1,2.287992096E0,6.473563367E0
3.593525792E0,-6.218219147E0,-9.101074219E-1,2.171234894E0,6.648970284E0
3.603528792E0,-6.457122345E0,-1.035995636E0,2.033670959E0,6.848615445E0
3.613531792E0,-6.800957336E0,-1.158141632E0,1.823957062E0,7.135904434E0
3.623534792E0,-7.209008789E0,-1.229393463E0,1.665287018E0,7.500293118E0
3.633538792E0,-7.658074951E0,-1.237326965E0,1.579216003E0,7.916502584E0
3.643541792E0,-8.262368317E0,-1.259181519E0,1.575623474E0,8.504990160E0
3.653544792E0,-8.958420868E0,-1.333427124E0,1.594633942E0,9.196422660E0
3.663547667E0,-9.640252991E0,-1.501377869E0,1.616937561E0,9.889545000E0
3.673551667E0,-1.037103333E1,-1.784888306E0,1.649120636E0,1.065193679E1
3.683554667E0,-1.121003860E1,-2.205812988E0,1.740879822E0,1.155686978E1
3.693557667E0,-1.200967575E1,-2.692151642E0,1.911674652E0,1.245529976E1
3.703560667E0,-1.268656815E1,-3.079246674E0,2.177821198E0,1.323531928E1
3.713564667E0,-1.322499847E1,-3.265758820E0,2.528841248E0,1.385499200E1
3.723567667E0,-1.374486740E1,-3.386856995E0,2.907254333E0,1.445144657E1
3.733570667E0,-1.430320633E1,-3.566034393E0,3.237767029E0,1.509243015E1
3.743573667E0,-1.472053848E1,-3.716770935E0,3.469784546E0,1.557395403E1
3.753576667E0,-1.495689697E1,-3.730392609E0,3.680995331E0,1.584848014E1
3.763580667E0,-1.506392441E1,-3.591182098E0,3.905528412E0,1.597095988E1
3.773583667E0,-1.508787460E1,-3.478167114E0,4.095633087E0,1.601611117E1
3.783586667E0,-1.523441986E1,-3.713627472E0,4.205354919E0,1.623464159E1
3.793589667E0,-1.543170959E1,-4.241878967E0,4.234843597E0,1.655491161E1
3.803593667E0,-1.548245407E1,-4.810845795E0,4.224964142E0,1.675413213E1
3.813596667E0,-1.531944305E1,-5.230722656E0,4.263134766E0,1.673977637E1
3.823599667E0,-1.498264343E1,-5.402714996E0,4.195325775E0,1.647026690E1
3.833602667E0,-1.465662140E1,-5.225034485E0,4.006867676E0,1.606774797E1
3.843606667E0,-1.422896072E1,-4.747228088E0,3.798051910E0,1.547335439E1
3.853609667E0,-1.379186966E1,-4.123774567E0,3.508853302E0,1.481665404E1
3.863612667E0,-1.351988525E1,-3.755091248E0,3.144510956E0,1.437970642E1
3.873615667E0,-1.340402618E1,-3.801794128E0,2.741249542E0,1.419985935E1
3.883619667E0,-1.332109863E1,-4.189338226E0,2.351759491E0,1.416096735E1
3.893622667E0,-1.314222061E1,-4.792583771E0,2.100132751E0,1.414557809E1
3.903625667E0,-1.296004944E1,-5.448968811E0,2.133513336E0,1.421991637E1
3.913628667E0,-1.284673508E1,-6.145919495E0,2.421514435E0,1.444557582E1
3.923631667E0,-1.249990631E1,-6.816974030E0,2.722987518E0,1.449598061E1
3.933635667E0,-1.196132629E1,-7.110663300E0,3.012934570E0,1.423771871E1
3.943638667E0,-1.132320328E1,-6.941365356E0,3.302582245E0,1.368592470E1
3.953641667E0,-1.075049423E1,-6.447841644E0,3.517984314E0,1.302013831E1
3.963644667E0,-1.030247589E1,-5.858966217E0,3.552263031E0,1.237283586E1
3.973648667E0,-1.006447083E1,-5.235812073E0,3.494034119E0,1.187078664E1
3.983651667E0,-9.893226929E0,-4.568200378E0,3.461401978E0,1.143353390E1
3.993654667E0,-9.601034546E0,-3.928430786E0,3.475921783E0,1.094049656E1
4.003657667E0,-9.334888000E0,-3.398083649E0,3.435954895E0,1.051155995E1
4.013660667E0,-9.261540527E0,-3.082689514E0,3.376528473E0,1.032860359E1
4.023664667E0,-9.001980286E0,-2.784210205E0,3.298989716E0,9.983526865E0
4.033667667E0,-8.633746033E0,-2.569107513E0,3.178639984E0,9.552258169E0
4.043670667E0,-8.322992249E0,-2.475552063E0,3.011138306E0,9.190620865E0
4.053673667E0,-8.115523682E0,-2.478096771E0,2.875370636E0,8.959377463E0
4.063677667E0,-7.956254883E0,-2.489173737E0,2.864892426E0,8.815077212E0
4.073680667E0,-7.716453552E0,-2.444566498E0,2.867586823E0,8.587352035E0
4.083683667E0,-7.459288330E0,-2.474653931E0,2.802472229E0,8.343784816E0
4.093686667E0,-7.205416260E0,-2.618504791E0,2.666405182E0,8.116914895E0
4.103690667E0,-6.953190765E0,-2.713706818E0,2.558778992E0,7.890400271E0
4.113693667E0,-6.747219086E0,-2.830164642E0,2.495610352E0,7.730644754E0
4.123696667E0,-6.669081573E0,-3.003055115E0,2.465522919E0,7.718406074E0
4.133699667E0,-6.593039703E0,-3.206182709E0,2.471360779E0,7.736627443E0
4.143702667E0,-6.459367676E0,-3.397784271E0,2.479893036E0,7.708322658E0
4.153706667E0,-6.273454285E0,-3.605402527E0,2.437680817E0,7.635276276E0
4.163709667E0,-6.128854980E0,-3.861370239E0,2.408641205E0,7.633779925E0
4.173712667E0,-6.026916962E0,-4.097728729E0,2.381547546E0,7.667260105E0
4.183715667E0,-5.863606567E0,-4.300257568E0,2.315834198E0,7.631329187E0
4.193719667E0,-5.760021973E0,-4.541406097E0,2.227966919E0,7.665902364E0
4.203722667E0,-5.691314850E0,-4.851411438E0,2.121238861E0,7.773474897E0
4.213725667E0,-5.694458313E0,-5.120551758E0,2.091899872E0,7.938699570E0
4.223728667E0,-5.551355896E0,-5.201084290E0,2.107317810E0,7.893644179E0
4.233732667E0,-5.379662933E0,-5.166805573E0,2.121238861E0,7.754760306E0
4.243735667E0,-5.284760284E0,-5.166955261E0,2.058369598E0,7.672222842E0
4.253738667E0,-5.293741608E0,-5.271887054E0,1.961520996E0,7.724251287E0
4.263741667E0,-5.404660950E0,-5.403014374E0,1.905537415E0,7.876166399E0
4.273745667E0,-5.599405975E0,-5.461542664E0,1.843865662E0,8.036270038E0
4.283748667E0,-5.865402832E0,-5.495522003E0,1.817670135E0,8.240609030E0
4.293751667E0,-6.154451752E0,-5.601351929E0,1.825753326E0,8.519729749E0
4.303754667E0,-6.277495880E0,-5.695206757E0,1.775158539E0,8.659880043E0
4.313757667E0,-6.077811127E0,-5.642516327E0,1.750160522E0,8.475897619E0
4.323761667E0,-5.876180420E0,-5.518723755E0,1.779798889E0,8.255512843E0
4.333764667E0,-6.002517700E0,-5.562582550E0,1.929038544E0,8.407956534E0
4.343767667E0,-6.600224762E0,-5.830525360E0,2.143392792E0,9.063780974E0
4.353770667E0,-7.352260895E0,-6.201753387E0,2.301464081E0,9.890107293E0
4.363774667E0,-8.015531616E0,-6.589596863E0,2.353256378E0,1.063998823E1
4.373777667E0,-8.425379333E0,-6.823260956E0,2.339634705E0,1.109133885E1
4.383780667E0,-8.566835175E0,-6.799909515E0,2.281405792E0,1.117292472E1
4.393783667E0,-8.453820190E0,-6.265969849E0,2.391726379E0,1.079119127E1
4.403787667E0,-8.304730225E0,-5.434299316E0,2.561024323E0,1.024982921E1
4.413790667E0,-8.201594696E0,-4.757406921E0,2.725083160E0,9.865351205E0
4.423793667E0,-8.203989716E0,-4.216731262E0,2.879561920E0,9.663236862E0
4.433796667E0,-8.473579102E0,-3.919599152E0,3.103196869E0,9.838426252E0
4.443799667E0,-8.965156860E0,-3.813170471E0,3.374582520E0,1.031029164E1
4.453803667E0,-9.532028046E0,-4.098177795E0,3.512445831E0,1.095408123E1
4.463806667E0,-1.008722351E1,-4.837789764E0,3.568878479E0,1.174279275E1
4.473809667E0,-1.039857605E1,-5.576353912E0,3.554208984E0,1.232308842E1
4.483812667E0,-1.051159103E1,-6.071973267E0,3.446283417E0,1.261900451E1
4.493816667E0,-1.089644073E1,-6.423442383E0,3.363056488E0,1.308828414E1
4.503819667E0,-1.131242569E1,-6.454427948E0,3.380270691E0,1.345573651E1
4.513822667E0,-1.150672165E1,-6.083948364E0,3.202739868E0,1.340435054E1
4.523825667E0,-1.160117523E1,-5.507796478E0,2.806064758E0,1.314523063E1
4.533829667E0,-1.155297546E1,-4.718936920E0,2.335742798E0,1.269627119E1
4.543832667E0,-1.131961075E1,-3.885619812E0,1.812281342E0,1.210437906E1
4.553835667E0,-1.110136459E1,-3.175945587E0,1.298699341E0,1.161953296E1
4.563838667E0,-1.084809128E1,-2.590962067E0,9.891430664E-1,1.119698945E1
4.573841667E0,-1.065020279E1,-1.994452515E0,1.072070618E0,1.088825035E1
4.583845667E0,-1.059885956E1,-1.502276001E0,1.405128021E0,1.079662178E1
4.593848667E0,-1.039109161E1,-1.066232758E0,1.659000092E0,1.057657404E1
4.603851667E0,-1.009231293E1,-7.125183105E-1,1.937720490E0,1.030132143E1
4.613854667E0,-9.642648010E0,-3.900888062E-1,2.318528595E0,9.925140038E0
4.623858667E0,-9.127120056E0,-2.095642090E-1,2.722239075E0,9.526742531E0
4.633861667E0,-8.697812805E0,-2.001338196E-1,3.030448151E0,9.212796380E0
4.643864667E0,-8.296796722E0,-2.570155334E-1,3.145109711E0,8.876632691E0
4.653867667E0,-8.014633484E0,-3.688330078E-1,3.077300720E0,8.593030164E0
4.663871833E0,-7.858208771E0,-5.051994324E-1,2.770738220E0,8.347674037E0
4.673874833E0,-7.741750946E0,-5.977070618E-1,2.444416809E0,8.140462823E0
4.683877833E0,-7.733218689E0,-6.454577637E-1,2.189047852E0,8.062953399E0
4.693880833E0,-7.826774139E0,-7.134164429E-1,1.860780487E0,8.076500509E0
4.703883833E0,-7.971672821E0,-8.195457458E-1,1.432071991E0,8.140642050E0
4.713887833E0,-8.060288544E0,-8.928932190E-1,9.650431824E-1,8.166811988E0
4.723890833E0,-8.189619598E0,-9.836045837E-1,6.679110718E-1,8.275472938E0
4.733893833E0,-8.517437897E0,-1.104702759E0,5.406756592E-1,8.605779841E0
4.743896833E0,-8.872649231E0,-1.204395447E0,4.920268250E-1,8.967528264E0
4.753900833E0,-9.123527527E0,-1.309027863E0,4.435276794E-1,9.227622949E0
4.763903833E0,-9.439370728E0,-1.503922577E0,3.978726196E-1,9.566702957E0
4.773906833E0,-9.853858795E0,-1.716330872E0,4.001179504E-1,1.001021574E1
4.783909833E0,-1.035067566E1,-1.925895081E0,5.239105225E-1,1.054134909E1
4.793913833E0,-1.097158447E1,-2.126028900E0,6.951544189E-1,1.119727219E1
4.803916833E0,-1.171419022E1,-2.349514160E0,9.949809265E-1,1.198884716E1
4.813919833E0,-1.256187744E1,-2.575843506E0,1.424587555E0,1.290213875E1
4.823922833E0,-1.337663315E1,-2.850073242E0,1.922003174E0,1.381127540E1
4.833925833E0,-1.414708099E1,-3.139571228E0,2.386936340E0,1.468653374E1
4.843929833E0,-1.494162872E1,-3.497027893E0,2.658172302E0,1.557393184E1
4.853932833E0,-1.558349396E1,-3.809577942E0,2.822829895E0,1.628884700E1
4.863935833E0,-1.593047241E1,-3.882027283E0,2.929408264E0,1.665627569E1
4.873938833E0,-1.596879272E1,-3.690425720E0,3.044668579E0,1.667008068E1
4.883942833E0,-1.594948288E1,-3.471730499E0,3.188369751E0,1.663143465E1
4.893945833E0,-1.614991608E1,-3.599864044E0,3.248544617E0,1.686214258E1
4.903948833E0,-1.642175079E1,-4.203109589E0,3.187022552E0,1.724810546E1
4.913951833E0,-1.627550491E1,-4.872966614E0,3.129691772E0,1.727520866E1
4.923954833E0,-1.565504517E1,-5.311404877E0,3.007545776E0,1.680288048E1
4.933958833E0,-1.477592331E1,-5.234165497E0,2.866838379E0,1.593559413E1
4.943961833E0,-1.366089203E1,-4.750521240E0,2.779120789E0,1.472789650E1
4.953964833E0,-1.278132111E1,-4.173620911E0,2.705623627E0,1.371501659E1
4.963967833E0,-1.230486191E1,-3.745810547E0,2.583477631E0,1.311926369E1
4.973971833E0,-1.211221252E1,-3.600013733E0,2.531236267E0,1.288692935E1
4.983974833E0,-1.216535202E1,-3.866459656E0,2.463876343E0,1.300061486E1
4.993977833E0,-1.228106140E1,-4.522994385E0,2.535577240E0,1.333083266E1
5.003980833E0,-1.252071304E1,-5.454357605E0,2.699486389E0,1.392140434E1
5.013984833E0,-1.260513748E1,-6.366111603E0,2.955603790E0,1.442748979E1
5.023987833E0,-1.228615082E1,-6.969656525E0,3.367696838E0,1.452126014E1
5.033990833E0,-1.173694290E1,-7.359146576E0,3.758833466E0,1.435415257E1
5.043993833E0,-1.121452927E1,-7.520061951E0,4.116140442E0,1.411593463E1
5.053996833E0,-1.066502197E1,-7.284900970E0,4.386627960E0,1.364019724E1
5.064000833E0,-1.018691620E1,-6.661597137E0,4.509522400E0,1.298021303E1
5.074003833E0,-9.927655334E0,-5.866300964E0,4.417613525E0,1.234856820E1
5.084006833E0,-9.997709656E0,-5.161566467E0,4.129013672E0,1.198518755E1
5.094009833E0,-1.009994705E1,-4.588707733E0,3.734733582E0,1.170527249E1
5.104013833E0,-1.005414230E1,-4.071233826E0,3.204985199E0,1.131073174E1
5.114016833E0,-1.001118164E1,-3.513044586E0,2.733914795E0,1.095625530E1
5.124019833E0,-9.870324554E0,-3.009791107E0,2.400408325E0,1.059453205E1
5.134022833E0,-9.771230621E0,-2.653981018E0,2.172881470E0,1.035577023E1
5.144026833E0,-9.710906067E0,-2.431992645E0,2.073787537E0,1.022334973E1
5.154029833E0,-9.607022095E0,-2.242486725E0,2.014660492E0,1.006888659E1
5.164032833E0,-9.427096252E0,-2.118245087E0,1.978435822E0,9.862622080E0
5.174035833E0,-9.092691650E0,-2.070943451E0,1.908980255E0,9.518931339E0
5.184038833E0,-8.739725647E0,-2.141297150E0,1.786983948E0,9.173945144E0
5.194042833E0,-8.411308594E0,-2.289788361E0,1.653611298E0,8.872861620E0
5.204045833E0,-8.059540100E0,-2.447859650E0,1.660496979E0,8.585188041E0
5.214048833E0,-7.765102386E0,-2.563269653E0,1.830543365E0,8.379621435E0
5.224051833E0,-7.443271637E0,-2.707419891E0,2.019151154E0,8.173700907E0
5.234055833E0,-7.125033417E0,-2.904260559E0,2.119143219E0,7.980701634E0
5.244058833E0,-6.800208893E0,-3.089575195E0,2.199076996E0,7.786157943E0
5.254061833E0,-6.466702423E0,-3.299588470E0,2.231409760E0,7.595045347E0
5.264064833E0,-6.135890350E0,-3.539539490E0,2.222727814E0,7.424150398E0
5.274067833E0,-5.802234192E0,-3.764671326E0,2.191143494E0,7.255327809E0
5.284071833E0,-5.434898071E0,-3.892056427E0,2.170486450E0,7.028316421E0
5.294074833E0,-4.997208252E0,-3.984264679E0,2.182012482E0,6.753342418E0
5.304077833E0,-4.651876373E0,-4.091890869E0,2.215542755E0,6.579677376E0
5.314080833E0,-4.381388855E0,-4.239933014E0,2.173929291E0,6.472987627E0
5.324084833E0,-4.134701843E0,-4.419409790E0,2.098037109E0,6.405365090E0
5.334087833E0,-3.933220825E0,-4.643194427E0,1.947599945E0,6.389258650E0
5.344090833E0,-3.743864594E0,-4.812192993E0,1.770368500E0,6.348852504E0
5.354093833E0,-3.562292175E0,-4.812941437E0,1.646126862E0,6.209997139E0
5.364096833E0,-3.462749176E0,-4.715793457E0,1.565294952E0,6.056359308E0
5.374100833E0,-3.476370850E0,-4.608017578E0,1.469045105E0,5.956263410E0
5.384103833E0,-3.733236694E0,-4.603676605E0,1.394051056E0,6.088864660E0
5.394106833E0,-4.233646088E0,-4.785997467E0,1.350491638E0,6.530953882E0
5.404109833E0,-4.781357117E0,-4.912185059E0,1.385668488E0,6.993641046E0
5.414113833E0,-5.203329620E0,-4.889731750E0,1.483864288E0,7.292871105E0
5.424116833E0,-5.483397217E0,-4.846771088E0,1.564696198E0,7.483789762E0
5.434119833E0,-5.748645630E0,-4.863985291E0,1.679956512E0,7.715408827E0
5.444122833E0,-6.081104279E0,-4.983736267E0,1.857637024E0,8.078878124E0
5.454126833E0,-6.652166748E0,-5.324876862E0,2.048939209E0,8.763777035E0
5.464129833E0,-7.283254395E0,-5.840853882E0,2.102827148E0,9.569913827E0
5.474132833E0,-7.992778931E0,-6.432274017E0,2.032772827E0,1.045900710E1
5.484135833E0,-8.576564941E0,-6.961273956E0,1.936223602E0,1.121453357E1
5.494139833E0,-9.034762115E0,-7.268135834E0,1.952988739E0,1.175869423E1
5.504142833E0,-9.367669830E0,-7.245383148E0,2.095043335E0,1.202655485E1
5.514145833E0,-9.649683380E0,-6.815477142E0,2.242636414E0,1.202482998E1
5.524148833E0,-9.878557434E0,-6.072572021E0,2.491269379E0,1.186037314E1
5.534151833E0,-1.004111938E1,-5.281766510E0,2.789299622E0,1.168337829E1
5.544155833E0,-1.051668045E1,-4.806504822E0,3.030298462E0,1.195348339E1
5.554158833E0,-1.109732300E1,-4.716841278E0,3.243155823E0,1.248668207E1
5.564161833E0,-1.160746216E1,-4.832400970E0,3.390748901E0,1.302238285E1
5.574164833E0,-1.211176346E1,-5.291945343E0,3.604504395E0,1.370007122E1
5.584168833E0,-1.244362335E1,-5.818250885E0,3.891158295E0,1.427714672E1
5.594171833E0,-1.252191055E1,-6.122118988E0,4.180356903E0,1.455176857E1
5.604174833E0,-1.249511627E1,-6.194418640E0,4.445006561E0,1.463751469E1
5.614177833E0,-1.251981491E1,-6.004313965E0,4.596940613E0,1.462632608E1
5.624180833E0,-1.257011032E1,-5.565875702E0,4.510121155E0,1.446816639E1
5.634184833E0,-1.260618530E1,-4.908742218E0,4.216132507E0,1.416994818E1
5.644187833E0,-1.246981888E1,-4.163741455E0,3.704346771E0,1.365852520E1
5.654190833E0,-1.215876572E1,-3.413800964E0,3.073408813E0,1.299751755E1
5.664194292E0,-1.179127991E1,-2.741548920E0,2.494113464E0,1.236005559E1
5.674198292E0,-1.140732834E1,-2.155667267E0,1.975292358E0,1.177606985E1
5.684201292E0,-1.098520615E1,-1.722318420E0,1.637893982E0,1.123938751E1
5.694204292E0,-1.048749115E1,-1.313668213E0,1.551523590E0,1.068271596E1
5.704207292E0,-1.012090347E1,-9.690847778E-1,1.718276825E0,1.031136692E1
5.714210292E0,-9.716145172E0,-6.795867920E-1,1.915117493E0,9.926378505E0
5.724214292E0,-9.239236908E0,-4.963677979E-1,2.038161621E0,9.474385596E0
5.734217292E0,-8.807384949E0,-3.661386108E-1,2.007026367E0,9.040588585E0
5.744220292E0,-8.290659485E0,-3.116519165E-1,1.806144104E0,8.490837305E0
5.754223292E0,-7.863148499E0,-3.109034729E-1,1.607656860E0,8.031832036E0
5.764227292E0,-7.658823395E0,-3.412902832E-1,1.518442383E0,7.815351695E0
5.774230292E0,-7.498955841E0,-3.679348755E-1,1.573378143E0,7.671064695E0
5.784233292E0,-7.427853699E0,-3.908372498E-1,1.688937836E0,7.627468475E0
5.794236292E0,-7.506589966E0,-3.595523071E-1,1.772015076E0,7.721282808E0
5.804239292E0,-7.723039856E0,-4.893324280E-1,1.946701813E0,7.979626482E0
5.814243292E0,-8.080646210E0,-6.201603699E-1,2.149829407E0,8.384700861E0
5.824246292E0,-8.403674469E0,-6.762936401E-1,2.183060303E0,8.708896024E0
5.834249292E0,-8.707392883E0,-7.967930603E-1,2.097438354E0,8.991819485E0
5.844252292E0,-9.006620636E0,-9.590556335E-1,1.921105042E0,9.259030596E0
5.854256292E0,-9.294472046E0,-1.175954590E0,1.776505737E0,9.535515321E0
5.864259292E0,-9.696386261E0,-1.391057281E0,1.757345581E0,9.952045537E0
5.874262292E0,-1.018137772E1,-1.558708649E0,1.849703522E0,1.046477080E1
5.884265292E0,-1.073372910E1,-1.670077057E0,1.972298584E0,1.104047369E1
5.894268292E0,-1.128323639E1,-1.743574219E0,2.026036835E0,1.159552930E1
5.904272292E0,-1.171658524E1,-1.788780212E0,2.090402985E0,1.203527685E1
5.914275292E0,-1.217104019E1,-1.809137878E0,2.109263763E0,1.248423778E1
5.924278292E0,-1.268746628E1,-1.845661926E0,2.167193298E0,1.300288411E1
5.934281292E0,-1.309656555E1,-1.857337646E0,2.328258362E0,1.343095378E1
5.944285292E0,-1.350641327E1,-1.913321228E0,2.518213348E0,1.387174812E1
5.954288292E0,-1.393946274E1,-2.132315826E0,2.703378296E0,1.435839986E1
5.964291292E0,-1.436532715E1,-2.501597900E0,2.763403473E0,1.484105842E1
5.974294292E0,-1.446037949E1,-2.690505066E0,2.706521759E0,1.495548904E1
5.984298292E0,-1.470482117E1,-3.122806091E0,2.717598724E0,1.527642060E1
5.994301292E0,-1.504117172E1,-3.499123535E0,2.800675964E0,1.569472836E1
6.004304292E0,-1.510898071E1,-3.724704437E0,2.778072968E0,1.580735306E1
6.014307292E0,-1.519699768E1,-4.066294098E0,2.735112305E0,1.596760237E1
6.024310292E0,-1.525822037E1,-4.650080109E0,2.628983002E0,1.616626381E1
6.034314292E0,-1.514924698E1,-5.352718964E0,2.486479340E0,1.625834751E1
6.044317292E0,-1.482906281E1,-5.824388123E0,2.499651947E0,1.612677465E1
6.054320292E0,-1.405337585E1,-5.785169678E0,2.641407166E0,1.542538793E1
6.064323292E0,-1.304627014E1,-5.160219269E0,2.811453552E0,1.430864419E1
6.074327292E0,-1.248733246E1,-4.487817535E0,3.004851379E0,1.360526038E1
6.084330292E0,-1.249032623E1,-4.172273712E0,3.167712708E0,1.354439076E1
6.094333292E0,-1.269989044E1,-4.224964142E0,3.181783447E0,1.375722665E1
6.104336292E0,-1.272204437E1,-4.588108978E0,3.138822784E0,1.388356458E1
6.114339292E0,-1.260274246E1,-5.205275574E0,3.069965973E0,1.397672002E1
6.124343292E0,-1.250334915E1,-5.903423767E0,2.915337524E0,1.413093575E1
6.134346292E0,-1.243269608E1,-6.597230988E0,2.948568420E0,1.438017539E1
6.144349292E0,-1.214200058E1,-7.096143494E0,3.163072357E0,1.441486931E1
6.154352292E0,-1.178993271E1,-7.282805328E0,3.386707306E0,1.426574755E1
6.164356292E0,-1.141660904E1,-7.200326843E0,3.550317078E0,1.395666221E1
6.174359292E0,-1.115450409E1,-6.842870178E0,3.657194824E0,1.358760125E1
6.184362292E0,-1.108100693E1,-6.314618683E0,3.678899689E0,1.327393787E1
6.194365292E0,-1.105825424E1,-5.747298431E0,3.630550232E0,1.298065180E1
6.204368292E0,-1.085407883E1,-5.126389618E0,3.520978088E0,1.250952375E1
6.214372292E0,-1.058748322E1,-4.557273102E0,3.276386719E0,1.198324868E1
6.224375292E0,-1.044857208E1,-4.143383789E0,3.040028229E0,1.164397095E1
6.234378292E0,-1.032238449E1,-3.752995605E0,2.908451843E0,1.136202842E1
6.244381292E0,-1.014290771E1,-3.401676178E0,2.772983551E0,1.105167026E1
6.254385292E0,-9.874216461E0,-3.176843719E0,2.652484131E0,1.070645407E1
6.264388292E0,-9.599387970E0,-2.996768188E0,2.550097046E0,1.037457777E1
6.274391292E0,-9.276060333E0,-2.929557953E0,2.455044708E0,1.003268905E1
6.284394292E0,-8.940009155E0,-2.896925812E0,2.385289764E0,9.695645936E0
6.294397292E0,-8.596922607E0,-2.885100403E0,2.362537079E0,9.370830492E0
6.304401292E0,-8.228688354E0,-2.945724335E0,2.364632721E0,9.054285825E0
6.314404292E0,-7.887547760E0,-3.022514648E0,2.396217041E0,8.780140123E0
6.324407292E0,-7.587721252E0,-3.090473328E0,2.465073853E0,8.555765792E0
6.334410292E0,-7.364834747E0,-3.221900024E0,2.498304749E0,8.418013854E0
6.344414292E0,-7.065756683E0,-3.373085632E0,2.517315216E0,8.224323686E0
6.354417292E0,-6.812782745E0,-3.523373108E0,2.552641754E0,8.083572646E0
6.364420292E0,-6.551875305E0,-3.674109650E0,2.557132416E0,7.935053744E0
6.374423292E0,-6.261479187E0,-3.763922882E0,2.576891327E0,7.746844905E0
6.384426292E0,-5.949378204E0,-3.835324402E0,2.557132416E0,7.526203590E0
6.394430292E0,-5.654491425E0,-3.927083588E0,2.515219574E0,7.329501230E0
6.404433292E0,-5.329517212E0,-4.010310516E0,2.444716187E0,7.103730103E0
6.414436292E0,-5.033432922E0,-4.055217133E0,2.355651398E0,6.879631275E0
6.424439292E0,-4.720433807E0,-4.152963867E0,2.224524078E0,6.669191224E0
6.434442292E0,-4.480482788E0,-4.321213989E0,2.002835083E0,6.539033929E0
6.444446292E0,-4.287384338E0,-4.487069092E0,1.784588928E0,6.457570065E0
6.454449292E0,-4.127816162E0,-4.618495789E0,1.585203552E0,6.393922108E0
6.464452292E0,-4.040847015E0,-4.757556610E0,1.405277710E0,6.398249365E0
6.474455292E0,-4.066144409E0,-4.896168365E0,1.367855530E0,6.509763726E0
6.484459292E0,-4.242328033E0,-4.958887939E0,1.412462769E0,6.677047837E0
6.494462292E0,-4.384382629E0,-4.785398712E0,1.420396271E0,6.643822502E0
6.504465292E0,-4.584965515E0,-4.699477386E0,1.311123505E0,6.695225263E0
6.514468292E0,-4.942122803E0,-4.809199219E0,1.231040039E0,7.004886473E0
6.524471292E0,-5.334307251E0,-4.905748444E0,1.238075409E0,7.352144745E0
6.534475292E0,-5.744753723E0,-4.909640350E0,1.385967865E0,7.682946741E0
6.544478292E0,-6.045178986E0,-4.805457001E0,1.483864288E0,7.863743331E0
6.554481292E0,-6.280190277E0,-4.802313538E0,1.488654327E0,8.044818018E0
6.564484292E0,-6.717431030E0,-5.084925842E0,1.547781372E0,8.565977915E0
6.574488292E0,-7.294630737E0,-5.625451813E0,1.531315613E0,9.338215739E0
6.584491292E0,-7.804620209E0,-6.275400238E0,1.493893433E0,1.012543640E1
6.594494292E0,-8.147407379E0,-6.769223328E0,1.483265533E0,1.069592016E1
6.604497292E0,-8.263416138E0,-6.970404968E0,1.476679230E0,1.091105738E1
6.614500292E0,-8.232580261E0,-6.788084106E0,1.525028687E0,1.077864445E1
6.624504292E0,-8.202941895E0,-6.215375061E0,1.630708923E0,1.042009378E1
6.634507292E0,-8.288114777E0,-5.410648499E0,1.988165588E0,1.009558152E1
6.644510292E0,-8.326884155E0,-4.654720459E0,2.518063660E0,9.866309689E0
6.654513292E0,-8.744515686E0,-4.142485657E0,2.960842896E0,1.011895907E1
6.664517417E0,-9.466314697E0,-3.815266113E0,3.352428589E0,1.074272530E1
6.674520417E0,-1.030906219E1,-3.866609344E0,3.573518829E0,1.157572754E1
6.684523417E0,-1.103071152E1,-4.234095154E0,3.733835449E0,1.239135527E1
6.694526417E0,-1.148022675E1,-4.945116577E0,3.728296967E0,1.304415510E1
6.704529417E0,-1.158830200E1,-5.785319366E0,3.624113617E0,1.344964174E1
6.714533417E0,-1.152124146E1,-6.305038605E0,3.495680695E0,1.359089033E1
6.724536417E0,-1.170326294E1,-6.535110168E0,3.538940735E0,1.386355401E1
6.734539417E0,-1.193378357E1,-6.412964172E0,3.599265289E0,1.401770346E1
6.744542417E0,-1.220397171E1,-5.973777466E0,3.492836609E0,1.402935673E1
6.754546417E0,-1.233450027E1,-5.440436554E0,3.180885315E0,1.385121938E1
6.764549417E0,-1.239572296E1,-4.812492371E0,2.727927246E0,1.357407889E1
6.774552417E0,-1.238270004E1,-4.111649780E0,2.332749023E0,1.325438200E1
6.784555417E0,-1.225561432E1,-3.403622131E0,2.148033142E0,1.289956481E1
6.794558417E0,-1.192031158E1,-2.695145416E0,2.129172363E0,1.240528162E1
6.804562417E0,-1.148471741E1,-2.115401001E0,2.168839874E0,1.187760589E1
6.814565417E0,-1.102637054E1,-1.665736084E0,2.294428711E0,1.138507476E1
6.824568417E0,-1.055395294E1,-1.311123505E0,2.395019531E0,1.090142587E1
6.834571417E0,-1.013227982E1,-1.059347076E0,2.564167786E0,1.050524949E1
6.844574417E0,-9.822723541E0,-9.011260986E-1,2.887645111E0,1.027795798E1
6.854578417E0,-9.620344391E0,-7.821235657E-1,3.169958038E0,1.015930005E1
6.864581417E0,-9.416917419E0,-6.996450806E-1,3.415746918E0,1.004167137E1
6.874584417E0,-9.119635620E0,-5.944139099E-1,3.534001007E0,9.798481763E0
6.884587417E0,-8.624165955E0,-5.608836365E-1,3.414848785E0,9.292578818E0
6.894591417E0,-8.091723175E0,-7.132667542E-1,3.134182434E0,8.706769374E0
6.904594417E0,-7.738308105E0,-9.223818970E-1,2.700833588E0,8.247830185E0
6.914597417E0,-7.558382263E0,-1.132844238E0,2.356699219E0,7.997906583E0
6.924600417E0,-7.381300507E0,-1.284478912E0,2.174378357E0,7.801371962E0
6.934603417E0,-7.303761749E0,-1.419198761E0,2.010918274E0,7.707324641E0
6.944607417E0,-7.407196655E0,-1.580712891E0,1.870360565E0,7.801503969E0
6.954610417E0,-7.544610901E0,-1.676663361E0,1.685644684E0,7.910357240E0
6.964613417E0,-7.675588531E0,-1.642085266E0,1.591340790E0,8.008961783E0
6.974616417E0,-7.816445618E0,-1.507066040E0,1.542841644E0,8.108540589E0
6.984619417E0,-7.999514923E0,-1.447190552E0,1.478774872E0,8.262770396E0
6.994623417E0,-8.268206177E0,-1.525328064E0,1.448986816E0,8.531671693E0
7.004626417E0,-8.685388641E0,-1.624571686E0,1.546284485E0,8.970295688E0
7.014629417E0,-9.334438934E0,-1.874252472E0,1.746717682E0,9.679648506E0
7.024632417E0,-1.009575577E1,-2.188299408E0,1.982627106E0,1.051873324E1
7.034636417E0,-1.095047836E1,-2.493365021E0,2.191293182E0,1.144253518E1
7.044639417E0,-1.175969559E1,-2.718347168E0,2.435884552E0,1.231313872E1
7.054642417E0,-1.263118332E1,-3.041674805E0,2.624492340E0,1.325467984E1
7.064645417E0,-1.354727829E1,-3.519780579E0,2.719694366E0,1.425883382E1
7.074648417E0,-1.428689026E1,-3.855682068E0,2.728825378E0,1.504752489E1
7.084652417E0,-1.487292160E1,-3.942800903E0,2.696193237E0,1.562110540E1
7.094655417E0,-1.530926422E1,-3.809278564E0,2.654879150E0,1.599789228E1
7.104658417E0,-1.574964844E1,-3.689078522E0,2.617307281E0,1.638630598E1
7.114661417E0,-1.630334702E1,-3.950435028E0,2.546504517E0,1.696731405E1
7.124665417E0,-1.680076263E1,-4.614903259E0,2.555785217E0,1.760951434E1
7.134668417E0,-1.684881271E1,-5.313350830E0,2.718646545E0,1.787470911E1
7.144671417E0,-1.633553009E1,-5.740712128E0,2.888842621E0,1.755422259E1
7.154674417E0,-1.558319458E1,-5.728287964E0,3.075205078E0,1.688508580E1
7.164677417E0,-1.483834351E1,-5.264402618E0,3.320095825E0,1.609078647E1
7.174681417E0,-1.412477737E1,-4.341122589E0,3.423830109E0,1.516829898E1
7.184684417E0,-1.368095032E1,-3.526067505E0,3.400628357E0,1.453154592E1
7.194687417E0,-1.350162323E1,-3.188369751E0,3.233575745E0,1.424484270E1
7.204690417E0,-1.343067078E1,-3.297193451E0,3.051105194E0,1.416204947E1
7.214693417E0,-1.336615494E1,-3.832480316E0,2.855012970E0,1.419482660E1
7.224697417E0,-1.320748489E1,-4.750072174E0,2.770588531E0,1.430653710E1
7.234700417E0,-1.309252396E1,-5.666915588E0,2.767894135E0,1.453235541E1
7.244703417E0,-1.273327103E1,-6.387068024E0,2.900817719E0,1.453772927E1
7.254706417E0,-1.207913132E1,-6.817273407E0,3.034489746E0,1.419819559E1
7.264710417E0,-1.136496643E1,-7.031178589E0,3.218457184E0,1.374621406E1
7.274713417E0,-1.053224808E1,-6.889872437E0,3.416794739E0,1.304120692E1
7.284716417E0,-9.825118561E0,-6.425088959E0,3.545826416E0,1.226326253E1
7.294719417E0,-9.246122589E0,-5.814358978E0,3.590583344E0,1.149738414E1
7.304722417E0,-8.871451721E0,-5.208419037E0,3.447031860E0,1.084953055E1
7.314726417E0,-8.642128601E0,-4.656816101E0,3.248394928E0,1.034042516E1
7.324729417E0,-8.575367432E0,-4.158202972E0,3.006647644E0,9.993373234E0
7.334732417E0,-8.520431671E0,-3.822002106E0,2.810555420E0,9.752162721E0
7.344735417E0,-8.405919800E0,-3.484154663E0,2.669548645E0,9.482895727E0
7.354738417E0,-8.225095825E0,-3.202290802E0,2.499053192E0,9.173447257E0
7.364742417E0,-8.039032745E0,-3.010539551E0,2.325563965E0,8.893685604E0
7.374745417E0,-7.854616241E0,-2.831212463E0,2.239642639E0,8.644464094E0
7.384748417E0,-7.686665497E0,-2.710563354E0,2.244282990E0,8.453921356E0
7.394751417E0,-7.537575531E0,-2.655028839E0,2.238145752E0,8.299007135E0
7.404755417E0,-7.366930389E0,-2.646945648E0,2.174378357E0,8.124401877E0
7.414758417E0,-7.191345520E0,-2.695893860E0,2.137255554E0,7.971897854E0
7.424761417E0,-7.063062286E0,-2.778072968E0,2.135010223E0,7.884339346E0
7.434764417E0,-6.794969788E0,-2.777174835E0,2.131717072E0,7.643855843E0
7.444767417E0,-6.699767761E0,-2.681673431E0,2.000739441E0,7.488739464E0
7.454771417E0,-6.886130219E0,-2.891836395E0,1.877695312E0,7.701119841E0
7.464774417E0,-6.732699280E0,-2.981499939E0,2.001487885E0,7.630500326E0
7.474777417E0,-6.607559509E0,-2.929258575E0,2.187401276E0,7.551498051E0
7.484780417E0,-6.446045380E0,-3.002306671E0,2.288441162E0,7.470094332E0
7.494783417E0,-6.385870514E0,-3.163222046E0,2.383493500E0,7.514409970E0
7.504787417E0,-6.409970398E0,-3.256029053E0,2.482437744E0,7.606046466E0
7.514790417E0,-6.481970673E0,-3.439996490E0,2.580633545E0,7.778765271E0
7.524793417E0,-6.689139862E0,-3.745361481E0,2.570903778E0,8.085905698E0
7.534796417E0,-6.814279633E0,-4.103716278E0,2.399809570E0,8.308668977E0
7.544800417E0,-6.872658234E0,-4.486620026E0,2.167792053E0,8.488964179E0
7.554803417E0,-6.872957611E0,-4.885390778E0,1.871258698E0,8.637487973E0
7.564806417E0,-6.827302551E0,-5.241350555E0,1.675316162E0,8.768722827E0
7.574809417E0,-6.807393951E0,-5.465135193E0,1.555116119E0,8.867169855E0
7.584812417E0,-6.705306244E0,-5.572462006E0,1.465302887E0,8.840847085E0
7.594816417E0,-6.565047913E0,-5.595364380E0,1.387315063E0,8.736852965E0
7.604819417E0,-6.690487061E0,-5.726342010E0,1.416654053E0,8.919670321E0
7.614822417E0,-7.025041351E0,-5.880671082E0,1.429826660E0,9.272427009E0
7.624825417E0,-7.192243652E0,-5.840255127E0,1.458716583E0,9.378955314E0
7.634828417E0,-7.236401825E0,-5.674100647E0,1.523082733E0,9.320982273E0
7.644832417E0,-7.306306458E0,-5.514083405E0,1.650617523E0,9.301170252E0
7.654835417E0,-7.551646271E0,-5.478008423E0,1.854942627E0,9.511926715E0
7.664838208E0,-7.995772705E0,-5.720653839E0,2.161505127E0,1.006629852E1
7.674841208E0,-8.618777161E0,-6.217620392E0,2.454595642E0,1.090720692E1
7.684845208E0,-8.940009155E0,-6.730453949E0,2.526446228E0,1.147195295E1
7.694848208E0,-8.841064911E0,-7.101532288E0,2.461780701E0,1.160416106E1
7.704851208E0,-8.418793030E0,-7.193441162E0,2.470312958E0,1.134566516E1
7.714854208E0,-7.801027679E0,-6.807094574E0,2.631228333E0,1.068250588E1
7.724857208E0,-7.278164978E0,-6.071524200E0,2.901865540E0,9.912412177E0
7.734861208E0,-7.159162445E0,-5.278922424E0,3.134781189E0,9.431197272E0
7.744864208E0,-7.284002838E0,-4.575834503E0,3.257975006E0,9.198334626E0
7.754867208E0,-7.370971985E0,-4.026327209E0,3.382216644E0,9.054387236E0
7.764870208E0,-7.733817444E0,-3.837869110E0,3.585344238E0,9.348575553E0
7.774873208E0,-8.345894623E0,-4.187541962E0,3.846551056E0,1.009878308E1
7.784877208E0,-8.996741180E0,-4.827311554E0,4.030368805E0,1.097670995E1
7.794880208E0,-9.367520142E0,-5.449417877E0,4.046385498E0,1.156805188E1
7.804883208E0,-9.481582947E0,-5.945336609E0,3.972139893E0,1.187540896E1
7.814886208E0,-9.650880890E0,-6.260581055E0,3.903582458E0,1.214793534E1
7.824890208E0,-1.000444565E1,-6.370452576E0,3.886068878E0,1.248091063E1
7.834893208E0,-1.041369461E1,-6.147865448E0,3.838767242E0,1.268768769E1
7.844896208E0,-1.074989548E1,-5.544919281E0,3.549568634E0,1.260578518E1
7.854899208E0,-1.076815750E1,-4.700974274E0,3.026406555E0,1.213307511E1
7.864902208E0,-1.046473846E1,-3.745361481E0,2.408790894E0,1.137280780E1
7.874906208E0,-1.019649628E1,-2.922821960E0,1.700314178E0,1.074255523E1
7.884909208E0,-9.909093933E0,-2.215542755E0,1.171463928E0,1.022111051E1
7.894912208E0,-9.611812134E0,-1.595232697E0,8.246351624E-1,9.778124718E0
7.904915208E0,-9.332942047E0,-1.121318207E0,6.956034851E-1,9.425763947E0
7.914918208E0,-9.040899353E0,-7.455995178E-1,7.442523193E-1,9.102070713E0
7.924922208E0,-8.776698761E0,-4.911286926E-1,8.303233337E-1,8.829557485E0
7.934925208E0,-8.510552216E0,-3.891906738E-1,9.379495239E-1,8.570922804E0
7.944928208E0,-8.197403412E0,-3.547622681E-1,1.082399139E0,8.276162569E0
7.954931208E0,-7.852520599E0,-4.273612976E-1,1.264270935E0,7.965117604E0
7.964935208E0,-7.419770508E0,-5.278024292E-1,1.494492188E0,7.587165261E0
7.974938208E0,-7.042255554E0,-6.354286194E-1,1.682351532E0,7.268248723E0
7.984941208E0,-6.747368774E0,-7.533833313E-1,1.742526398E0,7.009348762E0
7.994944208E0,-6.559659119E0,-9.048683167E-1,1.773961029E0,6.855279145E0
8.004947208E0,-6.519093475E0,-1.038240967E0,1.898951111E0,6.868954751E0
8.014951208E0,-6.562652893E0,-1.178050232E0,2.027234344E0,6.968923477E0
8.024954208E0,-6.682254181E0,-1.351689148E0,2.143692169E0,7.146677592E0
8.034957208E0,-6.821165314E0,-1.584604797E0,2.283800812E0,7.365800347E0
8.044960208E0,-6.994504852E0,-1.778302002E0,2.415526886E0,7.610533902E0
8.054964208E0,-7.271129608E0,-1.905387726E0,2.482138367E0,7.915859968E0
8.064967208E0,-7.589966583E0,-2.038760376E0,2.465073853E0,8.236548167E0
8.074970208E0,-7.923922119E0,-2.193239136E0,2.398162994E0,8.564462937E0
8.084973208E0,-8.374485168E0,-2.335443420E0,2.300865326E0,8.993346377E0
8.094976208E0,-9.044641571E0,-2.500250702E0,2.210902405E0,9.640792715E0
8.104980208E0,-9.728419647E0,-2.655028839E0,2.113155670E0,1.030323997E1
8.114983208E0,-1.037058426E1,-2.805316315E0,1.989063721E0,1.092589548E1
8.124986208E0,-1.106873245E1,-2.928510132E0,1.894610138E0,1.160528144E1
8.134989208E0,-1.182735489E1,-2.995271301E0,1.854792938E0,1.234091693E1
8.144992208E0,-1.263687149E1,-3.110381927E0,2.007026367E0,1.316788334E1
8.154996208E0,-1.350596420E1,-3.338507538E0,2.170187073E0,1.408071069E1
8.164999208E0,-1.433029999E1,-3.582051086E0,2.261197815E0,1.494327954E1
8.175002208E0,-1.501692215E1,-3.706143036E0,2.357896729E0,1.564618561E1
8.185005208E0,-1.551373901E1,-3.707340546E0,2.468217316E0,1.614040176E1
8.195009208E0,-1.595157852E1,-3.684288483E0,2.575843506E0,1.657292396E1
8.205012208E0,-1.633927231E1,-3.857478333E0,2.561174011E0,1.698268445E1
8.215015208E0,-1.662502808E1,-4.348607025E0,2.396067352E0,1.735059308E1
8.225018208E0,-1.670002213E1,-4.897216187E0,2.343077545E0,1.756028125E1
8.235021208E0,-1.645153885E1,-5.164410553E0,2.477198639E0,1.742012572E1
8.245025208E0,-1.591385696E1,-5.083578644E0,2.693498840E0,1.692183652E1
8.255028208E0,-1.534249512E1,-4.751269684E0,2.852767639E0,1.631272519E1
8.265031208E0,-1.469419327E1,-4.001329193E0,2.856210480E0,1.549476974E1
8.275034208E0,-1.413241150E1,-3.241808624E0,2.747237091E0,1.475742828E1
8.285037208E0,-1.369606888E1,-2.830913086E0,2.668201447E0,1.423782535E1
8.295041208E0,-1.330927322E1,-2.789449310E0,2.650687866E0,1.385438297E1
8.305044208E0,-1.302636154E1,-3.162623291E0,2.695145416E0,1.367304245E1
8.315047208E0,-1.276814850E1,-3.884871368E0,2.805316315E0,1.363772860E1
8.325050208E0,-1.243224701E1,-4.751269684E0,2.958298187E0,1.363403306E1
8.335054208E0,-1.226684097E1,-5.542823639E0,3.186872864E0,1.383309221E1
8.345057208E0,-1.197674423E1,-6.163582764E0,3.438948669E0,1.390174532E1
8.355060208E0,-1.155402328E1,-6.537654877E0,3.606001282E0,1.375643960E1
8.365063208E0,-1.108894043E1,-6.564149780E0,3.726051636E0,1.341402710E1
8.375066208E0,-1.065409470E1,-6.327192535E0,3.752247162E0,1.294690920E1
8.385070208E0,-1.029244675E1,-5.892795868E0,3.690425720E0,1.242089953E1
8.395073208E0,-1.004650818E1,-5.335654449E0,3.480562134E0,1.189604337E1
8.405076208E0,-9.947863312E0,-4.723876648E0,3.213218079E0,1.147169410E1
8.415079208E0,-9.839937744E0,-4.207300873E0,3.047512665E0,1.112713300E1
8.425082208E0,-9.619895325E0,-3.790118408E0,2.912493439E0,1.074197382E1
8.435086208E0,-9.406439209E0,-3.448079681E0,2.775827637E0,1.039594013E1
8.445089208E0,-9.285790100E0,-3.194357300E0,2.716401215E0,1.018865310E1
8.455092208E0,-9.215735779E0,-3.010689240E0,2.716999969E0,1.006857112E1
8.465095208E0,-9.084758148E0,-2.780168610E0,2.709964600E0,9.879578748E0
8.475099208E0,-8.879684601E0,-2.623594208E0,2.685265961E0,9.640679357E0
8.485102208E0,-8.698261871E0,-2.546654205E0,2.605332184E0,9.430427510E0
8.495105208E0,-8.484656067E0,-2.499651947E0,2.501148834E0,9.192028825E0
8.505108208E0,-8.231682129E0,-2.503843231E0,2.433788910E0,8.941652535E0
8.515111208E0,-8.011490021E0,-2.547402649E0,2.422262878E0,8.748747914E0
8.525115208E0,-7.792645111E0,-2.593656464E0,2.434387665E0,8.566131856E0
8.535118208E0,-7.569010162E0,-2.704725494E0,2.445165253E0,8.401445587E0
8.545121208E0,-7.363936615E0,-2.822231140E0,2.509082336E0,8.275750434E0
8.555124208E0,-7.188351746E0,-2.953657837E0,2.542163544E0,8.176740849E0
8.565128208E0,-6.915319519E0,-3.115171967E0,2.537373505E0,7.997762483E0
8.575131208E0,-6.565347290E0,-3.402125244E0,2.582429810E0,7.832444378E0
8.585134208E0,-6.439010010E0,-3.552861786E0,2.563269653E0,7.788069600E0
8.595137208E0,-6.176455994E0,-3.654500427E0,2.423759766E0,7.574865901E0
8.605140208E0,-6.059249725E0,-3.947291565E0,2.362237701E0,7.607613613E0
8.615144208E0,-5.872438202E0,-4.090244293E0,2.307751007E0,7.519397817E0
8.625147208E0,-5.726042633E0,-4.200864258E0,2.149380341E0,7.419882789E0
8.635150208E0,-5.745801544E0,-4.371060333E0,1.882485352E0,7.460841435E0
8.645153208E0,-5.711971893E0,-4.548142090E0,1.579365692E0,7.470382545E0
8.655157208E0,-5.739664307E0,-4.640649719E0,1.326541443E0,7.499272523E0
8.665160042E0,-5.705235901E0,-4.619543610E0,1.165925446E0,7.432986075E0
8.675163042E0,-5.671406250E0,-4.568948822E0,1.065184937E0,7.360350613E0
8.685166042E0,-5.653144226E0,-4.607269135E0,9.696835327E-1,7.356986793E0
8.695169042E0,-5.681285706E0,-4.753065948E0,8.987310791E-1,7.461659382E0
8.705173042E0,-5.797893219E0,-4.955894165E0,9.246272278E-1,7.683188678E0
8.715176042E0,-6.083948364E0,-5.274431763E0,1.026565247E0,8.117135845E0
8.725179042E0,-6.358477478E0,-5.644162903E0,1.201251984E0,8.586606841E0
8.735182042E0,-6.365662537E0,-5.864953766E0,1.377734985E0,8.764559082E0
8.745185042E0,-6.218069458E0,-5.920637970E0,1.594783630E0,8.732793172E0
8.755189042E0,-6.314918060E0,-5.956413574E0,1.854044495E0,8.876628513E0
8.765192042E0,-6.852150879E0,-6.240373077E0,2.061363373E0,9.494390279E0
8.775195042E0,-7.635471954E0,-6.822362823E0,2.156415710E0,1.046399518E1
8.785198042E0,-8.300838318E0,-7.342082062E0,2.043849792E0,1.126886897E1
8.795202042E0,-8.670270081E0,-7.657176819E0,1.888622589E0,1.172061583E1
8.805205042E0,-8.631949768E0,-7.545359344E0,1.915716248E0,1.162381061E1
8.815208042E0,-8.208330688E0,-6.939269714E0,2.160906372E0,1.096356116E1
8.825211042E0,-7.875572662E0,-6.188730469E0,2.586172028E0,1.034472403E1
8.835214042E0,-7.788453827E0,-5.456453247E0,3.044219513E0,9.984997120E0
8.845218042E0,-7.784262543E0,-4.903203735E0,3.449875946E0,9.825364840E0
8.855221042E0,-8.039332123E0,-4.417463837E0,3.884871368E0,9.961780628E0
8.865224042E0,-8.611143036E0,-4.244423676E0,4.382736053E0,1.055344930E1
8.875227042E0,-9.533674622E0,-4.577181702E0,4.924459534E0,1.166584098E1
8.885231042E0,-1.044333298E1,-5.297034760E0,5.229076080E0,1.282439151E1
8.895234042E0,-1.107307343E1,-6.008505249E0,5.190755768E0,1.362567561E1
8.905237042E0,-1.136122421E1,-6.373745728E0,4.919819183E0,1.392503756E1
8.915240042E0,-1.168440216E1,-6.701713715E0,4.460723877E0,1.418930154E1
8.925243042E0,-1.207838287E1,-6.819219360E0,3.877985687E0,1.440235601E1
8.935247042E0,-1.229348557E1,-6.471043396E0,3.148851929E0,1.424498011E1
8.945250042E0,-1.211924789E1,-5.738915863E0,2.303410034E0,1.360577166E1
8.955253042E0,-1.160701309E1,-4.728816376E0,1.358724518E0,1.260676761E1
8.965256042E0,-1.100122284E1,-3.717220001E0,5.162763977E-1,1.162373304E1
8.975260042E0,-1.046728317E1,-2.995271301E0,7.155120850E-2,1.088764377E1
8.985263042E0,-1.011611343E1,-2.433489532E0,3.233276367E-2,1.040474256E1
8.995266042E0,-9.746531982E0,-1.925895081E0,2.749781799E-1,9.938791201E0
9.005269042E0,-9.403894501E0,-1.545536041E0,7.659571838E-1,9.560784688E0
9.015272042E0,-9.150621185E0,-1.275347900E0,1.252295837E0,9.323552178E0
9.025276042E0,-8.766070862E0,-1.022523651E0,1.722917175E0,8.992107460E0
9.035279042E0,-8.272846527E0,-8.707392883E-1,2.138902130E0,8.589125619E0
9.045282042E0,-7.747139740E0,-7.526348877E-1,2.425556030E0,8.152788203E0
9.055285042E0,-7.203619995E0,-6.727011108E-1,2.454895020E0,7.640103231E0
9.065288042E0,-6.780150604E0,-6.664141846E-1,2.258503418E0,7.177422084E0
9.075292042E0,-6.536008301E0,-7.894583130E-1,2.020198975E0,6.886497864E0
9.085295042E0,-6.429579620E0,-8.756790161E-1,1.969304810E0,6.781184946E0
9.095298042E0,-6.407725067E0,-9.062155151E-1,1.969604187E0,6.764577426E0
9.105301042E0,-6.419400787E0,-9.499246216E-1,1.986519012E0,6.786554431E0
9.115305042E0,-6.565047913E0,-1.028511200E0,1.965113525E0,6.929600317E0
9.125308042E0,-6.734046478E0,-1.165775757E0,1.911824341E0,7.096582797E0
9.135311042E0,-6.882687378E0,-1.362616425E0,1.924398193E0,7.275398097E0
9.145314042E0,-7.010222168E0,-1.420695648E0,1.922452240E0,7.406579074E0
9.155317042E0,-7.256011047E0,-1.443448334E0,1.818418579E0,7.618391270E0
9.165321042E0,-7.611222382E0,-1.552721100E0,1.672172699E0,7.945930436E0
9.175324042E0,-7.942034454E0,-1.666035461E0,1.536704407E0,8.259118952E0
9.185327042E0,-8.362210693E0,-1.802252197E0,1.483265533E0,8.681863700E0
9.195330042E0,-8.928183746E0,-2.033371582E0,1.581910400E0,9.292443463E0
9.205334042E0,-9.556726685E0,-2.264940033E0,1.733694763E0,9.973298141E0
9.215337042E0,-1.016595978E1,-2.566263428E0,1.841470642E0,1.064534923E1
9.225340042E0,-1.073926758E1,-3.015479279E0,1.997895355E0,1.133210348E1
9.235343042E0,-1.131721573E1,-3.378773804E0,2.224224701E0,1.201843001E1
9.245346042E0,-1.184965851E1,-3.582350464E0,2.402953033E0,1.261038560E1
9.255350042E0,-1.237865845E1,-3.791315918E0,2.516866150E0,1.318862679E1
9.265353042E0,-1.290990372E1,-3.976780243E0,2.550246735E0,1.374715074E1
9.275356042E0,-1.338262070E1,-4.150269470E0,2.599194946E0,1.425044167E1
9.285359042E0,-1.376103378E1,-4.182602234E0,2.686164093E0,1.463132563E1
9.295363042E0,-1.397434021E1,-3.958667908E0,2.843486938E0,1.479995452E1
9.305366042E0,-1.409558807E1,-3.596421204E0,2.960393829E0,1.484532857E1
9.315369042E0,-1.428075302E1,-3.349434814E0,3.054248657E0,1.498289209E1
9.325372042E0,-1.469434296E1,-3.435954895E0,3.047063599E0,1.539526218E1
9.335375042E0,-1.514056503E1,-3.953129425E0,2.854114838E0,1.590628534E1
9.345379042E0,-1.532528091E1,-4.571643219E0,2.718796234E0,1.622208401E1
9.355382042E0,-1.512260239E1,-4.957391052E0,2.773731995E0,1.615433125E1
9.365385042E0,-1.470287521E1,-5.051545258E0,2.940335541E0,1.582208021E1
9.375388042E0,-1.418659882E1,-4.809348907E0,3.093018036E0,1.529562628E1
9.385391042E0,-1.360281281E1,-4.256099396E0,3.227438507E0,1.461394052E1
9.395395042E0,-1.329190933E1,-3.586541748E0,3.377875671E0,1.417561919E1
9.405398042E0,-1.326316910E1,-3.292403412E0,3.460354156E0,1.409700768E1
9.415401042E0,-1.329146027E1,-3.412753143E0,3.345842285E0,1.412460480E1
9.425404042E0,-1.324595490E1,-3.938160553E0,3.202889557E0,1.418530687E1
9.435408042E0,-1.306677750E1,-4.727618866E0,3.156336365E0,1.424968468E1
9.445411042E0,-1.295211594E1,-5.567821655E0,3.236868896E0,1.446496683E1
9.455414042E0,-1.294912216E1,-6.239325256E0,3.455564117E0,1.478343221E1
9.465417042E0,-1.267564087E1,-6.668782196E0,3.823049927E0,1.482431240E1
9.475420042E0,-1.228345642E1,-6.767127686E0,4.167184296E0,1.463019972E1
9.485424042E0,-1.183019897E1,-6.474935303E0,4.315525818E0,1.415987846E1
9.495427042E0,-1.133712433E1,-5.894143066E0,4.252506866E0,1.346681570E1
9.505430042E0,-1.092293564E1,-5.202281799E0,3.963907013E0,1.273133213E1
9.515433042E0,-1.054721695E1,-4.675826569E0,3.543880463E0,1.206922650E1
9.525437042E0,-1.014575180E1,-4.236041107E0,3.203937378E0,1.145187926E1
9.535440042E0,-9.775571594E0,-3.813320160E0,2.809507599E0,1.086262140E1
9.545443042E0,-9.406588898E0,-3.539988556E0,2.545007629E0,1.036785887E1
9.555446042E0,-9.125473480E0,-3.287463684E0,2.330803070E0,9.975686777E0
9.565449042E0,-8.917256470E0,-3.069217529E0,2.215692444E0,9.687458500E0
9.575453042E0,-8.704997864E0,-2.913840637E0,2.173180847E0,9.433460132E0
9.585456042E0,-8.464597778E0,-2.773731995E0,2.201771393E0,9.175554588E0
9.595459042E0,-8.171656952E0,-2.649490356E0,2.258802795E0,8.882452733E0
9.605462042E0,-7.915689240E0,-2.628983002E0,2.298320618E0,8.651703036E0
9.615466042E0,-7.666607208E0,-2.658022614E0,2.340083771E0,8.444995107E0
9.625469042E0,-7.402256927E0,-2.677781525E0,2.307601318E0,8.202983930E0
9.635472042E0,-7.169341278E0,-2.739153900E0,2.237397308E0,7.994270771E0
9.645475042E0,-6.971901855E0,-2.786305847E0,2.190544739E0,7.821087009E0
9.655478042E0,-6.896907806E0,-2.859353943E0,2.196831665E0,7.782628838E0
9.665482292E0,-6.824757843E0,-2.960393829E0,2.223625946E0,7.764390742E0
9.675485292E0,-6.761289825E0,-3.090024261E0,2.201771393E0,7.753134031E0
9.685488292E0,-6.690337372E0,-3.263663177E0,2.184856567E0,7.757944941E0
9.695491292E0,-6.561605072E0,-3.417842560E0,2.242486725E0,7.730786221E0
9.705494292E0,-6.405180359E0,-3.553011475E0,2.287093964E0,7.673397212E0
9.715498292E0,-6.304739227E0,-3.758534088E0,2.299069061E0,7.691686016E0
9.725501292E0,-6.217171326E0,-3.996988220E0,2.304308167E0,7.742026237E0
9.735504292E0,-6.088289337E0,-4.236041107E0,2.261946259E0,7.754206097E0
9.745507292E0,-6.026318207E0,-4.558021545E0,2.055375824E0,7.830494321E0
9.755511292E0,-5.921386414E0,-4.852309570E0,1.852397919E0,7.876490543E0
9.765514292E0,-5.727988586E0,-5.046455841E0,1.651815033E0,7.810573776E0
9.775517292E0,-5.538332977E0,-5.173990631E0,1.517244873E0,7.729511189E0
9.785520292E0,-5.407804413E0,-5.207071838E0,1.414408722E0,7.639273377E0
9.795523292E0,-5.448968811E0,-5.239404602E0,1.362915802E0,7.681156239E0
9.805527292E0,-5.537883911E0,-5.219496002E0,1.260079651E0,7.713565807E0
9.815530292E0,-5.617667999E0,-5.207969971E0,1.131796417E0,7.743520394E0
9.825533292E0,-5.871689758E0,-5.286706238E0,1.042282562E0,7.969463997E0
9.835536292E0,-6.278843079E0,-5.480104065E0,9.991722107E-1,8.393673574E0
9.845539292E0,-6.511010284E0,-5.622607727E0,9.979747009E-1,8.660422973E0
9.855543292E0,-6.547085266E0,-5.609435120E0,1.029858398E0,8.682781591E0
9.865546292E0,-6.635700989E0,-5.610033875E0,1.137634277E0,8.763516385E0
9.875549292E0,-7.047344971E0,-5.854924622E0,1.354682922E0,9.261769770E0
9.885552292E0,-7.804320831E0,-6.382727051E0,1.614093475E0,1.021038324E1
9.895556292E0,-8.557554474E0,-6.959477692E0,1.847308502E0,1.118385519E1
9.905559292E0,-9.009464722E0,-7.366631012E0,1.921703796E0,1.179536572E1
9.915562292E0,-9.107211456E0,-7.548502808E0,2.040406952E0,1.200351847E1
9.925565292E0,-8.837771759E0,-7.427853699E0,2.257156219E0,1.176324676E1
9.935568292E0,-8.372389526E0,-6.900650024E0,2.565814362E0,1.114895872E1
9.945572292E0,-8.002059631E0,-6.114634552E0,2.960094452E0,1.049685063E1
9.955575292E0,-7.710615692E0,-5.349874878E0,3.346890106E0,9.963755765E0
9.965578292E0,-7.688761139E0,-4.790787506E0,3.609593811E0,9.751813178E0
9.975581292E0,-8.004304962E0,-4.423900452E0,3.996688843E0,9.980647015E0
9.985585292E0,-8.450377350E0,-4.295467529E0,4.412524109E0,1.045611245E1
9.995588292E0,-9.067244568E0,-4.599036255E0,4.746180267E0,1.122017316E1
1.000559129E1,-9.679920502E0,-5.288352814E0,4.892426147E0,1.206662215E1
1.001559429E1,-1.010309052E1,-5.910459137E0,4.877906342E0,1.268069144E1
1.002559729E1,-1.023047562E1,-6.224955139E0,4.834197235E0,1.291441678E1
1.003560129E1,-1.033660492E1,-6.370751953E0,4.700375519E0,1.302019246E1
1.004560429E1,-1.056996964E1,-6.251150665E0,4.420906677E0,1.305164965E1
1.005560729E1,-1.077639038E1,-5.843697968E0,3.900289307E0,1.286435588E1
1.006561029E1,-1.087892715E1,-5.244344330E0,3.204536133E0,1.249492918E1
1.007561429E1,-1.070543793E1,-4.457580414E0,2.509531403E0,1.186482921E1
1.008561729E1,-1.047821045E1,-3.614982605E0,1.803449707E0,1.123002334E1
1.009562029E1,-1.040890457E1,-2.884052582E0,1.142574005E0,1.086133183E1
1.010562329E1,-1.036953644E1,-2.260000305E0,6.282435608E-1,1.063153692E1
1.011562629E1,-1.027807663E1,-1.629062347E0,3.971241760E-1,1.041395271E1
1.012563029E1,-1.006776398E1,-9.445358276E-1,4.653822327E-1,1.012267751E1
1.013563329E1,-9.845176849E0,-5.114863586E-1,7.481442261E-1,9.886801569E0
1.014563629E1,-9.678124237E0,-3.320095825E-1,1.050665131E0,9.740647634E0
1.015563929E1,-9.515262909E0,-2.718347168E-1,1.288520508E0,9.605956873E0
1.016564229E1,-9.254056091E0,-2.682421875E-1,1.479373627E0,9.375396223E0
1.017564629E1,-8.930279388E0,-3.772155762E-1,1.567689972E0,9.074680898E0
1.018564929E1,-8.640182648E0,-5.840853882E-1,1.664987640E0,8.818508704E0
1.019565229E1,-8.369246063E0,-7.927514648E-1,1.766177216E0,8.590233787E0
1.020565529E1,-8.193960571E0,-9.589059448E-1,1.795516205E0,8.443007100E0
1.021565929E1,-8.110733643E0,-1.183139648E0,1.790127411E0,8.389778054E0
1.022566229E1,-8.020471344E0,-1.306632843E0,1.757046204E0,8.313991901E0
1.023566529E1,-7.955656128E0,-1.357676697E0,1.672023010E0,8.242051406E0
1.024566829E1,-7.914042664E0,-1.428329773E0,1.581161957E0,8.195869103E0
1.025567129E1,-7.893235931E0,-1.454824677E0,1.405577087E0,8.148333281E0
1.026567529E1,-8.003107452E0,-1.503473511E0,1.299447784E0,8.246134005E0
1.027567829E1,-8.187823334E0,-1.574276276E0,1.272952881E0,8.434406071E0
1.028568129E1,-8.406817932E0,-1.643582153E0,1.295256500E0,8.663350359E0
1.029568429E1,-8.726852417E0,-1.762584686E0,1.375040588E0,9.008628891E0
1.030568729E1,-9.180109863E0,-1.912722473E0,1.506167908E0,9.497445242E0
1.031569129E1,-9.648485870E0,-2.046993256E0,1.598226471E0,9.991886150E0
1.032569429E1,-1.014111145E1,-2.200274506E0,1.739233246E0,1.052180030E1
1.033569729E1,-1.064152084E1,-2.398911438E0,1.797013092E0,1.105558673E1
1.034570029E1,-1.115929413E1,-2.636168060E0,1.819765778E0,1.160994294E1
1.035570329E1,-1.172661438E1,-2.832409973E0,1.913470917E0,1.221463884E1
1.036570729E1,-1.231339417E1,-3.082689514E0,2.080373840E0,1.286276043E1
1.037571029E1,-1.294552963E1,-3.405119019E0,2.227817230E0,1.356999420E1
1.038571329E1,-1.359023895E1,-3.738775177E0,2.404000854E0,1.429868017E1
1.039571629E1,-1.404798706E1,-3.957620087E0,2.512225800E0,1.480945562E1
1.040572029E1,-1.446980988E1,-4.025129700E0,2.550097046E0,1.523417414E1
1.041572329E1,-1.495869324E1,-4.154161377E0,2.559826813E0,1.573442956E1
1.042572629E1,-1.556253754E1,-4.495900726E0,2.553240509E0,1.639892481E1
1.043572929E1,-1.600426895E1,-5.089416504E0,2.482886810E0,1.697655772E1
1.044573229E1,-1.611668518E1,-5.622008972E0,2.434387665E0,1.724183196E1
1.045573629E1,-1.589933716E1,-5.877228241E0,2.377655640E0,1.711677482E1
1.046573929E1,-1.543500275E1,-5.820496216E0,2.355052643E0,1.666324575E1
1.047574229E1,-1.480915421E1,-5.276377716E0,2.332749023E0,1.589317237E1
1.048574529E1,-1.422102722E1,-4.381239166E0,2.310146027E0,1.505887268E1
1.049574829E1,-1.379201935E1,-3.733087006E0,2.219135284E0,1.445960918E1
1.050575229E1,-1.359727432E1,-3.446133728E0,2.037263489E0,1.417434828E1
1.051575529E1,-1.347961899E1,-3.529210968E0,1.891616364E0,1.406178049E1
1.052575829E1,-1.345881226E1,-3.955374756E0,1.805695038E0,1.414373188E1
1.053576129E1,-1.338501572E1,-4.786296844E0,1.825753326E0,1.433180583E1
1.054576429E1,-1.334310287E1,-5.767805786E0,1.976789246E0,1.467016270E1
1.055576829E1,-1.325718155E1,-6.544690247E0,2.275418243E0,1.495872191E1
1.056577129E1,-1.273701324E1,-6.979685669E0,2.727029114E0,1.477782820E1
1.057577429E1,-1.201671112E1,-7.106022949E0,3.129691772E0,1.430705696E1
1.058577729E1,-1.124162292E1,-6.898105316E0,3.494333496E0,1.364435083E1
1.059578129E1,-1.050111282E1,-6.357130280E0,3.705693970E0,1.282258335E1
1.060578429E1,-9.849368134E0,-5.697901154E0,3.790567474E0,1.199352042E1
1.061578729E1,-9.490414581E0,-5.115312653E0,3.863016815E0,1.145239239E1
1.062579029E1,-9.267079010E0,-4.511318665E0,3.887715454E0,1.101567433E1
1.063579329E1,-9.013057251E0,-3.974085846E0,3.871100006E0,1.058366546E1
1.064579729E1,-8.760532379E0,-3.561094666E0,3.779191132E0,1.018384055E1
1.065580029E1,-8.465046844E0,-3.200195160E0,3.651356964E0,9.758620539E0
1.066580296E1,-8.163573761E0,-2.909649353E0,3.439098358E0,9.324022384E0
1.067580596E1,-7.904312897E0,-2.716251526E0,3.213218079E0,8.954381896E0
1.068580896E1,-7.718998260E0,-2.506088562E0,3.051254883E0,8.670269338E0
1.069581296E1,-7.623646545E0,-2.386786652E0,2.911595306E0,8.502595157E0
1.070581596E1,-7.459438019E0,-2.294877777E0,2.751128998E0,8.275167088E0
1.071581896E1,-7.302264862E0,-2.229164429E0,2.589016113E0,8.061963198E0
1.072582196E1,-7.132218475E0,-2.220482483E0,2.428998871E0,7.854878634E0
1.073582596E1,-6.963369598E0,-2.339185638E0,2.294279022E0,7.695714512E0
1.074582896E1,-6.916966095E0,-2.479593658E0,2.241289215E0,7.682199035E0
1.075583196E1,-6.831344147E0,-2.577639771E0,2.212698669E0,7.629385627E0
1.076583496E1,-6.667285309E0,-2.761307831E0,2.102078705E0,7.516398686E0
1.077583796E1,-6.465504913E0,-3.021017761E0,1.965712280E0,7.402251473E0
1.078584196E1,-6.242618408E0,-3.264710999E0,1.824106750E0,7.277086500E0
1.079584496E1,-6.049220581E0,-3.501668243E0,1.746268616E0,7.204457246E0
1.080584796E1,-5.913752289E0,-3.683839417E0,1.686991882E0,7.168617760E0
1.081585096E1,-5.791456604E0,-3.868704987E0,1.575324097E0,7.140692815E0
1.082585396E1,-5.605692902E0,-4.028572540E0,1.565594330E0,7.078437343E0
1.083585796E1,-5.430856476E0,-4.185446320E0,1.607058105E0,7.042357468E0
1.084586096E1,-5.253924408E0,-4.292473755E0,1.642833710E0,6.980541184E0
1.085586396E1,-5.194497986E0,-4.412224731E0,1.650617523E0,7.012494179E0
1.086586696E1,-5.321434021E0,-4.591701508E0,1.657952271E0,7.221508742E0
1.087586996E1,-5.260211334E0,-4.558171234E0,1.661993866E0,7.156044430E0
1.088587396E1,-5.100194092E0,-4.529730377E0,1.614841919E0,7.009861018E0
1.089587696E1,-5.039570160E0,-4.665947113E0,1.520238647E0,7.034163447E0
1.090587996E1,-5.022505646E0,-4.880451050E0,1.433119812E0,7.148300344E0
1.091588296E1,-5.169499969E0,-5.152884521E0,1.428180084E0,7.437448970E0
1.092588596E1,-5.617817688E0,-5.481600952E0,1.551074524E0,8.000853502E0
1.093588996E1,-6.011049957E0,-5.687722321E0,1.652563477E0,8.438831248E0
1.094589296E1,-6.136040039E0,-5.771697693E0,1.670077057E0,8.587935666E0
1.095589596E1,-6.188580780E0,-5.820645905E0,1.708547058E0,8.665886214E0
1.096589896E1,-6.493347015E0,-5.860313416E0,1.844015350E0,8.939083924E0
1.097590296E1,-7.128625946E0,-6.071374512E0,2.038760376E0,9.583080935E0
1.098590596E1,-7.925269318E0,-6.453829193E0,2.181862793E0,1.045094877E1
1.099590896E1,-8.699459381E0,-6.811285858E0,2.264191589E0,1.127833197E1
1.100591196E1,-9.230105896E0,-7.074288940E0,2.179617462E0,1.183178563E1
1.101591496E1,-9.523346100E0,-7.156318359E0,2.070644073E0,1.209109508E1
1.102591896E1,-9.669142914E0,-6.888525238E0,2.025737457E0,1.204357575E1
1.103592196E1,-9.673184509E0,-6.064189453E0,2.034269714E0,1.159668683E1
1.104592496E1,-9.454489288E0,-4.991370392E0,2.136207733E0,1.090250107E1
1.105592796E1,-9.427695007E0,-4.159849548E0,2.315085754E0,1.056150574E1
1.106593096E1,-9.716444550E0,-3.681594086E0,2.691403198E0,1.073345615E1
1.107593496E1,-1.010593460E1,-3.466491394E0,3.134930878E0,1.113437328E1
1.108593796E1,-1.074540482E1,-3.824696503E0,3.535048828E0,1.194104678E1
1.109594096E1,-1.162228134E1,-4.911586304E0,3.941902771E0,1.321891452E1
1.110594396E1,-1.200323914E1,-5.970484314E0,4.133953400E0,1.402904143E1
1.111594696E1,-1.175340866E1,-6.630461884E0,4.122726746E0,1.411036909E1
1.112595096E1,-1.145642624E1,-7.034172363E0,3.945794678E0,1.401065947E1
1.113595396E1,-1.122126526E1,-7.100634155E0,3.665727081E0,1.377582500E1
1.114595696E1,-1.090602081E1,-6.622079315E0,3.237467651E0,1.316337423E1
1.115595996E1,-1.069870193E1,-5.749543762E0,2.675386505E0,1.243692766E1
1.116596296E1,-1.069675598E1,-4.758754120E0,2.161804504E0,1.190544951E1
1.117596696E1,-1.057146652E1,-3.859124908E0,1.749112701E0,1.138894836E1
1.118596996E1,-1.049317932E1,-3.132086792E0,1.365460510E0,1.103545479E1
1.119597296E1,-1.040516235E1,-2.475252686E0,1.179696808E0,1.076038866E1
1.120597596E1,-1.021580612E1,-1.808239746E0,1.143771515E0,1.043746324E1
1.121597896E1,-1.010383896E1,-1.282982025E0,1.320104828E0,1.027016462E1
1.122598296E1,-9.794881439E0,-7.686515808E-1,1.536405029E0,9.944398829E0
1.123598596E1,-9.357640686E0,-3.474275208E-1,1.644779663E0,9.507441571E0
1.124598896E1,-8.890162811E0,-1.080752563E-1,1.665736084E0,9.045515562E0
1.125599196E1,-8.330326996E0,-1.212478638E-2,1.534010010E0,8.470400320E0
1.126599596E1,-7.808063049E0,7.274871826E-2,1.379830627E0,7.929380399E0
1.127599896E1,-7.428751831E0,1.442999268E-1,1.335073700E0,7.549145516E0
1.128600196E1,-7.308402100E0,1.272354126E-1,1.360371094E0,7.435021158E0
1.129600496E1,-7.434889069E0,7.334747314E-2,1.447340240E0,7.574810168E0
1.130600796E1,-7.632627869E0,2.185455322E-2,1.542392578E0,7.786941676E0
1.131601196E1,-7.929610291E0,6.466552734E-2,1.633553009E0,8.096381687E0
1.132601496E1,-8.233328705E0,1.914518738E-1,1.695075073E0,8.408188562E0
1.133601796E1,-8.554411011E0,2.383044434E-1,1.703307953E0,8.725594234E0
1.134602096E1,-8.975186005E0,1.050814819E-1,1.622476044E0,9.121262766E0
1.135602396E1,-9.392817535E0,-1.399589539E-1,1.525328064E0,9.516892112E0
1.136602796E1,-9.722881165E0,-4.023632813E-1,1.392254791E0,9.830294388E0
1.137603096E1,-9.965975647E0,-6.354286194E-1,1.222507782E0,1.006076366E1
1.138603396E1,-1.019604721E1,-8.698411560E-1,1.051712952E0,1.028698705E1
1.139603696E1,-1.040067169E1,-1.084943848E0,9.201365662E-1,1.049751047E1
1.140603996E1,-1.072489746E1,-1.265318756E0,9.268725586E-1,1.083898288E1
1.141604396E1,-1.115585129E1,-1.488654327E0,1.095422058E0,1.130792020E1
1.142604696E1,-1.158964920E1,-1.745669861E0,1.388512573E0,1.180234295E1
1.143604996E1,-1.199710190E1,-2.021097107E0,1.653910675E0,1.227805799E1
1.144605296E1,-1.244122833E1,-2.318079529E0,1.922003174E0,1.280045903E1
1.145605596E1,-1.286664368E1,-2.601739655E0,2.190544739E0,1.330857073E1
1.146605996E1,-1.328502365E1,-2.917882233E0,2.433489532E0,1.381766121E1
1.147606296E1,-1.369547012E1,-3.299438782E0,2.564317474E0,1.431879612E1
1.148606596E1,-1.393661865E1,-3.627257080E0,2.761607208E0,1.466331503E1
1.149606896E1,-1.395083908E1,-3.608995056E0,2.947370911E0,1.470842451E1
1.150607196E1,-1.392688889E1,-3.410807190E0,3.042572937E0,1.465773140E1
1.151607596E1,-1.421414154E1,-3.547622681E0,3.090772705E0,1.497265248E1
1.152607896E1,-1.462593521E1,-4.116888885E0,3.046913910E0,1.549678803E1
1.153608196E1,-1.475900848E1,-4.806504822E0,2.916385345E0,1.579354689E1
1.154608496E1,-1.458162735E1,-5.380710754E0,2.934048615E0,1.581722307E1
1.155608796E1,-1.418779633E1,-5.693410492E0,3.143014069E0,1.560727475E1
1.156609196E1,-1.397404083E1,-5.641618195E0,3.423381042E0,1.545384130E1
1.157609496E1,-1.370026016E1,-5.081483002E0,3.634292450E0,1.505744599E1
1.158609796E1,-1.348949844E1,-4.309837646E0,3.714675293E0,1.464035796E1
1.159610096E1,-1.354712860E1,-3.727548523E0,3.574117584E0,1.449805600E1
1.160610496E1,-1.386027740E1,-3.671415253E0,3.223696289E0,1.469621711E1
1.161610796E1,-1.420156769E1,-4.072880402E0,2.750081177E0,1.502783504E1
1.162611096E1,-1.420950119E1,-4.779710541E0,2.383792877E0,1.518018529E1
1.163611396E1,-1.400263138E1,-5.737418976E0,2.246977386E0,1.529838454E1
1.164611696E1,-1.391700943E1,-6.637946320E0,2.392325134E0,1.560348366E1
1.165611996E1,-1.358604767E1,-7.319479065E0,2.692151642E0,1.566534856E1
1.166612396E1,-1.301947586E1,-7.550448761E0,3.057841187E0,1.535794325E1
1.167612654E1,-1.233749405E1,-7.302414551E0,3.321293335E0,1.471631772E1
1.168612954E1,-1.169398224E1,-6.715485077E0,3.490740967E0,1.392954532E1
1.169613254E1,-1.125808868E1,-6.021827545E0,3.547173615E0,1.325101537E1
1.170613554E1,-1.083387085E1,-5.422174530E0,3.510948944E0,1.261346490E1
1.171613954E1,-1.033076706E1,-4.852608948E0,3.451821899E0,1.192424572E1
1.172614254E1,-9.884245605E0,-4.320016479E0,3.361409912E0,1.129866940E1
1.173614554E1,-9.496701508E0,-3.918401642E0,3.242108002E0,1.077276544E1
1.174614854E1,-9.131161652E0,-3.617527313E0,3.185825043E0,1.032541031E1
1.175615254E1,-8.688981171E0,-3.361260223E0,3.105442200E0,9.820398939E0
1.176615554E1,-8.276588745E0,-3.105442200E0,3.015329590E0,9.340123396E0
1.177615854E1,-7.977360992E0,-2.900967407E0,2.791395264E0,8.935647029E0
1.178616154E1,-7.758815460E0,-2.846331024E0,2.577789459E0,8.657125166E0
1.179616454E1,-7.544461212E0,-2.731669464E0,2.348466339E0,8.360395157E0
1.180616854E1,-7.328909454E0,-2.602488098E0,2.115101624E0,8.059746458E0
1.181617154E1,-7.159910889E0,-2.534529419E0,1.897154846E0,7.828624389E0
1.182617454E1,-6.955136719E0,-2.540966034E0,1.722617798E0,7.602489542E0
1.183617754E1,-6.700965271E0,-2.619402924E0,1.628164215E0,7.376660894E0
1.184618054E1,-6.446195068E0,-2.736609192E0,1.572779388E0,7.177471402E0
1.185618454E1,-6.231691132E0,-2.825524292E0,1.563947754E0,7.018795799E0
1.186618754E1,-5.961053925E0,-2.936443634E0,1.640139313E0,6.844481140E0
1.187619054E1,-5.802982635E0,-2.987487488E0,1.757046204E0,6.759208557E0
1.188619354E1,-5.610333252E0,-3.063978424E0,1.847607880E0,6.654130887E0
1.189619654E1,-5.430557098E0,-3.185675354E0,1.893562317E0,6.574576496E0
1.190620054E1,-5.193899231E0,-3.215912476E0,1.866019592E0,6.387543455E0
1.191620354E1,-4.921016693E0,-3.302432556E0,1.814526672E0,6.197981375E0
1.192620654E1,-4.721781006E0,-3.485801239E0,1.723964996E0,6.117032079E0
1.193620954E1,-4.547243958E0,-3.730991364E0,1.596280518E0,6.094738358E0
1.194621254E1,-4.397255859E0,-4.075724487E0,1.505569153E0,6.181757652E0
1.195621654E1,-4.311334534E0,-4.461921387E0,1.335971832E0,6.346744729E0
1.196621954E1,-4.225712585E0,-4.783303070E0,1.220561829E0,6.498184846E0
1.197622254E1,-4.170627136E0,-4.985532532E0,1.183289337E0,6.606802479E0
1.198622554E1,-4.254602509E0,-5.077890472E0,1.188378754E0,6.730442646E0
1.199622854E1,-4.447700958E0,-5.066813507E0,1.215173035E0,6.850641461E0
1.200623254E1,-4.709955597E0,-5.034331055E0,1.271306305E0,7.010306029E0
1.201623554E1,-5.206024017E0,-5.121749268E0,1.382225647E0,7.432734986E0
1.202623854E1,-5.884263611E0,-5.185217285E0,1.504970398E0,7.985986003E0
1.203624154E1,-6.457122345E0,-5.246739349E0,1.633253632E0,8.478810070E0
1.204624454E1,-6.775210876E0,-5.273833008E0,1.764380951E0,8.765263097E0
1.205624854E1,-6.855593719E0,-5.198240204E0,1.854044495E0,8.801042407E0
1.206625154E1,-6.916966095E0,-5.053790588E0,1.999691620E0,8.796816802E0
1.207625454E1,-7.194938049E0,-5.012027435E0,2.229613495E0,9.047581383E0
1.208625754E1,-7.763006744E0,-5.354964294E0,2.300116882E0,9.707237196E0
1.209626054E1,-8.478967896E0,-5.998775482E0,2.122586060E0,1.060111199E1
1.210626454E1,-9.051826630E0,-6.562652893E0,1.830992432E0,1.132945328E1
1.211626754E1,-9.522747345E0,-6.884932709E0,1.627565460E0,1.186313554E1
1.212627054E1,-9.784852295E0,-6.899153137E0,1.566043396E0,1.207452444E1
1.213627354E1,-9.955647125E0,-6.574178925E0,1.552721100E0,1.203102992E1
1.214627654E1,-1.006462051E1,-6.070925446E0,1.558109894E0,1.185666177E1
1.215628054E1,-9.875863037E0,-5.368585968E0,1.678160248E0,1.136532480E1
1.216628354E1,-9.772877197E0,-4.676425323E0,1.835782471E0,1.098854767E1
1.217628654E1,-9.838440857E0,-4.284091187E0,2.064506836E0,1.092751318E1
1.218628954E1,-1.003872437E1,-4.137246552E0,2.496059418E0,1.114105509E1
1.219629254E1,-1.041100021E1,-4.358187103E0,2.919528809E0,1.165788869E1
1.220629654E1,-1.092263626E1,-5.054089966E0,3.342698822E0,1.249085440E1
1.221629954E1,-1.134954849E1,-5.833968201E0,3.678001556E0,1.328062993E1
1.222630254E1,-1.151016449E1,-6.340963898E0,3.964206390E0,1.372612990E1
1.223630554E1,-1.147094604E1,-6.546935577E0,4.149071960E0,1.384412391E1
1.224630854E1,-1.160491745E1,-6.535708923E0,4.218826904E0,1.397097350E1
1.225631254E1,-1.195848221E1,-6.229745178E0,4.128863983E0,1.410186298E1
1.226631554E1,-1.214649124E1,-5.660329285E0,3.727997589E0,1.390951268E1
1.227631854E1,-1.211101501E1,-4.883893890E0,3.126548309E0,1.342774771E1
1.228632154E1,-1.203826630E1,-4.009113007E0,2.503394165E0,1.293289700E1
1.229632454E1,-1.195743439E1,-3.201392670E0,1.959874420E0,1.253276745E1
1.230632854E1,-1.182002014E1,-2.376458130E0,1.523831177E0,1.215246851E1
1.231633154E1,-1.151854706E1,-1.674418030E0,1.196162567E0,1.170091479E1
1.232633454E1,-1.113279922E1,-1.100661163E0,1.002914429E0,1.123194155E1
1.233633754E1,-1.075453583E1,-6.788383484E-1,8.931925964E-1,1.081289302E1
1.234634054E1,-1.037327866E1,-4.135899353E-1,8.755293274E-1,1.041837407E1
1.235634454E1,-1.005998016E1,-2.835104370E-1,9.232800293E-1,1.010623694E1
1.236634754E1,-9.724228363E0,-2.324665833E-1,1.050216064E0,9.783537793E0
1.237635054E1,-9.260043640E0,-2.020797729E-1,1.178499298E0,9.336921604E0
1.238635354E1,-8.797206116E0,-2.571652222E-1,1.279090118E0,8.893426838E0
1.239635654E1,-8.495134277E0,-3.376977539E-1,1.231788483E0,8.590614008E0
1.240636054E1,-8.248596954E0,-4.267625427E-1,1.176703033E0,8.343027509E0
1.241636354E1,-8.009394379E0,-4.938230896E-1,1.273551636E0,8.125034974E0
1.242636654E1,-7.829169159E0,-4.772076416E-1,1.428479462E0,7.972714119E0
1.243636954E1,-7.755671997E0,-4.942721558E-1,1.607806549E0,7.935981035E0
1.244637254E1,-7.914491730E0,-5.740562439E-1,1.828747101E0,8.143281640E0
1.245637654E1,-8.125852203E0,-6.134243774E-1,2.012265472E0,8.393746233E0
1.246637954E1,-8.354277191E0,-6.397695923E-1,2.051184540E0,8.626158504E0
1.247638254E1,-8.731343079E0,-7.126679993E-1,2.066452789E0,9.000804118E0
1.248638554E1,-9.252858582E0,-7.605683899E-1,2.029329987E0,9.503264513E0
1.249638854E1,-9.674980774E0,-7.372169495E-1,1.839225311E0,9.875803337E0
1.250639254E1,-1.002884491E1,-7.547305298E-1,1.633253632E0,1.018895803E1
1.251639554E1,-1.037312897E1,-8.831634521E-1,1.477727051E0,1.051501115E1
1.252639854E1,-1.073762100E1,-1.060544586E0,1.372944946E0,1.087686708E1
1.253640154E1,-1.127200974E1,-1.337917786E0,1.345402222E0,1.143058768E1
1.254640454E1,-1.190878555E1,-1.740730133E0,1.342558136E0,1.210998667E1
1.255640854E1,-1.243299545E1,-2.131866760E0,1.528471527E0,1.270670913E1
1.256641154E1,-1.295256500E1,-2.515818329E0,1.815275116E0,1.331891534E1
1.257641454E1,-1.359802277E1,-2.987487488E0,2.064955902E0,1.407463490E1
1.258641754E1,-1.410097687E1,-3.446433105E0,2.257455597E0,1.469052605E1
1.259642054E1,-1.438927734E1,-3.767964478E0,2.432741089E0,1.507206316E1
1.260642454E1,-1.447205521E1,-3.796105957E0,2.638114014E0,1.519244707E1
1.261642754E1,-1.442265793E1,-3.627107391E0,2.730921021E0,1.512041333E1
1.262643054E1,-1.444361435E1,-3.559448090E0,2.731370087E0,1.512441895E1
1.263643354E1,-1.474433899E1,-3.816912689E0,2.721939697E0,1.547169384E1
1.264643654E1,-1.504341705E1,-4.594246216E0,2.646197205E0,1.595035594E1
1.265644054E1,-1.487950790E1,-5.474565582E0,2.577041016E0,1.606274460E1
1.266644354E1,-1.450573517E1,-6.096522217E0,2.603236542E0,1.594869200E1
1.267644704E1,-1.378438522E1,-6.148613892E0,2.732567596E0,1.533889352E1
1.268645004E1,-1.286649399E1,-5.829627228E0,2.922073517E0,1.442462252E1
1.269645304E1,-1.226474533E1,-5.217999115E0,3.103645935E0,1.368517851E1
1.270645704E1,-1.206416245E1,-4.511917419E0,3.183430023E0,1.326784236E1
1.271646004E1,-1.223151443E1,-4.055965576E0,3.092419281E0,1.325231524E1
1.272646304E1,-1.259196487E1,-4.065994720E0,2.852019196E0,1.353602253E1
1.273646604E1,-1.279808624E1,-4.498445435E0,2.639012146E0,1.381996411E1
1.274646904E1,-1.291544220E1,-5.317991180E0,2.418820038E0,1.417534366E1
1.275647304E1,-1.307516006E1,-6.388864288E0,2.294877777E0,1.473240855E1
1.276647604E1,-1.316257828E1,-7.287894745E0,2.434237976E0,1.524114140E1
1.277647904E1,-1.271785309E1,-7.861352234E0,2.575693817E0,1.517164608E1
1.278648204E1,-1.207014999E1,-8.030201111E0,2.756218414E0,1.475701158E1
1.279648504E1,-1.132559830E1,-7.705675964E0,2.922522583E0,1.400670401E1
1.280648904E1,-1.065708847E1,-7.127877502E0,3.094365234E0,1.318921031E1
1.281649204E1,-1.024589355E1,-6.537954254E0,3.237617340E0,1.257797069E1
1.282649504E1,-1.005818390E1,-5.805527344E0,3.345692596E0,1.208573002E1
1.283649804E1,-9.895322571E0,-5.101092224E0,3.344046021E0,1.162416425E1
1.284650104E1,-9.608219604E0,-4.533023529E0,3.257675629E0,1.111209417E1
1.285650504E1,-9.413025513E0,-4.028572540E0,3.219355316E0,1.073306548E1
1.286650804E1,-9.175170135E0,-3.578608246E0,3.231929169E0,1.036511216E1
1.287651104E1,-8.911119232E0,-3.259920959E0,3.203338623E0,1.001481447E1
1.288651404E1,-8.633296967E0,-3.058290253E0,3.143463135E0,9.683404167E0
1.289651704E1,-8.268954620E0,-2.867287445E0,3.045566711E0,9.266737527E0
1.290652104E1,-7.914791107E0,-2.652484131E0,2.971620483E0,8.860593582E0
1.291652404E1,-7.585026855E0,-2.511776733E0,2.856360168E0,8.485307783E0
1.292652704E1,-7.280559998E0,-2.424208832E0,2.741548920E0,8.148584713E0
1.293653004E1,-7.010072479E0,-2.377206573E0,2.663112030E0,7.866663393E0
1.294653304E1,-6.792574768E0,-2.380350037E0,2.552192688E0,7.636676358E0
1.295653704E1,-6.583160248E0,-2.414628754E0,2.439327393E0,7.424200226E0
1.296654004E1,-6.428980865E0,-2.480342102E0,2.377955017E0,7.289620153E0
1.297654304E1,-6.312223663E0,-2.573298798E0,2.329755249E0,7.203734712E0
1.298654604E1,-6.162385254E0,-2.669997711E0,2.242037659E0,7.080297498E0
1.299654904E1,-5.938899994E0,-2.801574097E0,2.135459290E0,6.905037070E0
1.300655304E1,-5.740263062E0,-2.940185852E0,2.013462982E0,6.756429977E0
1.301655604E1,-5.571114807E0,-3.061284027E0,1.978286133E0,6.657506749E0
1.302655904E1,-5.359454956E0,-3.243904266E0,1.875899048E0,6.539546586E0
1.303656204E1,-5.090913391E0,-3.421584778E0,1.747316437E0,6.377911592E0
1.304656504E1,-4.826413422E0,-3.527115326E0,1.671573944E0,6.207170731E0
1.305656904E1,-4.693489838E0,-3.746708679E0,1.534908142E0,6.198597889E0
1.306657204E1,-4.580474854E0,-4.049828339E0,1.368603973E0,6.265375990E0
1.307657504E1,-4.544549561E0,-4.320166168E0,1.235680389E0,6.390905449E0
1.308657804E1,-4.525539093E0,-4.518354034E0,1.139131165E0,6.495663713E0
1.309658104E1,-4.542603607E0,-4.629722443E0,1.059197388E0,6.572022256E0
1.310658504E1,-4.723577271E0,-4.675078125E0,1.081800385E0,6.733411452E0
1.311658804E1,-4.949008484E0,-4.658163300E0,1.149160309E0,6.892876012E0
1.312659104E1,-5.211113434E0,-4.607867889E0,1.066831512E0,7.037490972E0
1.313659404E1,-5.660179596E0,-4.715045013E0,9.873468018E-1,7.432639924E0
1.314659704E1,-6.193670197E0,-5.004393311E0,9.526190186E-1,8.019537761E0
1.315660104E1,-6.603068848E0,-5.307213593E0,9.443861389E-1,8.524018976E0
1.316660404E1,-6.740483093E0,-5.445226593E0,1.051712952E0,8.728728723E0
1.317660704E1,-6.589746552E0,-5.426665192E0,1.241967316E0,8.626467268E0
1.318661004E1,-6.516997833E0,-5.493276672E0,1.449884949E0,8.645780226E0
1.319661304E1,-6.861132202E0,-5.813760223E0,1.627565460E0,9.139141774E0
1.320661704E1,-7.574548645E0,-6.290668488E0,1.832040253E0,1.001512200E1
1.321662004E1,-8.299940186E0,-6.712790680E0,1.974543915E0,1.085584587E1
1.322662304E1,-8.746611328E0,-6.924001465E0,2.044298859E0,1.134125936E1
1.323662604E1,-8.822653198E0,-6.929989014E0,2.044897614E0,1.140375216E1
1.324662904E1,-8.672365723E0,-6.646478577E0,2.045795746E0,1.111624419E1
1.325663204E1,-8.542585602E0,-6.088588715E0,2.143093414E0,1.070698514E1
1.326663604E1,-8.680448914E0,-5.417983246E0,2.420167236E0,1.051484404E1
1.327663904E1,-8.770561523E0,-4.704117737E0,2.774031372E0,1.033183058E1
1.328664204E1,-8.987610168E0,-4.118834839E0,3.125500488E0,1.036873619E1
1.329664504E1,-9.483678589E0,-3.726201324E0,3.445684662E0,1.075627625E1
1.330664904E1,-1.014156052E1,-3.872896271E0,3.651506653E0,1.145356172E1
1.331665204E1,-1.073702225E1,-4.452790375E0,3.806733856E0,1.223119829E1
1.332665504E1,-1.114791779E1,-5.318440247E0,3.810176697E0,1.292591676E1
1.333665804E1,-1.114267868E1,-6.125112762E0,3.841461639E0,1.328281303E1
1.334666104E1,-1.113758926E1,-6.561156006E0,3.850892029E0,1.348792171E1
1.335666504E1,-1.138936569E1,-6.874155121E0,3.979624329E0,1.388557054E1
1.336666804E1,-1.185070633E1,-6.839577026E0,3.990102539E0,1.425271808E1
1.337667104E1,-1.236967712E1,-6.346652069E0,3.733386383E0,1.439538393E1
1.338667404E1,-1.265977386E1,-5.674699402E0,3.267555084E0,1.425303490E1
1.339667704E1,-1.258567795E1,-4.824617157E0,2.650987244E0,1.373695576E1
1.340668104E1,-1.242625946E1,-3.887416077E0,1.987267456E0,1.317092100E1
1.341668404E1,-1.206296494E1,-2.973716125E0,1.505120087E0,1.251493097E1
1.342668704E1,-1.165506317E1,-2.290686493E0,1.187480621E0,1.193724643E1
1.343669004E1,-1.141690842E1,-1.839674377E0,1.056952057E0,1.161237905E1
1.344669304E1,-1.111199249E1,-1.335073700E0,1.032403107E0,1.123942415E1
1.345669704E1,-1.068972061E1,-8.791218567E-1,1.192570038E0,1.079190462E1
1.346670004E1,-1.035546570E1,-5.950126648E-1,1.469643860E0,1.047614256E1
1.347670304E1,-1.010728180E1,-3.472778320E-1,1.850302277E0,1.028111695E1
1.348670604E1,-9.803713074E0,-6.706054688E-2,2.117346954E0,1.002997733E1
1.349670904E1,-9.509724426E0,1.725910950E-1,2.248923340E0,9.773551173E0
1.350671304E1,-9.195527802E0,3.016227722E-1,2.245330811E0,9.470491977E0
1.351671604E1,-8.874295807E0,3.766168213E-1,2.164199524E0,9.142140115E0
1.352671904E1,-8.609197083E0,3.936813354E-1,2.034868469E0,8.855165108E0
1.353672204E1,-8.451874237E0,3.466790771E-1,1.958377533E0,8.682718875E0
1.354672504E1,-8.311615906E0,3.119512939E-1,1.895508270E0,8.530722371E0
1.355672804E1,-8.200247498E0,1.749861145E-1,1.794468384E0,8.396117909E0
1.356673204E1,-8.165220337E0,-3.981719971E-2,1.710343323E0,8.342522571E0
1.357673504E1,-8.220754852E0,-2.562670898E-1,1.670526123E0,8.392683760E0
1.358673804E1,-8.409063263E0,-4.706213379E-1,1.630858612E0,8.578667100E0
1.359674104E1,-8.790170746E0,-6.993457031E-1,1.591789856E0,8.960467683E0
1.360674404E1,-9.300758972E0,-9.816586304E-1,1.640139313E0,9.495147608E0
1.361674804E1,-9.747579803E0,-1.201850739E0,1.773661652E0,9.980262165E0
1.362675104E1,-1.020353165E1,-1.371448059E0,1.917362823E0,1.047230672E1
1.363675404E1,-1.060529617E1,-1.528770905E0,1.933978271E0,1.088805397E1
1.364675704E1,-1.094014984E1,-1.672472076E0,1.874102783E0,1.122480747E1
1.365676004E1,-1.131362320E1,-1.883533173E0,1.750310211E0,1.160212709E1
1.366676404E1,-1.172975784E1,-2.136806488E0,1.684896240E0,1.204126390E1
1.367676754E1,-1.211969696E1,-2.415526886E0,1.758692780E0,1.248258086E1
1.368677054E1,-1.266636017E1,-2.843486938E0,1.882934418E0,1.311745173E1
1.369677354E1,-1.328487396E1,-3.424728241E0,2.056872711E0,1.387253996E1
1.370677654E1,-1.387928787E1,-3.964206390E0,2.295925598E0,1.461577362E1
1.371678054E1,-1.428494431E1,-4.343517609E0,2.524200897E0,1.514256812E1
1.372678354E1,-1.444600937E1,-4.477638702E0,2.721340942E0,1.536691679E1
1.373678654E1,-1.451561462E1,-4.321213989E0,2.741099854E0,1.539121784E1
1.374678954E1,-1.459674591E1,-4.302353210E0,2.568658447E0,1.543286236E1
1.375679354E1,-1.484028946E1,-4.683311005E0,2.338886261E0,1.573651747E1
1.376679654E1,-1.486004837E1,-5.338348846E0,2.151625671E0,1.593576164E1
1.377679954E1,-1.450902832E1,-5.861510925E0,2.021546173E0,1.577833521E1
1.378680254E1,-1.396490982E1,-6.170618134E0,2.102378082E0,1.541152906E1
1.379680554E1,-1.326002563E1,-6.110742645E0,2.406096497E0,1.479725501E1
1.380680954E1,-1.260813126E1,-5.725294189E0,2.669997711E0,1.410222873E1
1.381681254E1,-1.234048782E1,-5.207371216E0,2.880160675E0,1.370035329E1
1.382681554E1,-1.242416382E1,-4.728966064E0,3.033441925E0,1.363542213E1
1.383681854E1,-1.267189865E1,-4.452790375E0,3.022814026E0,1.376741669E1
1.384682154E1,-1.300914734E1,-4.540957031E0,2.930905151E0,1.408717183E1
1.385682554E1,-1.316182983E1,-5.000351715E0,2.817890167E0,1.435889226E1
1.386682854E1,-1.298819092E1,-5.761518860E0,2.812501373E0,1.448441807E1
1.387683154E1,-1.273027725E1,-6.506070557E0,2.853665771E0,1.457848831E1
1.388683454E1,-1.252400620E1,-6.992409210E0,3.016527100E0,1.465755619E1
1.389683754E1,-1.198901871E1,-7.324418793E0,3.297193451E0,1.443104864E1
1.390684154E1,-1.131122818E1,-7.292684784E0,3.515888672E0,1.391001824E1
1.391684454E1,-1.066651886E1,-6.888525238E0,3.711980896E0,1.322895335E1
1.392684754E1,-1.011686188E1,-6.365512848E0,3.844156036E0,1.255580279E1
1.393685054E1,-9.757010193E0,-5.763015747E0,3.861370239E0,1.197170742E1
1.394685354E1,-9.647288361E0,-5.117857361E0,3.830983429E0,1.157320486E1
1.395685754E1,-9.543404388E0,-4.552333374E0,3.725003815E0,1.121052897E1
1.396686054E1,-9.346563721E0,-4.050726471E0,3.511847076E0,1.077495746E1
1.397686354E1,-9.156309357E0,-3.716172180E0,3.177442474E0,1.037998446E1
1.398686654E1,-8.954978027E0,-3.432362366E0,2.784210205E0,9.986218971E0
1.399686954E1,-8.697513428E0,-3.107986908E0,2.491269379E0,9.566229433E0
1.400687354E1,-8.469537506E0,-2.887645111E0,2.294428711E0,9.237746639E0
1.401687654E1,-8.296347656E0,-2.666405182E0,2.151475983E0,8.975965125E0
1.402687954E1,-8.104746094E0,-2.492017822E0,2.049537964E0,8.723397729E0
1.403688254E1,-7.910450134E0,-2.318977661E0,2.017055511E0,8.486541796E0
1.404688654E1,-7.772437134E0,-2.225571899E0,1.929188232E0,8.311781789E0
1.405688954E1,-7.664361877E0,-2.290985870E0,1.766775970E0,8.192225374E0
1.406689254E1,-7.508535919E0,-2.359692993E0,1.601968689E0,8.031971511E0
1.407689554E1,-7.320227509E0,-2.445913696E0,1.489103394E0,7.860385073E0
1.408689854E1,-7.104376373E0,-2.544109497E0,1.453627167E0,7.684900047E0
1.409690254E1,-6.876550140E0,-2.625240784E0,1.432670746E0,7.498758329E0
1.410690554E1,-6.621330872E0,-2.774330750E0,1.451681213E0,7.324364270E0
1.411690854E1,-6.330635376E0,-2.996468811E0,1.485810242E0,7.159846484E0
1.412691154E1,-5.971382446E0,-3.177741852E0,1.540147247E0,6.937399018E0
1.413691454E1,-5.622907104E0,-3.335064697E0,1.564995575E0,6.722272829E0
1.414691854E1,-5.257816315E0,-3.494333496E0,1.575922852E0,6.506806576E0
1.415692154E1,-4.947661285E0,-3.624562683E0,1.517843628E0,6.318279522E0
1.416692454E1,-4.686304779E0,-3.751049652E0,1.521286469E0,6.192425897E0
1.417692754E1,-4.468507690E0,-3.919449463E0,1.489702148E0,6.127712262E0
1.418693154E1,-4.275558929E0,-4.140390015E0,1.428778839E0,6.120836757E0
1.419693454E1,-4.205055542E0,-4.436025238E0,1.312470703E0,6.251671086E0
1.420693754E1,-4.179009705E0,-4.682562561E0,1.270108795E0,6.403412418E0
1.421694054E1,-4.180506592E0,-4.751569061E0,1.337169342E0,6.468544331E0
1.422694354E1,-4.254602509E0,-4.729415131E0,1.439107361E0,6.522272608E0
1.423694754E1,-4.427193604E0,-4.791835327E0,1.452130280E0,6.683592698E0
1.424695054E1,-4.712500305E0,-4.879852295E0,1.498833160E0,6.947454094E0
1.425695354E1,-5.175337830E0,-4.886139221E0,1.558259583E0,7.286058678E0
1.426695654E1,-5.714965668E0,-4.929998016E0,1.594184875E0,7.714087013E0
1.427696054E1,-6.193670197E0,-5.053491211E0,1.564995575E0,8.145461010E0
1.428696354E1,-6.497089233E0,-5.122198334E0,1.507365417E0,8.409591832E0
1.429696654E1,-6.679859161E0,-5.177283783E0,1.534758453E0,8.589544184E0
1.430696954E1,-6.950795746E0,-5.355263672E0,1.640289001E0,8.926531157E0
1.431697254E1,-7.418722687E0,-5.805377655E0,1.746418304E0,9.580701066E0
1.432697654E1,-8.055348816E0,-6.431076508E0,1.806892548E0,1.046481009E1
1.433697954E1,-8.673413544E0,-6.995702362E0,1.796264648E0,1.128691812E1
1.434698254E1,-9.027876434E0,-7.374414825E0,1.792372742E0,1.179394535E1
1.435698554E1,-9.186995544E0,-7.503745880E0,1.860481110E0,1.200701792E1
1.436698954E1,-9.044491882E0,-7.100484467E0,2.039059753E0,1.167807680E1
1.437699254E1,-8.825197906E0,-6.241570587E0,2.321522369E0,1.105580334E1
1.438699554E1,-8.786877594E0,-5.345084839E0,2.748883667E0,1.064591524E1
1.439699854E1,-8.764723663E0,-4.670138397E0,3.113525391E0,1.040791112E1
1.440700154E1,-9.159901886E0,-4.100872192E0,3.465144196E0,1.061735276E1
1.441700554E1,-9.691446533E0,-3.872596893E0,3.730093231E0,1.108308342E1
1.442700854E1,-1.041369461E1,-4.162244568E0,4.074077911E0,1.193178219E1
1.443701154E1,-1.118968094E1,-4.878205719E0,4.364174652E0,1.296348221E1
1.444701454E1,-1.178753769E1,-5.758375397E0,4.552483063E0,1.388632543E1
1.445701754E1,-1.200772980E1,-6.354884949E0,4.637805634E0,1.435546512E1
1.446702154E1,-1.207763443E1,-6.769373016E0,4.637655945E0,1.460142175E1
1.447702454E1,-1.236368958E1,-6.924300842E0,4.509672089E0,1.487090799E1
1.448702754E1,-1.271635620E1,-6.548432465E0,4.288132782E0,1.493237307E1
1.449703054E1,-1.290690994E1,-5.940845947E0,3.837719421E0,1.471767866E1
1.450703454E1,-1.287203247E1,-5.168452148E0,3.096311188E0,1.421229258E1
1.451703754E1,-1.276186157E1,-4.273313599E0,2.348616028E0,1.366170989E1
1.452704054E1,-1.251607269E1,-3.411106567E0,1.699266357E0,1.308339519E1
1.453704354E1,-1.224214233E1,-2.632126465E0,1.275347900E0,1.258668546E1
1.454704654E1,-1.182615738E1,-1.861977997E0,1.041085052E0,1.201702203E1
1.455705054E1,-1.135553604E1,-1.193767548E0,9.026229858E-1,1.145373337E1
1.456705354E1,-1.096859070E1,-7.051835632E-1,8.168513489E-1,1.102154762E1
1.457705654E1,-1.057460999E1,-3.802093506E-1,8.521778870E-1,1.061570264E1
1.458705954E1,-1.014111145E1,-2.053729248E-1,1.075214081E0,1.020001984E1
1.459706354E1,-9.605674896E0,-1.321751404E-1,1.433868256E0,9.713003586E0
1.460706654E1,-9.023086395E0,-9.265731812E-2,1.686093750E0,9.179737775E0
1.461706954E1,-8.560248871E0,-1.025367737E-1,1.800605621E0,8.748174388E0
1.462707254E1,-8.188422089E0,-1.511856079E-1,1.861379242E0,8.398681210E0
1.463707554E1,-7.940088501E0,-2.146536255E-1,1.908082123E0,8.168957031E0
1.464707954E1,-7.757318573E0,-2.656974792E-1,1.957778778E0,8.004966230E0
1.465708254E1,-7.713310089E0,-3.092568970E-1,1.944306793E0,7.960598047E0
1.466708554E1,-7.716752930E0,-3.582051086E-1,1.726360016E0,7.915611510E0
1.467708942E1,-7.794141998E0,-4.778063965E-1,1.398691406E0,7.933050239E0
1.468709242E1,-7.940687256E0,-6.194119263E-1,1.127904510E0,8.044274598E0
1.469709642E1,-8.163723450E0,-7.256909180E-1,9.855505371E-1,8.254957161E0
1.470709942E1,-8.440348206E0,-8.253836060E-1,8.912466431E-1,8.527312385E0
1.471710242E1,-8.765921173E0,-9.313632202E-1,8.478369141E-1,8.855938058E0
1.472710542E1,-9.107061768E0,-1.035696259E0,9.443861389E-1,9.214288142E0
1.473710942E1,-9.509425049E0,-1.088686066E0,1.087787933E0,9.633155490E0
1.474711242E1,-9.862840118E0,-1.112935638E0,1.142873383E0,9.991015990E0
1.475711542E1,-1.012045441E1,-1.207987976E0,1.141975250E0,1.025606844E1
1.476711842E1,-1.045231430E1,-1.432670746E0,1.113983459E0,1.060869355E1
1.477712142E1,-1.081111816E1,-1.822609863E0,1.175954590E0,1.102656120E1
1.478712542E1,-1.118683685E1,-2.205363922E0,1.310674438E0,1.147723034E1
1.479712842E1,-1.171853119E1,-2.691702576E0,1.528471527E0,1.212045631E1
1.480713142E1,-1.240096207E1,-3.278033295E0,1.849853210E0,1.295960336E1
1.481713442E1,-1.313338898E1,-3.900588684E0,2.173330536E0,1.387169289E1
1.482713842E1,-1.379591125E1,-4.464915161E0,2.462080078E0,1.470797311E1
1.483714142E1,-1.430260757E1,-4.813240814E0,2.656525726E0,1.532282609E1
1.484714442E1,-1.450887863E1,-4.837340698E0,2.796185303E0,1.554754246E1
1.485714742E1,-1.439706116E1,-4.511917419E0,2.937491455E0,1.537080430E1
1.486715042E1,-1.424183395E1,-4.074526978E0,2.976410522E0,1.510928933E1
1.487715442E1,-1.445394287E1,-4.042343903E0,2.903362427E0,1.528680876E1
1.488715742E1,-1.475781097E1,-4.576582947E0,2.689906311E0,1.568354846E1
1.489716042E1,-1.462114517E1,-5.220693512E0,2.408940582E0,1.571103184E1
1.490716342E1,-1.418510193E1,-5.554199982E0,2.276466064E0,1.540287479E1
1.491716642E1,-1.375190277E1,-5.473517761E0,2.318378906E0,1.498162565E1
1.492717042E1,-1.318862411E1,-5.243146820E0,2.492616577E0,1.440984150E1
1.493717342E1,-1.280661850E1,-4.796176300E0,2.663710785E0,1.393226972E1
1.494717642E1,-1.253553223E1,-4.179608459E0,2.712359619E0,1.348946218E1
1.495717942E1,-1.248823059E1,-3.750750275E0,2.552342377E0,1.328677849E1
1.496718342E1,-1.266157013E1,-3.771856384E0,2.214345245E0,1.339573005E1
1.497718642E1,-1.279763718E1,-4.092339935E0,1.935175781E0,1.357467012E1
1.498718942E1,-1.279344589E1,-4.675377502E0,1.805395660E0,1.374011885E1
1.499719242E1,-1.272219406E1,-5.468727722E0,1.791773987E0,1.396322522E1
1.500719542E1,-1.262519577E1,-6.135740662E0,1.926194458E0,1.416873695E1
1.501719942E1,-1.243119919E1,-6.739135895E0,2.139351196E0,1.430131076E1
1.502720242E1,-1.200488571E1,-6.994953918E0,2.411185913E0,1.410178991E1
1.503720542E1,-1.150537445E1,-6.826254730E0,2.627336426E0,1.363357222E1
1.504720842E1,-1.102876556E1,-6.397845612E0,2.854713593E0,1.306581371E1
1.505721242E1,-1.072459808E1,-5.907914429E0,2.960244141E0,1.259696401E1
1.506721542E1,-1.056233551E1,-5.371879120E0,2.910397797E0,1.220206671E1
1.507721842E1,-1.033600616E1,-4.804109802E0,2.778522034E0,1.173169549E1
1.508722142E1,-1.005144791E1,-4.258943481E0,2.694846039E0,1.124421628E1
1.509722442E1,-9.738299103E0,-3.832480316E0,2.584525452E0,1.077970995E1
1.510722842E1,-9.553732910E0,-3.491040344E0,2.525548096E0,1.048043741E1
1.511723142E1,-9.358838196E0,-3.209775238E0,2.511028290E0,1.020763305E1
1.512723442E1,-9.084907837E0,-2.966082001E0,2.510429535E0,9.881065190E0
1.513723742E1,-8.774603119E0,-2.854114838E0,2.574496307E0,9.579543968E0
1.514724042E1,-8.410709839E0,-2.679428101E0,2.637814636E0,9.212895364E0
1.515724442E1,-8.076305237E0,-2.499352570E0,2.681074677E0,8.869139246E0
1.516724742E1,-7.780969391E0,-2.420316925E0,2.740501099E0,8.597195179E0
1.517725042E1,-7.481741638E0,-2.339784393E0,2.744692383E0,8.305683911E0
1.518725342E1,-7.250771942E0,-2.302511902E0,2.712958374E0,8.076843316E0
1.519725742E1,-7.041207733E0,-2.353555756E0,2.660417633E0,7.886422067E0
1.520726042E1,-6.874304810E0,-2.471809845E0,2.609972534E0,7.757439471E0
1.521726342E1,-6.730603638E0,-2.611469421E0,2.525548096E0,7.648476388E0
1.522726642E1,-6.617738342E0,-2.746338959E0,2.412383423E0,7.560187314E0
1.523726942E1,-6.568790131E0,-2.863245850E0,2.350112915E0,7.541234069E0
1.524727342E1,-6.460265808E0,-2.988834686E0,2.299069061E0,7.480232994E0
1.525727642E1,-6.335724792E0,-3.090623016E0,2.169438629E0,7.375623583E0
1.526727942E1,-6.206842804E0,-3.293002167E0,1.980232086E0,7.300005478E0
1.527728242E1,-5.907315674E0,-3.430566101E0,1.934427338E0,7.099800798E0
1.528728642E1,-5.627846832E0,-3.565884705E0,1.961371307E0,6.945154505E0
1.529728942E1,-5.439837799E0,-3.729793854E0,1.999092865E0,6.891993163E0
1.530729242E1,-5.386398926E0,-4.039649506E0,1.951940918E0,7.010145139E0
1.531729542E1,-5.393883362E0,-4.278702393E0,1.954485626E0,7.156904774E0
1.532729842E1,-5.409001923E0,-4.411176910E0,1.974693604E0,7.253633459E0
1.533730242E1,-5.342240753E0,-4.498295746E0,1.957180023E0,7.252913520E0
1.534730542E1,-5.149291992E0,-4.527784424E0,1.795216827E0,7.087936460E0
1.535730842E1,-4.952151947E0,-4.556075592E0,1.631457367E0,6.924109101E0
1.536731142E1,-4.893773346E0,-4.589905243E0,1.549727325E0,6.886065820E0
1.537731442E1,-5.016967163E0,-4.622537384E0,1.392703857E0,6.962573907E0
1.538731842E1,-5.425168304E0,-4.810995483E0,1.318458252E0,7.369970206E0
1.539732142E1,-5.824837189E0,-5.031486969E0,1.225800934E0,7.794047557E0
1.540732442E1,-6.042634277E0,-5.187312927E0,1.108894043E0,8.040602615E0
1.541732742E1,-6.123765564E0,-5.224585419E0,1.082698517E0,8.122132328E0
1.542733142E1,-6.142776031E0,-5.233417053E0,1.197210388E0,8.158165489E0
1.543733442E1,-6.160588989E0,-5.397475891E0,1.300645294E0,8.293206911E0
1.544733742E1,-6.513854370E0,-5.844296722E0,1.472188568E0,8.874313614E0
1.545734042E1,-7.140301666E0,-6.433471527E0,1.572330322E0,9.738875008E0
1.546734342E1,-7.614665222E0,-6.874155121E0,1.613943787E0,1.038469786E1
1.547734742E1,-7.875722351E0,-7.004234619E0,1.644629974E0,1.066729173E1
1.548735042E1,-8.152796173E0,-6.817872162E0,1.783092041E0,1.077640401E1
1.549735342E1,-8.495134277E0,-6.309229889E0,1.946103058E0,1.075922884E1
1.550735642E1,-8.788823547E0,-5.596561890E0,2.108964386E0,1.063074104E1
1.551735942E1,-8.956025848E0,-4.885989532E0,2.353106689E0,1.046997630E1
1.552736342E1,-9.123078461E0,-4.129163361E0,2.673590240E0,1.036477860E1
1.553736642E1,-9.474996643E0,-3.377725983E0,2.930156708E0,1.047713761E1
1.554736942E1,-9.982740784E0,-3.138224030E0,3.154989166E0,1.092966240E1
1.555737242E1,-1.067639832E1,-3.343297577E0,3.375480652E0,1.168576011E1
1.556737642E1,-1.142603943E1,-4.002975769E0,3.617976379E0,1.263597820E1
1.557737942E1,-1.192824509E1,-4.939278717E0,3.779939575E0,1.345241422E1
1.558738242E1,-1.207568848E1,-5.636828156E0,3.875890045E0,1.387871058E1
1.559738542E1,-1.252280869E1,-6.006259918E0,4.045936432E0,1.446601179E1
1.560738842E1,-1.305944275E1,-5.969735870E0,4.246519318E0,1.497396800E1
1.561739242E1,-1.356539063E1,-5.581443329E0,4.121678925E0,1.523681626E1
1.562739542E1,-1.390069336E1,-4.875062256E0,3.518882446E0,1.514523164E1
1.563739842E1,-1.383857254E1,-3.939807129E0,2.597548370E0,1.462106110E1
1.564740142E1,-1.350102448E1,-2.877615967E0,1.468446350E0,1.388217095E1
1.565740542E1,-1.302067337E1,-1.941762085E0,3.800596619E-1,1.317014884E1
1.566740842E1,-1.247595612E1,-1.200653229E0,-2.841091919E-1,1.253681647E1
1.567741067E1,-1.190998306E1,-5.471122742E-1,-5.472619629E-1,1.193509632E1
1.568741367E1,-1.129326553E1,-1.302291870E-2,-4.806504822E-1,1.130349684E1
1.569741667E1,-1.071501801E1,3.061134338E-1,-2.639012146E-1,1.072263774E1
1.570742067E1,-1.020532791E1,4.460723877E-1,7.334747314E-3,1.021507475E1
1.571742367E1,-9.632469177E0,4.203259277E-1,2.037263489E-1,9.643787677E0
1.572742667E1,-9.010362854E0,3.345542908E-1,3.938310242E-1,9.025168597E0
1.573742967E1,-8.485404510E0,3.204835510E-1,5.767506409E-1,8.511018782E0
1.574743267E1,-8.097710724E0,2.640509033E-1,7.315287781E-1,8.134972415E0
1.575743667E1,-7.727530518E0,1.778302002E-1,8.436456299E-1,7.775480013E0
1.576743967E1,-7.471113739E0,1.344204712E-1,8.882528687E-1,7.524932061E0
1.577744267E1,-7.256460114E0,8.816665649E-2,9.166937256E-1,7.314664321E0
1.578744567E1,-7.125482483E0,-2.140548706E-2,9.243278503E-1,7.185216822E0
1.579744967E1,-7.157515869E0,-1.516346741E-1,9.361532593E-1,7.220069904E0
1.580745267E1,-7.326364746E0,-2.966830444E-1,9.723779297E-1,7.396564071E0
1.581745567E1,-7.636070709E0,-4.755610657E-1,1.122665405E0,7.732794567E0
1.582745867E1,-8.025111694E0,-6.125262451E-1,1.347348175E0,8.160450552E0
1.583746167E1,-8.427474976E0,-6.761439514E-1,1.503174133E0,8.587143738E0
1.584746567E1,-8.794811096E0,-7.533833313E-1,1.536255341E0,8.959708094E0
1.585746867E1,-9.149423676E0,-8.421487427E-1,1.481020203E0,9.306695920E0
1.586747167E1,-9.508077850E0,-1.010249176E0,1.459315338E0,9.672318701E0
1.587747467E1,-9.942025452E0,-1.213676147E0,1.519639893E0,1.013045830E1
1.588747767E1,-1.033465897E1,-1.450932770E0,1.652413788E0,1.056602353E1
1.589748167E1,-1.072714279E1,-1.745819550E0,1.817071381E0,1.101913004E1
1.590748467E1,-1.115794693E1,-2.141596527E0,2.056872711E0,1.154629554E1
1.591748767E1,-1.163934586E1,-2.540217590E0,2.349214783E0,1.214272982E1
1.592749067E1,-1.219768478E1,-2.956352234E0,2.660866699E0,1.282979907E1
1.593749467E1,-1.283056870E1,-3.435954895E0,2.950364685E0,1.360639301E1
1.594749767E1,-1.337902817E1,-3.849694519E0,3.164419556E0,1.427697775E1
1.595750067E1,-1.372735382E1,-4.045786743E0,3.248095551E0,1.467510675E1
1.596750367E1,-1.378648087E1,-3.921245728E0,3.265609131E0,1.470059270E1
1.597750667E1,-1.350536545E1,-3.473676453E0,3.254083099E0,1.431958033E1
1.598751067E1,-1.322350159E1,-2.931803284E0,3.073408813E0,1.388892748E1
1.599751367E1,-1.337363937E1,-2.939287720E0,2.746338959E0,1.396552971E1
1.600751667E1,-1.373678421E1,-3.581751709E0,2.376009064E0,1.439352649E1
1.601751967E1,-1.379905472E1,-4.407883759E0,2.022444305E0,1.462647023E1
1.602752267E1,-1.367616028E1,-5.054389343E0,1.864223328E0,1.469896392E1
1.603752667E1,-1.342842545E1,-5.333409119E0,1.982776794E0,1.458421292E1
1.604752967E1,-1.295930099E1,-5.269941101E0,2.255958710E0,1.417057201E1
1.605753267E1,-1.250619324E1,-4.720583496E0,2.550546112E0,1.360860255E1
1.606753567E1,-1.228016327E1,-3.930227051E0,2.823728027E0,1.319933841E1
1.607753967E1,-1.238374786E1,-3.387904816E0,3.058439941E0,1.319807429E1
1.608754267E1,-1.270033951E1,-3.282074890E0,3.143014069E0,1.348885379E1
1.609754567E1,-1.300495605E1,-3.547922058E0,3.157234497E0,1.384502664E1
1.610754867E1,-1.299208282E1,-4.134402466E0,3.144960022E0,1.399207895E1
1.611755167E1,-1.281110916E1,-4.870870972E0,3.116968231E0,1.405579571E1
1.612755567E1,-1.266546204E1,-5.633235626E0,3.185525665E0,1.422303927E1
1.613755867E1,-1.247565674E1,-6.176156616E0,3.354973297E0,1.431931449E1
1.614756167E1,-1.227881607E1,-6.326743469E0,3.640279999E0,1.428455969E1
1.615756467E1,-1.191372528E1,-6.088289337E0,3.879033508E0,1.393021960E1
1.616756767E1,-1.156689651E1,-5.583838348E0,3.983216858E0,1.344761548E1
1.617757167E1,-1.128982269E1,-4.994962921E0,3.955524445E0,1.296363856E1
1.618757467E1,-1.093670700E1,-4.412673798E0,3.733685760E0,1.237027322E1
1.619757767E1,-1.063463516E1,-3.791914673E0,3.368744659E0,1.178229700E1
1.620758067E1,-1.038570282E1,-3.223995667E0,2.949765930E0,1.126756807E1
1.621758467E1,-1.000878662E1,-2.664459229E0,2.484533386E0,1.065119987E1
1.622758767E1,-9.564510498E0,-2.214644623E0,2.130519562E0,1.004607513E1
1.623759067E1,-9.123377838E0,-1.838776245E0,1.945204926E0,9.507941074E0
1.624759367E1,-8.696166229E0,-1.612895966E0,1.834285583E0,9.032681998E0
1.625759667E1,-8.315507812E0,-1.507814484E0,1.828298035E0,8.646609069E0
1.626760067E1,-7.945177917E0,-1.437011719E0,1.835932159E0,8.280187299E0
1.627760367E1,-7.571255493E0,-1.433419189E0,1.842219086E0,7.922901708E0
1.628760667E1,-7.328610077E0,-1.400038605E0,1.833387451E0,7.683094643E0
1.629760967E1,-7.230414276E0,-1.483265533E0,1.765578461E0,7.589218309E0
1.630761267E1,-7.053182831E0,-1.640139313E0,1.750609589E0,7.449971741E0
1.631761667E1,-6.818321228E0,-1.804048462E0,1.702709198E0,7.255571227E0
1.632761967E1,-6.660399628E0,-2.037712555E0,1.602268066E0,7.147059438E0
1.633762267E1,-6.520290985E0,-2.280058594E0,1.469494171E0,7.062030504E0
1.634762567E1,-6.308780823E0,-2.481838989E0,1.412313080E0,6.924945377E0
1.635762967E1,-6.103407898E0,-2.648592224E0,1.389859772E0,6.796935995E0
1.636763267E1,-5.885012054E0,-2.850671997E0,1.345252533E0,6.676031912E0
1.637763567E1,-5.581892395E0,-2.932402039E0,1.322649536E0,6.442507759E0
1.638763867E1,-5.308261414E0,-3.036884766E0,1.334474945E0,6.259483341E0
1.639764167E1,-5.114564209E0,-3.181633759E0,1.318907318E0,6.166123331E0
1.640764567E1,-4.966971130E0,-3.270099792E0,1.328487396E0,6.093376209E0
1.641764867E1,-4.984784088E0,-3.373085632E0,1.332678680E0,6.164560938E0
1.642765167E1,-5.069358215E0,-3.549418945E0,1.385219421E0,6.341577123E0
1.643765467E1,-5.219346313E0,-3.790866852E0,1.455423431E0,6.612904414E0
1.644765867E1,-5.355113983E0,-4.007765808E0,1.445693665E0,6.843205588E0
1.645766167E1,-5.485043793E0,-4.235592041E0,1.426383820E0,7.075345656E0
1.646766467E1,-5.514831848E0,-4.394112396E0,1.416055298E0,7.192135056E0
1.647766767E1,-5.464686127E0,-4.359534302E0,1.427581329E0,7.134866659E0
1.648767067E1,-5.591771851E0,-4.359234924E0,1.499132538E0,7.246946938E0
1.649767467E1,-6.057453461E0,-4.491410065E0,1.611099701E0,7.711105566E0
1.650767767E1,-6.615193634E0,-4.713697815E0,1.721569977E0,8.303224500E0
1.651768067E1,-7.109615479E0,-4.897066498E0,1.734143829E0,8.805404440E0
1.652768367E1,-7.274722137E0,-5.014272766E0,1.726509705E0,9.002519054E0
1.653768767E1,-7.170089722E0,-5.001100159E0,1.792522430E0,8.923806703E0
1.654769067E1,-7.012617188E0,-4.928351440E0,1.930834808E0,8.785987184E0
1.655769367E1,-7.218139801E0,-5.094805298E0,2.117496643E0,9.085283443E0
1.656769667E1,-7.833061066E0,-5.648354187E0,2.274969177E0,9.921503688E0
1.657769967E1,-8.450676727E0,-6.242319031E0,2.291734314E0,1.075325673E1
1.658770367E1,-8.972940674E0,-6.743626556E0,2.265688477E0,1.145091733E1
1.659770667E1,-9.449399872E0,-7.270381165E0,2.265538788E0,1.213599053E1
