"Time (s)","Acceleration x (m/s^2)","Acceleration y (m/s^2)","Acceleration z (m/s^2)","Absolute acceleration (m/s^2)"
8.652083343E-4,2.074386292E0,6.793472900E0,6.215075684E-1,7.130261159E0
1.086820833E-2,2.086211700E0,6.986571350E0,7.309300232E-1,7.327940856E0
2.087120833E-2,2.135608978E0,7.182513885E0,8.232879639E-1,7.538377444E0
3.087420833E-2,2.237696686E0,7.369774475E0,8.761280823E-1,7.751674831E0
4.087720833E-2,2.468965759E0,7.553741913E0,8.910969543E-1,7.996803273E0
5.088120834E-2,2.816692657E0,7.694000244E0,8.063731384E-1,8.232960277E0
6.088420833E-2,3.220702515E0,7.834258575E0,5.565426636E-1,8.488714382E0
7.088720833E-2,3.511398010E0,7.940986633E0,2.441423035E-1,8.686126304E0
8.089020833E-2,3.552712097E0,8.053402863E0,-1.270857239E-1,8.803136469E0
9.089320833E-2,3.430266724E0,8.141719208E0,-4.125421143E-1,8.844462248E0
1.008962083E-1,3.252436523E0,8.233628082E0,-4.414320374E-1,8.863737190E0
1.108992083E-1,3.141068115E0,8.449928284E0,-1.306782532E-1,9.015801335E0
1.209022083E-1,3.014281769E0,8.646918640E0,4.519102478E-1,9.168386959E0
1.309052083E-1,2.977757721E0,8.943302307E0,1.022673340E0,9.481326804E0
1.409092083E-1,3.000211029E0,9.254056091E0,1.532812500E0,9.848265559E0
1.509122083E-1,3.088527374E0,9.626930695E0,1.994302826E0,1.030504923E1
1.609152083E-1,3.243754578E0,1.002270767E1,2.412682800E0,1.080729620E1
1.709182083E-1,3.391048279E0,1.028675858E1,2.740950165E0,1.117270863E1
1.809212083E-1,3.433859253E0,1.037193146E1,2.915636902E0,1.130793041E1
1.909242083E-1,3.467239838E0,1.046848068E1,2.996618500E0,1.142762278E1
2.009272083E-1,3.489693146E0,1.078537170E1,2.947520599E0,1.171281686E1
2.109302083E-1,3.555705872E0,1.125614273E1,2.776725769E0,1.212658235E1
2.209342083E-1,3.620371399E0,1.179981216E1,2.558479614E0,1.260509715E1
2.309372083E-1,3.602558441E0,1.226773911E1,2.286495209E0,1.298860695E1
2.409402083E-1,3.516487427E0,1.264226028E1,2.111509094E0,1.329100822E1
2.509432083E-1,3.428320770E0,1.312934738E1,2.066153412E0,1.372596575E1
2.609462083E-1,3.390299835E0,1.378004425E1,2.170935516E0,1.435606887E1
2.709492083E-1,3.408861237E0,1.438927734E1,2.394420776E0,1.498014981E1
2.809522083E-1,3.523223419E0,1.470332428E1,2.653082886E0,1.535056015E1
2.909552083E-1,3.746708679E0,1.438673264E1,2.990630951E0,1.516442466E1
3.009582083E-1,3.818259888E0,1.347542770E1,3.221151581E0,1.437157187E1
3.109622083E-1,3.384162598E0,1.221355179E1,3.190914459E0,1.306925166E1
3.209652083E-1,2.878065033E0,1.083177521E1,2.903961182E0,1.157772011E1
3.309682083E-1,2.474354553E0,9.645492096E0,2.392774200E0,1.024125562E1
3.409712083E-1,1.956880646E0,8.546627197E0,1.890269165E0,8.969243883E0
3.509742083E-1,1.414558411E0,7.522456970E0,1.547182617E0,7.809104201E0
3.609772083E-1,8.632548523E-1,6.727609863E0,1.367705841E0,6.919289174E0
3.709802083E-1,3.457809448E-1,6.467450867E0,1.393601990E0,6.624923523E0
3.809832083E-1,-1.218466187E-1,6.673871613E0,1.674567719E0,6.881830130E0
3.909872083E-1,-5.239105225E-1,7.467521210E0,2.118394775E0,7.779842651E0
4.009902083E-1,-9.618997192E-1,8.903634796E0,2.829715576E0,9.391871693E0
4.109932083E-1,-1.398691406E0,1.048329987E1,3.930526428E0,1.128294960E1
4.209962083E-1,-1.751358032E0,1.181912201E1,5.047803040E0,1.297070605E1
4.309992083E-1,-2.085912323E0,1.246368164E1,5.901777191E0,1.394723500E1
4.410022083E-1,-2.327210541E0,1.217178864E1,6.459816742E0,1.397489105E1
4.510052083E-1,-2.357597351E0,1.146421005E1,6.323150940E0,1.330295513E1
4.610082083E-1,-2.403551788E0,1.067550018E1,5.788762207E0,1.237954495E1
4.710112083E-1,-2.304607544E0,9.838740234E0,4.851710815E0,1.120942118E1
4.810152083E-1,-1.741927643E0,9.213490448E0,3.480412445E0,1.000179928E1
4.910182083E-1,-1.063987427E0,8.613388367E0,2.430046692E0,9.012638644E0
5.010212083E-1,-5.337899780E-1,8.216563568E0,1.801952820E0,8.428753323E0
5.110242083E-1,-7.978408813E-2,7.884104919E0,1.493294678E0,8.024674752E0
5.210272083E-1,2.167492676E-1,7.687563629E0,1.423390045E0,7.821230978E0
5.310302083E-1,5.661227417E-1,7.528444519E0,1.367556152E0,7.672560307E0
5.410332083E-1,9.427395630E-1,7.274871826E0,1.222208405E0,7.436821321E0
5.510362083E-1,1.215921478E0,6.930138702E0,1.191971283E0,7.136251328E0
5.610392083E-1,1.482517090E0,6.674919434E0,1.186732178E0,6.939793918E0
5.710432083E-1,1.804796906E0,6.460415497E0,1.137484589E0,6.803538157E0
5.810462083E-1,2.103425903E0,6.259233856E0,1.096619568E0,6.693652476E0
5.910492083E-1,2.307301941E0,6.086942139E0,1.086440735E0,6.599610619E0
6.010522083E-1,2.520159302E0,5.951473846E0,1.040785675E0,6.546333223E0
6.110552083E-1,2.716550903E0,5.879323883E0,9.635462952E-1,6.547863743E0
6.210582083E-1,2.888094177E0,5.840105438E0,8.767268372E-1,6.573931050E0
6.310612083E-1,3.028951263E0,5.910908203E0,7.864645386E-1,6.688191685E0
6.410642083E-1,3.204087067E0,6.137686615E0,6.765930176E-1,6.956662204E0
6.510682083E-1,3.364253998E0,6.507866821E0,4.891827393E-1,7.342331733E0
6.610712083E-1,3.403322754E0,6.984475708E0,1.860630798E-1,7.771751807E0
6.710742083E-1,3.338657227E0,7.391179962E0,-1.936972046E-1,8.112563831E0
6.810772083E-1,3.204087067E0,7.683072968E0,-6.039939880E-1,8.346292164E0
6.910802083E-1,2.982847137E0,7.840695190E0,-9.262738037E-1,8.439896994E0
7.010832083E-1,2.714754639E0,7.977510681E0,-1.153950348E0,8.505420085E0
7.110862083E-1,2.429298248E0,8.116721191E0,-1.153351593E0,8.550606574E0
7.210892083E-1,2.183958435E0,8.357420654E0,-9.785151672E-1,8.693310438E0
7.310932083E-1,2.032772827E0,8.809630280E0,-7.563771057E-1,9.072698460E0
7.410962083E-1,1.942660217E0,9.465117188E0,-4.942721558E-1,9.675054370E0
7.510992083E-1,2.002386017E0,1.023257126E1,-1.683998108E-1,1.042801145E1
7.611022083E-1,2.285746765E0,1.105181763E1,2.854563904E-1,1.128932223E1
7.711052083E-1,2.659220123E0,1.177571228E1,8.008346558E-1,1.209876802E1
7.811082083E-1,3.046464844E0,1.229917374E1,1.484612732E0,1.275753493E1
7.911112083E-1,3.340004425E0,1.270497986E1,2.226619720E0,1.332403761E1
8.011142083E-1,3.445235596E0,1.301393738E1,2.966231689E0,1.378516394E1
8.111182083E-1,3.307222595E0,1.314850754E1,3.699407043E0,1.405370358E1
8.211212083E-1,2.874472504E0,1.304731796E1,4.427343292E0,1.407467466E1
8.311242083E-1,2.295476532E0,1.296334259E1,5.140610046E0,1.413305824E1
8.411272083E-1,1.822310486E0,1.316991302E1,5.732628937E0,1.447862076E1
8.511302083E-1,1.637145538E0,1.368394409E1,6.137387238E0,1.508635455E1
8.611332083E-1,1.960473175E0,1.427371765E1,6.084696808E0,1.563988510E1
8.711362083E-1,2.721340942E0,1.404020325E1,5.491031342E0,1.531941347E1
8.811392083E-1,3.387156372E0,1.312395859E1,4.850513306E0,1.439578399E1
8.911432083E-1,3.462898865E0,1.236997650E1,4.257147217E0,1.353260099E1
9.011462083E-1,3.173400879E0,1.156165741E1,3.723506927E0,1.255415864E1
9.111492083E-1,2.811303864E0,1.077130096E1,3.385659485E0,1.163559384E1
9.211522083E-1,2.579885101E0,9.993668060E0,3.341950378E0,1.084886357E1
9.311552083E-1,2.579585724E0,9.119785309E0,3.581901398E0,1.013186874E1
9.411583333E-1,2.685116272E0,8.478369141E0,3.923041992E0,9.720228966E0
9.511613333E-1,2.659519501E0,8.504714355E0,4.169130249E0,9.837929522E0
9.611643333E-1,2.627785492E0,9.258397064E0,4.278702393E0,1.053235334E1
9.711673333E-1,2.824177094E0,1.024739044E1,4.361480255E0,1.148945156E1
9.811713333E-1,3.235521698E0,1.100496506E1,4.392016754E0,1.228282002E1
9.911743333E-1,3.772604828E0,1.187495590E1,4.248764648E0,1.316431259E1
1.001177333E0,4.343367920E0,1.228869553E1,3.831282806E0,1.358512461E1
1.011180333E0,4.596042480E0,1.192540100E1,3.233875122E0,1.318319930E1
1.021183333E0,4.609364777E0,1.146166534E1,2.746189270E0,1.265533767E1
1.031186333E0,4.433031464E0,1.109732300E1,2.415826263E0,1.219174156E1
1.041189333E0,4.107757874E0,1.034393967E1,2.161654816E0,1.133770321E1
1.051192333E0,3.957320709E0,9.347910919E0,1.894909515E0,1.032639859E1
1.061196333E0,3.785028992E0,8.547375641E0,1.639091492E0,9.490558241E0
1.071199333E0,3.433709564E0,7.751630402E0,1.424737244E0,8.596976880E0
1.081202333E0,3.082090759E0,7.144792328E0,1.231788483E0,7.878111685E0
1.091205333E0,2.746189270E0,6.660549316E0,1.069376221E0,7.283408419E0
1.101208333E0,2.465223541E0,6.238127747E0,9.207353210E-1,6.770474018E0
1.111211333E0,2.211950226E0,5.882167969E0,8.229885864E-1,6.337975546E0
1.121214333E0,1.994602203E0,5.564977570E0,7.382647705E-1,5.957553875E0
1.131217333E0,1.805994415E0,5.321134644E0,6.776408386E-1,5.659972335E0
1.141221333E0,1.642534332E0,5.205125885E0,6.306385803E-1,5.494448064E0
1.151224333E0,1.487456818E0,5.215304718E0,5.668711853E-1,5.452822574E0
1.161227333E0,1.292562103E0,5.371280365E0,4.519102478E-1,5.543067059E0
1.171230333E0,1.069825287E0,5.572761383E0,3.243754578E-1,5.683785272E0
1.181233333E0,8.337661743E-1,5.669160919E0,2.603086853E-1,5.736053711E0
1.191236333E0,5.882766724E-1,5.764961700E0,2.481838989E-1,5.800211039E0
1.201239333E0,4.031117249E-1,5.985453186E0,2.941383362E-1,6.006218966E0
1.211242333E0,2.823129272E-1,6.261329498E0,4.207749939E-1,6.281799047E0
1.221246333E0,2.719844055E-1,6.622977448E0,6.039939880E-1,6.656020923E0
1.231249333E0,2.601589966E-1,6.977140961E0,8.388555908E-1,7.032201461E0
1.241252333E0,3.400927734E-1,7.245981903E0,1.084345093E0,7.334556641E0
1.251255333E0,5.539979553E-1,7.520061951E0,1.345102844E0,7.659474338E0
1.261258333E0,8.641529846E-1,7.867639160E0,1.602717133E0,8.075593386E0
1.271261333E0,1.224603424E0,8.312214661E0,1.833986206E0,8.599771597E0
1.281264333E0,1.656605072E0,8.713829498E0,2.015259247E0,9.095957054E0
1.291267333E0,2.122286682E0,9.064849548E0,2.093696136E0,9.542492421E0
1.301271333E0,2.641257477E0,9.424850922E0,2.014810181E0,9.993173471E0
1.311274333E0,3.219505005E0,9.867480469E0,1.830543365E0,1.053960494E1
1.321277333E0,3.778592377E0,1.025667114E1,1.601369934E0,1.104723716E1
1.331280333E0,4.213438110E0,1.046294220E1,1.418150940E0,1.136826162E1
1.341283333E0,4.508474579E0,1.060200302E1,1.321601715E0,1.159635469E1
1.351286333E0,4.760700073E0,1.093880264E1,1.333876190E0,1.200420319E1
1.361289333E0,5.039420471E0,1.150327881E1,1.455722809E0,1.264279680E1
1.371292333E0,5.272186432E0,1.207164688E1,1.683848419E0,1.327990789E1
1.381296333E0,5.362897797E0,1.247101639E1,1.812580719E0,1.369570631E1
1.391299333E0,5.156177673E0,1.250993546E1,1.773511963E0,1.364661123E1
1.401302333E0,4.394262085E0,1.236368958E1,1.628912659E0,1.322209195E1
1.411305333E0,3.532803497E0,1.258148666E1,1.627116394E0,1.316897927E1
1.421308333E0,2.996169434E0,1.326466599E1,1.813329163E0,1.371920397E1
1.431311333E0,2.728825378E0,1.421803345E1,2.099384308E0,1.462895682E1
1.441314333E0,2.568658447E0,1.495360382E1,2.347717896E0,1.535317729E1
1.451317333E0,2.404449921E0,1.497081802E1,2.538271637E0,1.537366562E1
1.461321333E0,2.223027191E0,1.392524231E1,2.622995453E0,1.434344200E1
1.471324333E0,1.922751617E0,1.225531494E1,2.582579498E0,1.267120495E1
1.481327333E0,1.542841644E0,1.046608566E1,2.395169220E0,1.084694174E1
1.491330333E0,1.155297546E0,8.649613037E0,2.237546997E0,9.008725475E0
1.501333333E0,8.634045410E-1,7.137307892E0,2.148482208E0,7.503506323E0
1.511336333E0,5.731581116E-1,6.004912720E0,2.137854309E0,6.399836563E0
1.521339333E0,2.176473999E-1,5.505850525E0,2.296224976E0,5.969456385E0
1.531342333E0,-2.204914856E-1,6.174510040E0,2.673440552E0,6.732048360E0
1.541346333E0,-5.366340637E-1,8.173902283E0,3.160677338E0,8.780121632E0
1.551349333E0,-6.011499023E-1,1.079195801E1,3.721710663E0,1.143148587E1
1.561352333E0,-8.011340332E-1,1.324505676E1,4.324656830E0,1.395621729E1
1.571355333E0,-1.177750854E0,1.491693008E1,4.920268250E0,1.575153770E1
1.581358333E0,-1.613494720E0,1.514745071E1,5.151537323E0,1.608063945E1
1.591361333E0,-1.883533173E0,1.342662918E1,4.737947388E0,1.436211035E1
1.601364333E0,-1.719174957E0,1.115450409E1,3.934717712E0,1.195242768E1
1.611367333E0,-1.464105377E0,9.655521240E0,3.323089600E0,1.031579466E1
1.621370333E0,-1.072070618E0,8.615633698E0,2.517913971E0,9.039821358E0
1.631374333E0,-6.608757019E-1,7.917036438E0,1.868863678E0,8.161425985E0
1.641377333E0,-3.625460815E-1,7.333549805E0,1.451830902E0,7.484664680E0
1.651380333E0,-7.873626709E-2,6.987469482E0,1.249302063E0,7.098710081E0
1.661383333E0,3.035687256E-1,6.828500061E0,1.083147583E0,6.920532909E0
1.671386333E0,7.033872986E-1,6.756499786E0,8.882528687E-1,6.850842008E0
1.681389333E0,9.669891357E-1,6.589447174E0,8.071215820E-1,6.708750055E0
1.691392333E0,1.193917236E0,6.444099426E0,7.647596741E-1,6.598235608E0
1.701396333E0,1.391356659E0,6.360872498E0,7.336244202E-1,6.552463435E0
1.711399333E0,1.554068298E0,6.293362885E0,7.342231750E-1,6.523850730E0
1.721402333E0,1.785187683E0,6.270610199E0,7.599696350E-1,6.563916603E0
1.731405333E0,2.030377808E0,6.242768097E0,8.343649292E-1,6.617458152E0
1.741408333E0,2.335144043E0,6.210585022E0,9.271719360E-1,6.699545642E0
1.751411333E0,3.021915894E0,6.286327515E0,1.121916962E0,7.064600977E0
1.761414333E0,4.066892853E0,6.451883240E0,1.276844788E0,7.732835665E0
1.771417333E0,4.659959564E0,6.404282227E0,1.268013153E0,8.021091655E0
1.781420333E0,4.744683380E0,6.523434448E0,1.307530975E0,8.171710631E0
1.791424333E0,4.664599915E0,6.850953369E0,1.135838013E0,8.365654931E0
1.801427333E0,4.484823761E0,7.187154236E0,6.676116943E-1,8.497913600E0
1.811430333E0,4.221521301E0,7.403155060E0,2.091151428E-1,8.524768389E0
1.821433333E0,3.957021332E0,7.570656738E0,-3.321592712E-1,8.548870747E0
1.831436333E0,3.512445831E0,7.715106354E0,-8.574169922E-1,8.520287886E0
1.841439333E0,2.905009003E0,7.908055115E0,-1.224304047E0,8.513244587E0
1.851442333E0,2.240241394E0,8.158783722E0,-1.289568329E0,8.558470646E0
1.861445333E0,1.704655151E0,8.529862061E0,-1.193767548E0,8.780061328E0
1.871449333E0,1.326840820E0,9.022188263E0,-1.008752289E0,9.174855247E0
1.881452333E0,1.171164551E0,9.718091125E0,-8.044271851E-1,9.821406448E0
1.891455333E0,1.214723969E0,1.052626053E1,-6.026467896E-1,1.061324164E1
1.901458333E0,1.381926270E0,1.138637192E1,-2.664459229E-1,1.147301962E1
1.911461333E0,1.653611298E0,1.218032089E1,1.866618347E-1,1.229347347E1
1.921464333E0,1.895059204E0,1.284209473E1,7.903564453E-1,1.300520318E1
1.931467333E0,2.080822906E0,1.334729416E1,1.525178375E0,1.359434641E1
1.941470333E0,2.285746765E0,1.357901230E1,2.434387665E0,1.398357810E1
1.951474750E0,2.455344086E0,1.339743988E1,3.435206451E0,1.404709056E1
1.961477750E0,2.417772217E0,1.304222855E1,4.563260651E0,1.402742655E1
1.971480750E0,2.713557129E0,1.304013290E1,5.714217224E0,1.449347222E1
1.981483750E0,3.415148163E0,1.310404999E1,6.597230988E0,1.506329379E1
1.991486750E0,4.278852081E0,1.289897644E1,6.872957611E0,1.522923881E1
2.001489750E0,4.999154205E0,1.271126678E1,6.242618408E0,1.501792698E1
2.011492750E0,5.224884796E0,1.213721054E1,5.123395844E0,1.417252574E1
2.021495750E0,4.777914276E0,1.126916565E1,3.968547363E0,1.286747557E1
2.031498750E0,4.045187988E0,1.048928741E1,3.032543793E0,1.164409800E1
2.041502750E0,3.443738708E0,9.950258331E0,2.428699493E0,1.080581132E1
2.051505750E0,2.942431183E0,9.526190186E0,2.193538513E0,1.020871255E1
2.061508750E0,2.674937439E0,9.247170410E0,2.283950500E0,9.893527217E0
2.071511750E0,2.953208771E0,9.441466370E0,2.688259735E0,1.025131551E1
2.081514750E0,3.577261047E0,1.002315674E1,3.207529907E0,1.111524699E1
2.091517750E0,4.014651489E0,1.070394104E1,3.604504395E0,1.198683579E1
2.101520750E0,4.318818970E0,1.147887955E1,3.800596619E0,1.283983674E1
2.111523750E0,4.617298279E0,1.226294907E1,3.845802612E0,1.365611808E1
2.121527750E0,4.823868713E0,1.282038986E1,3.797004089E0,1.421440627E1
2.131530750E0,4.776118011E0,1.288760010E1,3.612886963E0,1.421106934E1
2.141533750E0,4.686304779E0,1.257579849E1,3.381468201E0,1.384003206E1
2.151536750E0,4.304598541E0,1.195459030E1,2.917433167E0,1.303661053E1
2.161539750E0,3.631897430E0,1.114237930E1,2.345771942E0,1.195181750E1
2.171542750E0,2.951562195E0,1.042507095E1,1.899100800E0,1.100001853E1
2.181545750E0,2.490520935E0,9.730066223E0,1.590292969E0,1.016886990E1
2.191548750E0,2.225721588E0,9.051078186E0,1.447489929E0,9.432448251E0
2.201552750E0,1.938768311E0,8.275690613E0,1.359023895E0,8.607718840E0
2.211555750E0,1.744771729E0,7.605384521E0,1.280287628E0,7.907290213E0
2.221558750E0,1.579365692E0,6.921307068E0,1.258882141E0,7.209970302E0
2.231561750E0,1.491049347E0,6.368806000E0,1.185684357E0,6.647613512E0
2.241564750E0,1.368005219E0,5.875132599E0,1.166673889E0,6.144082462E0
2.251567750E0,1.175206146E0,5.456752625E0,1.165476379E0,5.702244635E0
2.261570750E0,1.017733612E0,5.203628998E0,1.121168518E0,5.419460794E0
2.271573750E0,8.301736450E-1,4.970413971E0,1.087488556E0,5.155272513E0
2.281577750E0,6.134243774E-1,4.775070190E0,1.006656647E0,4.918428854E0
2.291580750E0,3.058140564E-1,4.686005402E0,8.041278076E-1,4.764324757E0
2.301583750E0,-6.885681152E-2,4.683760071E0,6.469546509E-1,4.728731329E0
2.311586750E0,-3.893403625E-1,4.696633301E0,4.911286926E-1,4.738265260E0
2.321589750E0,-4.812492371E-1,4.769531708E0,2.242337036E-1,4.798990966E0
2.331592750E0,-3.905378723E-1,4.964576111E0,9.580078125E-3,4.979922446E0
2.341595750E0,-1.715432739E-1,5.292544098E0,-1.472937012E-1,5.297371571E0
2.351598750E0,2.417472839E-1,5.628894653E0,-2.782713318E-1,5.640951312E0
2.361601750E0,6.863227844E-1,6.076014862E0,-3.733236694E-1,6.126040004E0
2.371605750E0,1.088686066E0,6.695426788E0,-4.834945679E-1,6.800569404E0
2.381608750E0,1.503323822E0,7.491621094E0,-5.387297058E-1,7.659934649E0
2.391611750E0,1.964963837E0,8.341703339E0,-5.822891235E-1,8.589770549E0
2.401614750E0,2.414778442E0,9.160500641E0,-5.993536377E-1,9.492373344E0
2.411617750E0,2.925666046E0,9.935289459E0,-5.866300964E-1,1.037369911E1
2.421620750E0,3.538791046E0,1.059706329E1,-4.561015320E-1,1.118162873E1
2.431623750E0,4.032763824E0,1.105555984E1,-2.935395813E-1,1.177177782E1
2.441626750E0,4.193978577E0,1.131901199E1,-6.721023560E-2,1.207120566E1
2.451630750E0,4.171225891E0,1.155462204E1,2.029779053E-1,1.228615546E1
2.461633750E0,4.185745697E0,1.182960022E1,5.149291992E-1,1.255886382E1
2.471636750E0,4.173770599E0,1.216580109E1,8.693920898E-1,1.289119543E1
2.481639750E0,4.107308807E0,1.244227615E1,1.270408173E0,1.316412391E1
2.491642750E0,3.990551605E0,1.251861740E1,1.694626007E0,1.324809575E1
2.501645750E0,3.704646149E0,1.246832199E1,2.053579559E0,1.316816788E1
2.511648750E0,3.261567535E0,1.264435593E1,2.266736298E0,1.325351474E1
2.521651750E0,2.908751221E0,1.332633774E1,2.452799377E0,1.385887210E1
2.531654750E0,2.737507324E0,1.434092789E1,2.589914246E0,1.482780546E1
2.541658750E0,2.594105530E0,1.555774750E1,2.581381989E0,1.598237854E1
2.551661750E0,2.511327667E0,1.655856628E1,2.375260620E0,1.691551794E1
2.561664750E0,2.429897003E0,1.696377365E1,2.137854309E0,1.726975498E1
2.571667750E0,2.176174622E0,1.583437225E1,1.791773987E0,1.608333096E1
2.581670750E0,1.846110992E0,1.336525681E1,1.243015137E0,1.354929156E1
2.591673750E0,1.393901367E0,1.098924774E1,8.273295593E-1,1.110815021E1
2.601676750E0,8.940907288E-1,8.828940125E0,6.550378418E-1,8.898238957E0
2.611679750E0,4.689747620E-1,7.117249603E0,4.962181091E-1,7.149923892E0
2.621683750E0,8.652008057E-2,5.873336334E0,5.159770203E-1,5.896592042E0
2.631686750E0,-2.676434326E-1,5.299280090E0,6.538403320E-1,5.346167755E0
2.641689750E0,-7.735913086E-1,5.852230225E0,9.782157898E-1,5.983640050E0
2.651692750E0,-1.011147308E0,7.782017212E0,1.398242340E0,7.971028316E0
2.661695750E0,-9.009764099E-1,1.059706329E1,1.980980530E0,1.081821579E1
2.671698750E0,-7.587721252E-1,1.350386856E1,3.174448700E0,1.389270765E1
2.681701750E0,-6.822811890E-1,1.553379730E1,4.944218445E0,1.631593277E1
2.691704750E0,-1.063089294E0,1.552646255E1,7.048841858E0,1.708471158E1
2.701708750E0,-1.609004059E0,1.340432556E1,8.768016815E0,1.609791778E1
2.711711750E0,-1.981130219E0,1.092727661E1,8.980275421E0,1.428200258E1
2.721714750E0,-2.076332245E0,9.034313049E0,6.901248779E0,1.155669514E1
2.731717750E0,-1.849404144E0,7.880063324E0,4.299060059E0,9.165021062E0
2.741720750E0,-1.457968140E0,7.253616028E0,2.709066467E0,7.879064519E0
2.751723750E0,-1.083147583E0,6.902446289E0,1.755848694E0,7.204163941E0
2.761726750E0,-6.685098267E-1,6.622678070E0,1.216969299E0,6.766667162E0
2.771729750E0,-2.863545227E-1,6.323300629E0,9.442364502E-1,6.399821265E0
2.781732750E0,3.577560425E-2,5.955066376E0,8.017327881E-1,6.008899308E0
2.791736750E0,3.367996216E-1,5.610932007E0,6.587800598E-1,5.659503789E0
2.801739750E0,6.104306030E-1,5.355113983E0,6.023474121E-1,5.423347094E0
2.811742750E0,1.006506958E0,5.332660675E0,5.574407959E-1,5.455370416E0
2.821745750E0,1.670226746E0,5.497168579E0,4.288581848E-1,5.761287973E0
2.831748750E0,2.242037659E0,5.795797577E0,3.668870544E-1,6.225159317E0
2.841751750E0,2.761158142E0,6.071823578E0,4.417314148E-1,6.684770938E0
2.851754750E0,3.757037201E0,6.605763245E0,6.713539124E-1,7.629033533E0
2.861757750E0,4.919669495E0,7.045848083E0,8.451425171E-1,8.634893689E0
2.871761750E0,5.379513245E0,7.212152252E0,8.333171082E-1,9.035968142E0
2.881764750E0,5.197791138E0,7.337292023E0,6.587800598E-1,9.015923586E0
2.891767750E0,4.736151123E0,7.319029999E0,3.107537842E-1,8.723296137E0
2.901770750E0,4.162993011E0,7.160659332E0,2.409988403E-2,8.282881968E0
2.911773750E0,3.691772919E0,7.094047852E0,-7.604187012E-2,7.997529904E0
2.921776750E0,3.404819641E0,7.240742798E0,-4.667294312E-1,8.014922920E0
2.931779750E0,3.249442749E0,7.583529968E0,-9.668394470E-1,8.306839560E0
2.941782750E0,3.072510681E0,8.049960022E0,-1.658251648E0,8.774507209E0
2.951786000E0,2.665806427E0,8.425678711E0,-2.516267395E0,9.188590058E0
2.961789000E0,2.134561157E0,8.682544556E0,-2.754272461E0,9.355690679E0
2.971792000E0,1.823957062E0,8.988059235E0,-2.077829132E0,9.403690875E0
2.981795000E0,1.859433289E0,9.397158508E0,-1.221310272E0,9.656897999E0
2.991798000E0,2.144590302E0,9.823771362E0,-5.947132874E-1,1.007270744E1
3.001801000E0,2.430645447E0,1.023646317E1,-1.032852173E-1,1.052159129E1
3.011804000E0,2.691103821E0,1.069256470E1,3.065625000E-1,1.103027471E1
3.021807000E0,2.819985809E0,1.137185211E1,6.819818115E-1,1.173611689E1
3.031811000E0,2.807561646E0,1.221654556E1,1.092877350E0,1.258255812E1
3.041814000E0,2.729873199E0,1.317949310E1,1.538201294E0,1.354685607E1
3.051817000E0,2.738704834E0,1.408121796E1,2.076032867E0,1.449452020E1
3.061820000E0,2.775528259E0,1.468790634E1,2.714754639E0,1.519236791E1
3.071823000E0,2.706222382E0,1.473715393E1,3.450175323E0,1.537566439E1
3.081826000E0,2.805615692E0,1.444091995E1,4.323159943E0,1.533301537E1
3.091829000E0,3.107837219E0,1.414767975E1,5.098098450E0,1.535597936E1
3.101832000E0,3.664379883E0,1.377016479E1,5.626050568E0,1.531984215E1
3.111835000E0,4.237238617E0,1.306917252E1,5.607938232E0,1.483935418E1
3.121839000E0,4.649032288E0,1.217777618E1,5.305267639E0,1.407329381E1
3.131842000E0,4.611460419E0,1.123054596E1,4.757706299E0,1.303942096E1
3.141845000E0,4.130360870E0,1.030457153E1,4.035009155E0,1.181208594E1
3.151848000E0,3.545676727E0,9.441466370E0,3.469335480E0,1.066533634E1
3.161851000E0,3.107088776E0,8.684789886E0,3.076701965E0,9.723459827E0
3.171854000E0,2.895578613E0,8.192164307E0,2.956352234E0,9.178014495E0
3.181857000E0,2.991828461E0,8.157286835E0,3.072660370E0,9.215943131E0
3.191860000E0,3.423680420E0,8.766968994E0,3.334016876E0,9.984838581E0
3.201863000E0,3.902983704E0,9.895322571E0,3.499123535E0,1.119797107E1
3.211867000E0,4.255650330E0,1.119956039E1,3.455713806E0,1.246926905E1
3.221870000E0,4.443210297E0,1.228884521E1,3.287313995E0,1.347457857E1
3.231873000E0,4.507426758E0,1.289882675E1,3.121907959E0,1.401581025E1
3.241876000E0,4.461322632E0,1.284853134E1,3.034639435E0,1.393546532E1
3.251879000E0,4.308340759E0,1.235066666E1,3.011437683E0,1.342272416E1
3.261882000E0,4.015699310E0,1.172092621E1,2.952909393E0,1.273678240E1
3.271885000E0,3.531456299E0,1.100047440E1,2.815944214E0,1.189164254E1
3.281888000E0,3.034340057E0,1.034738251E1,2.606380005E0,1.109363606E1
3.291892000E0,2.561024323E0,9.750423889E0,2.418820038E0,1.036727071E1
3.301895000E0,2.186503143E0,9.214388580E0,2.244282990E0,9.732551518E0
3.311898000E0,1.766177216E0,8.614735565E0,2.092648315E0,9.039481611E0
3.321901000E0,1.382375336E0,7.998916168E0,1.983974304E0,8.356421212E0
3.331904000E0,1.179996185E0,7.491770782E0,1.876946869E0,7.812934788E0
3.341907000E0,1.141975250E0,7.014862518E0,1.736089783E0,7.316174640E0
3.351910000E0,1.139879608E0,6.504124603E0,1.590143280E0,6.792018700E0
3.361913000E0,1.073417816E0,5.962101746E0,1.435065765E0,6.225616177E0
3.371916000E0,1.031804352E0,5.537135468E0,1.279539185E0,5.775959655E0
3.381920000E0,9.521699524E-1,5.241500244E0,1.130748596E0,5.445965921E0
3.391923000E0,8.074209595E-1,4.965923309E0,1.039887543E0,5.137478858E0
3.401926000E0,5.968089294E-1,4.768633575E0,9.382489014E-1,4.896565947E0
3.411929000E0,3.903881836E-1,4.713398438E0,7.861651611E-1,4.794432545E0
3.421932000E0,2.002835083E-1,4.732408905E0,6.541397095E-1,4.781600808E0
3.431935000E0,5.867797852E-2,4.683311005E0,5.189707947E-1,4.712342916E0
3.441938000E0,-3.487747192E-2,4.657714233E0,3.983216858E-1,4.674845290E0
3.451941000E0,-1.975891113E-2,4.833897858E0,2.944377136E-1,4.842897116E0
3.461944000E0,6.092330933E-2,5.278173981E0,2.130070496E-1,5.282821616E0
3.471948000E0,2.520758057E-1,5.887706451E0,1.730401611E-1,5.895640115E0
3.481951000E0,5.203179932E-1,6.496340790E0,1.866618347E-1,6.519817261E0
3.491954000E0,8.741821289E-1,7.166796570E0,2.034269714E-1,7.222779936E0
3.501957000E0,1.266516266E0,7.980055389E0,2.378553772E-1,8.083435077E0
3.511960000E0,1.675316162E0,8.851692810E0,2.392025757E-1,9.012012412E0
3.521963000E0,2.074236603E0,9.635912018E0,2.649490356E-1,9.860195530E0
3.531966000E0,2.733465729E0,1.043839325E1,2.905458069E-1,1.079427188E1
3.541969000E0,3.876638489E0,1.111947693E1,4.568499756E-1,1.178472762E1
3.551973000E0,4.951403503E0,1.134296219E1,7.126679993E-1,1.239705947E1
3.561976000E0,5.602998505E0,1.128428421E1,8.668473816E-1,1.262854254E1
3.571979000E0,5.614823914E0,1.122395966E1,9.048683167E-1,1.258261915E1
3.581982000E0,5.339097290E0,1.141032211E1,1.013093262E0,1.263834517E1
3.591985000E0,4.920717316E0,1.190938431E1,1.169967041E0,1.293892254E1
3.601988000E0,4.503684540E0,1.252804779E1,1.372346191E0,1.338351560E1
3.611991000E0,4.221970367E0,1.297801208E1,1.546733551E0,1.373485406E1
3.621994000E0,3.994593201E0,1.343141922E1,1.695823517E0,1.411508464E1
3.631998000E0,3.728895721E0,1.413600403E1,1.903591461E0,1.474296217E1
3.642001000E0,3.467688904E0,1.512679367E1,2.172731781E0,1.567053019E1
3.652004000E0,3.170407104E0,1.621308472E1,2.491269379E0,1.670694527E1
3.662007000E0,2.884651337E0,1.707843521E1,2.793640594E0,1.754418965E1
3.672010000E0,2.620301056E0,1.725057724E1,2.913092194E0,1.768995474E1
3.682013000E0,2.220781860E0,1.598944977E1,2.746788025E0,1.637495711E1
3.692016000E0,1.594633942E0,1.364457596E1,2.401456146E0,1.394576287E1
3.702019000E0,8.872050476E-1,1.118713623E1,2.042053528E0,1.140653902E1
3.712022000E0,3.207829285E-1,9.046288147E0,1.771116943E0,9.223615677E0
3.722026000E0,-1.365161133E-1,7.426057434E0,1.627415771E0,7.603515487E0
3.732029000E0,-5.128335571E-1,6.321654053E0,1.724414063E0,6.572664002E0
3.742032000E0,-7.442523193E-1,5.930816803E0,2.067051544E0,6.324650311E0
3.752035000E0,-8.690927124E-1,6.764433289E0,2.672542419E0,7.324982105E0
3.762038000E0,-8.053253174E-1,9.003626862E0,3.343297577E0,9.638022838E0
3.772041000E0,-6.032455444E-1,1.135688324E1,4.337380371E0,1.217191729E1
3.782044000E0,-7.547305298E-1,1.322110657E1,5.602250061E0,1.437889018E1
3.792047000E0,-1.357227631E0,1.399784134E1,6.818171539E0,1.562911041E1
3.802050000E0,-2.162103882E0,1.329295715E1,7.641758881E0,1.548463373E1
3.812054000E0,-2.611469421E0,1.145597717E1,7.378157043E0,1.387430672E1
3.822057000E0,-2.298619995E0,9.861193542E0,5.596861267E0,1.156942730E1
3.832060000E0,-1.692380676E0,8.921747131E0,3.544030151E0,9.747916390E0
3.842063000E0,-1.161135406E0,8.262667694E0,2.244282990E0,8.640411969E0
3.852066000E0,-7.342231750E-1,7.671996002E0,1.453776855E0,7.842963309E0
3.862069000E0,-4.775070190E-1,7.075785828E0,9.966275024E-1,7.161565779E0
3.872072000E0,-3.088078308E-1,6.552324371E0,7.170089722E-1,6.598667957E0
3.882075000E0,-2.188449097E-1,6.120921478E0,5.721102905E-1,6.151494373E0
3.892079000E0,-9.834548950E-2,5.775140533E0,4.665797424E-1,5.794792203E0
3.902082000E0,3.263214111E-2,5.500312042E0,3.507206726E-1,5.511578940E0
3.912085000E0,1.119671631E-1,5.311554565E0,3.297642517E-1,5.322959046E0
3.922088000E0,2.507286072E-1,5.223537598E0,3.272195435E-1,5.239778860E0
3.932091000E0,3.243754578E-1,5.098697205E0,3.761677551E-1,5.122834645E0
3.942094000E0,5.043013000E-1,5.179379425E0,4.150868225E-1,5.220401144E0
3.952097750E0,8.689430237E-1,5.364544373E0,3.926335144E-1,5.448629129E0
3.962100750E0,1.359472961E0,5.708079987E0,3.478765869E-1,5.878040659E0
3.972103750E0,1.809736633E0,6.126759338E0,3.312611389E-1,6.397035299E0
3.982107750E0,2.244582367E0,6.585255890E0,3.174897766E-1,6.964520435E0
3.992110750E0,2.699336700E0,7.078031158E0,3.088078308E-1,7.581576748E0
4.002113750E0,3.371289368E0,7.538473663E0,3.565585327E-1,8.265670642E0
4.012116750E0,4.366569672E0,7.897127838E0,4.159849548E-1,9.033526569E0
4.022119750E0,4.803511047E0,7.817792816E0,4.813989258E-1,9.188217881E0
4.032122750E0,4.591102753E0,7.606881409E0,4.089495850E-1,8.894386377E0
4.042125750E0,4.262536011E0,7.586673431E0,1.926493835E-1,8.704248433E0
4.052128750E0,3.903432770E0,7.687563629E0,-9.250762939E-2,8.622295495E0
4.062131750E0,3.416944427E0,7.989336090E0,-4.291575623E-1,8.699952678E0
4.072135750E0,3.137625275E0,8.547076263E0,-7.417076111E-1,9.134951297E0
4.082138750E0,2.906805267E0,9.235494690E0,-9.857002258E-1,9.732188036E0
4.092141750E0,2.659220123E0,9.805509338E0,-1.138532410E0,1.022329307E1
4.102144750E0,2.312241669E0,1.021954834E1,-1.077309723E0,1.053310144E1
4.112147750E0,1.895508270E0,1.060514648E1,-8.391549683E-1,1.080584400E1
4.122150750E0,1.568737793E0,1.107681564E1,-5.427713013E-1,1.120050819E1
4.132153750E0,1.404080200E0,1.176882660E1,-2.851570129E-1,1.185571741E1
4.142156750E0,1.463955688E0,1.267459305E1,4.161346436E-2,1.275892656E1
4.152160750E0,1.687740326E0,1.359188553E1,5.059478760E-1,1.370561209E1
4.162163750E0,1.938169556E0,1.431518143E1,1.159788208E0,1.449227481E1
4.172166750E0,2.208806763E0,1.457129883E1,1.977986755E0,1.486990277E1
4.182169750E0,2.543211365E0,1.422911041E1,2.861599274E0,1.473513684E1
4.192172750E0,2.952460327E0,1.381372421E1,3.702849884E0,1.460298243E1
4.202175750E0,3.521576843E0,1.347902023E1,4.378993835E0,1.460346113E1
4.212178750E0,4.236490173E0,1.317874466E1,4.728666687E0,1.462830983E1
4.222181750E0,5.092559967E0,1.296409103E1,4.933590546E0,1.477640481E1
4.232184750E0,5.800138550E0,1.271470963E1,5.057233429E0,1.486206776E1
4.242188750E0,5.574707336E0,1.188498505E1,4.940925293E0,1.402650969E1
4.252191750E0,4.531826019E0,1.082638641E1,4.442012787E0,1.254908632E1
4.262194750E0,3.650458832E0,1.039618103E1,3.925736389E0,1.169691566E1
4.272197750E0,3.179837494E0,9.958341522E0,3.578608246E0,1.104927008E1
4.282200750E0,3.063679047E0,9.713001709E0,3.555107117E0,1.078736845E1
4.292203750E0,3.262166290E0,1.013168106E1,3.868405609E0,1.132507183E1
4.302206750E0,3.572770386E0,1.102577179E1,4.096830597E0,1.229293914E1
4.312209750E0,3.739523621E0,1.181867294E1,4.129762115E0,1.306598646E1
4.322212750E0,3.679947510E0,1.228225891E1,4.101920013E0,1.346185891E1
4.332216750E0,3.754492493E0,1.269270538E1,4.112398224E0,1.386047629E1
4.342219750E0,3.719615021E0,1.271096741E1,4.076622620E0,1.385723927E1
4.352222750E0,3.569926300E0,1.244586868E1,4.007316742E0,1.355369354E1
4.362225750E0,3.327879639E0,1.205293579E1,3.812721405E0,1.307229469E1
4.372228750E0,2.907254333E0,1.137529495E1,3.392545166E0,1.222124485E1
4.382231750E0,2.563718719E0,1.066517166E1,2.821033630E0,1.132593356E1
4.392234750E0,2.370171204E0,1.009291168E1,2.232158203E0,1.060505106E1
4.402237750E0,2.038610687E0,9.323361969E0,1.709744568E0,9.695578293E0
4.412241750E0,1.618883514E0,8.426277466E0,1.379830627E0,8.690619559E0
4.422244750E0,1.250499573E0,7.456144867E0,1.219963074E0,7.658077785E0
4.432247750E0,1.067130890E0,6.723418579E0,1.115330658E0,6.898339525E0
4.442250750E0,9.888436890E-1,6.068979492E0,1.069525909E0,6.241330755E0
4.452253750E0,8.816665649E-1,5.430557098E0,1.090632019E0,5.608722183E0
4.462256750E0,8.369096375E-1,4.903952179E0,1.041983185E0,5.082803722E0
4.472259750E0,8.446934509E-1,4.550836487E0,9.518705750E-1,4.725428800E0
4.482262750E0,8.107141113E-1,4.280648346E0,8.339158630E-1,4.435834003E0
4.492265750E0,7.674540710E-1,4.060156860E0,6.863227844E-1,4.188663086E0
4.502269750E0,7.108717346E-1,3.942052460E0,5.852828979E-1,4.048169004E0
4.512272750E0,5.562432861E-1,4.003724213E0,5.640270996E-1,4.081340556E0
4.522275750E0,3.330574036E-1,4.225562897E0,5.289999390E-1,4.271551236E0
4.532278750E0,1.320254517E-1,4.548740845E0,5.062472534E-1,4.578729111E0
4.542281750E0,-3.173400879E-2,4.945715332E0,5.119354248E-1,4.972241454E0
4.552284750E0,-2.484832764E-1,5.272036743E0,5.777984619E-1,5.309422419E0
4.562287750E0,-3.565585327E-1,5.708828430E0,6.093827820E-1,5.752321567E0
4.572290750E0,-3.555107117E-1,6.201603699E0,5.969586182E-1,6.240403504E0
4.582293750E0,-1.613644409E-1,6.762786713E0,6.469546509E-1,6.795577453E0
4.592297750E0,2.752775574E-1,7.434440002E0,7.592211914E-1,7.478174423E0
4.602300750E0,8.318202209E-1,8.178243256E0,8.424481201E-1,8.263492389E0
4.612303750E0,1.358425140E0,8.975036316E0,9.160949707E-1,9.123367017E0
4.622306750E0,1.848655701E0,9.747879181E0,8.982820129E-1,9.962207938E0
4.632309750E0,2.573598175E0,1.049856812E1,8.500822449E-1,1.084278469E1
4.642312750E0,3.528013458E0,1.110031677E1,7.538323975E-1,1.167185395E1
4.652315750E0,4.503534851E0,1.140717865E1,5.322930908E-1,1.227554019E1
4.662318750E0,5.398224335E0,1.148756149E1,3.086581421E-1,1.269646269E1
4.672321750E0,5.839207306E0,1.139415573E1,2.368075562E-1,1.280543653E1
4.682325750E0,5.733676758E0,1.130883316E1,3.270698547E-1,1.268352204E1
4.692328750E0,5.195396118E0,1.152737869E1,5.960604858E-1,1.265811552E1
4.702331750E0,4.568350067E0,1.205652832E1,1.053808594E0,1.293600441E1
4.712334750E0,4.057462463E0,1.259166550E1,1.529070282E0,1.331732321E1
4.722337750E0,3.634142761E0,1.282952087E1,1.965412903E0,1.347836961E1
4.732340750E0,3.139720917E0,1.306019119E1,2.387984161E0,1.364290694E1
4.742343750E0,2.551893311E0,1.360176498E1,2.728226624E0,1.410543834E1
4.752346750E0,1.971699829E0,1.446801361E1,3.052302704E0,1.491735801E1
4.762349750E0,1.542392578E0,1.536075714E1,3.360062714E0,1.579942582E1
4.772353750E0,1.395248566E0,1.594574066E1,3.670966187E0,1.642222143E1
4.782356750E0,1.462458801E0,1.576252167E1,3.847299500E0,1.629102785E1
4.792359750E0,1.444945221E0,1.460198502E1,3.679947510E0,1.512771783E1
4.802362750E0,1.108594666E0,1.276365784E1,3.264561310E0,1.322109315E1
4.812365750E0,5.372328186E-1,1.068403244E1,2.812351685E0,1.106103477E1
4.822368750E0,-2.230361938E-2,8.774453430E0,2.517913971E0,9.128604560E0
4.832371750E0,-5.379812622E-1,7.408543854E0,2.427352295E0,7.814600760E0
4.842374750E0,-1.024918671E0,6.856641541E0,2.656974792E0,7.424520627E0
4.852377750E0,-1.450184326E0,7.156018982E0,3.118016052E0,7.939374431E0
4.862381750E0,-1.710942078E0,8.657097473E0,3.810625763E0,9.612155230E0
4.872384750E0,-1.738185425E0,1.096844101E1,4.550537109E0,1.200147386E1
4.882387750E0,-1.676663361E0,1.316796707E1,5.218897247E0,1.426336024E1
4.892390750E0,-1.638492737E0,1.461321167E1,5.793552246E0,1.580493155E1
4.902393750E0,-1.821861420E0,1.449420914E1,5.964945831E0,1.577915892E1
4.912396750E0,-2.508782959E0,1.248733246E1,5.748346252E0,1.397393819E1
4.922399750E0,-2.961741028E0,1.036369858E1,5.087021484E0,1.191872249E1
4.932402750E0,-2.781515808E0,8.929530945E0,3.785178680E0,1.008964473E1
4.942406750E0,-2.212399292E0,7.949069824E0,2.474653931E0,8.614309826E0
4.952409333E0,-1.700014801E0,7.381300507E0,1.665436707E0,7.755470773E0
4.962412333E0,-1.242715759E0,7.135511627E0,1.193318481E0,7.340563850E0
4.972415333E0,-7.646099854E-1,7.145989838E0,8.729846191E-1,7.239606435E0
4.982418333E0,-4.785548401E-1,7.047943726E0,8.161029053E-1,7.111156688E0
4.992421333E0,-1.935475159E-1,6.809040527E0,7.683522034E-1,6.854987867E0
5.002424333E0,1.637594604E-1,6.218518524E0,6.339317322E-1,6.252892070E0
5.012427333E0,3.962260437E-1,5.530399475E0,6.583309937E-1,5.583521571E0
5.022430333E0,6.255491638E-1,5.004393311E0,7.075785828E-1,5.092733216E0
5.032434333E0,8.810678101E-1,4.693938904E0,7.574249268E-1,4.835600835E0
5.042437333E0,1.263971558E0,4.580624542E0,7.432044983E-1,4.809583997E0
5.052440333E0,1.679058380E0,4.613106995E0,7.574249268E-1,4.967261389E0
5.062443333E0,2.037712555E0,4.652924194E0,7.292834473E-1,5.131649867E0
5.072446333E0,2.732567596E0,4.873565369E0,8.376580811E-1,5.649799654E0
5.082449333E0,4.029021606E0,5.324577484E0,1.062490540E0,6.761140927E0
5.092452333E0,4.820874939E0,5.691314850E0,1.008003845E0,7.526484681E0
5.102455333E0,4.908293152E0,6.298452301E0,8.110134888E-1,8.026181280E0
5.112458333E0,4.945865021E0,6.999444580E0,4.273612976E-1,8.581167922E0
5.122462333E0,4.626429291E0,7.573949890E0,-3.517684937E-2,8.875235340E0
5.132465333E0,4.065246277E0,8.013435974E0,-4.324507141E-1,8.996021177E0
5.142468333E0,3.597768402E0,8.320148163E0,-7.400610352E-1,9.094860816E0
5.152471333E0,3.219654694E0,8.442593536E0,-9.565109253E-1,9.086169441E0
5.162474333E0,2.686014404E0,8.612490234E0,-9.574090576E-1,9.072281605E0
5.172477333E0,2.060614929E0,8.905580750E0,-8.592132568E-1,9.181162769E0
5.182480333E0,1.525627441E0,9.306896210E0,-6.845265198E-1,9.455920511E0
5.192483333E0,1.151106262E0,9.847871246E0,-5.706134033E-1,9.931324855E0
5.202487333E0,1.006656647E0,1.050964508E1,-4.779560852E-1,1.056855900E1
5.212490333E0,9.873468018E-1,1.119641693E1,-3.445834351E-1,1.124514756E1
5.222493333E0,1.024319916E0,1.182391205E1,-1.227447510E-1,1.186883287E1
5.232496333E0,1.151854706E0,1.250379822E1,1.594184875E-1,1.255775272E1
5.242499333E0,1.421144714E0,1.334699478E1,5.851332092E-1,1.343518898E1
5.252502333E0,1.762434998E0,1.424931839E1,1.105002136E0,1.440035699E1
5.262505333E0,2.039957886E0,1.500449799E1,1.753004608E0,1.524366797E1
5.272508333E0,2.175725555E0,1.533411255E1,2.586770782E0,1.570223463E1
5.282511333E0,2.253563690E0,1.529309784E1,3.562591553E0,1.586346272E1
5.292515333E0,2.661914520E0,1.511841110E1,4.588258667E0,1.602199303E1
5.302518333E0,3.421135712E0,1.477607300E1,5.455255737E0,1.611819835E1
5.312521333E0,4.266577606E0,1.435634583E1,6.088289337E0,1.616711530E1
5.322524333E0,4.770878906E0,1.392239822E1,6.449338531E0,1.606824276E1
5.332527333E0,4.717889099E0,1.309491898E1,6.488706665E0,1.535704056E1
5.342530333E0,4.077221375E0,1.182750458E1,6.006708984E0,1.387782950E1
5.352533333E0,3.272195435E0,1.058613602E1,5.257367249E0,1.226431609E1
5.362536333E0,2.802472229E0,9.729916534E0,4.807402954E0,1.120875772E1
5.372540333E0,2.615660706E0,9.293274536E0,4.676125946E0,1.072719844E1
5.382543333E0,2.636916504E0,9.483828278E0,4.726870422E0,1.091969008E1
5.392546333E0,2.752625885E0,1.031100815E1,4.726571045E0,1.167194552E1
5.402549333E0,2.899320831E0,1.142873383E1,4.443958740E0,1.260042807E1
5.412552333E0,3.109633484E0,1.255678802E1,3.950884094E0,1.352598355E1
5.422555333E0,3.307521973E0,1.329101120E1,3.475173340E0,1.413037544E1
5.432558333E0,3.366649017E0,1.347258362E1,3.082689514E0,1.422490104E1
5.442561333E0,3.209475861E0,1.289448578E1,2.730471954E0,1.356554370E1
5.452564333E0,3.200943604E0,1.207568848E1,2.589165802E0,1.275821585E1
5.462568333E0,2.997067566E0,1.097113541E1,2.675386505E0,1.168357475E1
5.472571333E0,2.590063934E0,9.873767395E0,2.759810944E0,1.057432126E1
5.482574333E0,2.170636139E0,9.097930756E0,2.576741638E0,9.701731946E0
5.492577333E0,1.764530640E0,8.295748901E0,2.286495209E0,8.784137895E0
5.502580333E0,1.422491913E0,7.518115997E0,1.914668427E0,7.887427120E0
5.512583333E0,1.181792450E0,6.838229828E0,1.583706665E0,7.118015691E0
5.522586333E0,1.039887543E0,6.233487396E0,1.319356384E0,6.455883556E0
5.532589333E0,9.340576172E-1,5.632786560E0,1.085392914E0,5.811955423E0
5.542593333E0,8.705895996E-1,5.107379150E0,9.366023254E-1,5.265023452E0
5.552596333E0,8.222401428E-1,4.660857697E0,7.897576904E-1,4.798269535E0
5.562599333E0,7.683522034E-1,4.292024689E0,6.917115784E-1,4.414782661E0
5.572602333E0,7.426057434E-1,4.068539429E0,6.234535217E-1,4.182483792E0
5.582605333E0,7.039860535E-1,3.932023315E0,5.740562439E-1,4.035584752E0
5.592608333E0,6.551875305E-1,3.930526428E0,5.180726624E-1,4.018296652E0
5.602611333E0,4.683760071E-1,4.080215149E0,4.462220764E-1,4.131179721E0
5.612614333E0,3.079096985E-1,4.193679199E0,3.900888062E-1,4.223022956E0
5.622618333E0,2.333647156E-1,4.431384888E0,3.188369751E-1,4.448964838E0
5.632621333E0,1.716929626E-1,4.814288635E0,2.710862732E-1,4.824970601E0
5.642624333E0,1.426533508E-1,5.294939117E0,2.326162720E-1,5.301965727E0
5.652627333E0,1.013392639E-1,5.949228516E0,1.767823792E-1,5.952717160E0
5.662630333E0,6.301895142E-2,6.662345581E0,1.574725342E-1,6.664504305E0
5.672633333E0,1.282832336E-1,7.310647430E0,1.911524963E-1,7.314271099E0
5.682636333E0,2.362088013E-1,7.899822235E0,2.402503967E-1,7.907003617E0
5.692639333E0,2.963836670E-1,8.525371399E0,3.595523071E-1,8.538095726E0
5.702643333E0,4.258644104E-1,9.267079010E0,4.414320374E-1,9.287355712E0
5.712646333E0,7.110214233E-1,1.003198837E1,4.816983032E-1,1.006868290E1
5.722649333E0,1.080453186E0,1.068328400E1,5.652246094E-1,1.075264688E1
5.732652333E0,1.691332855E0,1.122785156E1,5.674699402E-1,1.136869736E1
5.742655333E0,2.761307831E0,1.168530029E1,6.920109558E-1,1.202705047E1
5.752658333E0,4.292773132E0,1.199560501E1,8.628057861E-1,1.276976408E1
5.762661333E0,5.668412476E0,1.210368027E1,7.686515808E-1,1.338733735E1
5.772664333E0,6.505471802E0,1.210981750E1,6.213578796E-1,1.376062967E1
5.782667333E0,6.494245148E0,1.214993408E1,6.340814209E-1,1.379123553E1
5.792671333E0,5.732778625E0,1.228315704E1,8.333171082E-1,1.358068905E1
5.802674333E0,4.712051239E0,1.262938705E1,1.187330933E0,1.353198430E1
5.812677333E0,3.828738098E0,1.308189606E1,1.534010010E0,1.371672069E1
5.822680333E0,2.983146515E0,1.346719482E1,1.801503754E0,1.391078414E1
5.832683333E0,2.185455322E0,1.391895538E1,2.105521545E0,1.424593819E1
5.842686333E0,1.555415497E0,1.454660019E1,2.617307281E0,1.486180312E1
5.852689333E0,1.136586456E0,1.499102600E1,3.152145081E0,1.536094749E1
5.862692333E0,9.681866455E-1,1.503189102E1,3.419638824E0,1.544632846E1
5.872696333E0,8.592132568E-1,1.441158096E1,3.328927460E0,1.481599377E1
5.882699333E0,7.505392456E-1,1.335762268E1,3.125500488E0,1.373892813E1
5.892702333E0,7.324269104E-1,1.201491486E1,2.696642303E0,1.233557894E1
5.902705333E0,6.539900208E-1,1.037208115E1,2.174228668E0,1.061767585E1
5.912708333E0,1.740879822E-1,8.928333435E0,1.876497803E0,9.125058277E0
5.922711333E0,-4.852908325E-1,7.900570679E0,1.705702972E0,8.097156715E0
5.932714333E0,-8.972341919E-1,7.613916779E0,1.739981689E0,7.861570720E0
5.942717333E0,-1.259630585E0,7.988887024E0,2.119143219E0,8.360607219E0
5.952720125E0,-1.724414063E0,9.269773407E0,2.952310638E0,9.880204501E0
5.962724125E0,-2.005080414E0,1.140388550E1,4.119134216E0,1.228967935E1
5.972727125E0,-2.201322327E0,1.352213058E1,5.515131226E0,1.476856486E1
5.982730125E0,-2.472258911E0,1.476454697E1,6.972201233E0,1.651410007E1
5.992733125E0,-2.842888184E0,1.410965881E1,7.883206787E0,1.641065003E1
6.002736125E0,-2.753074951E0,1.186732178E1,7.431595917E0,1.427029662E1
6.012739125E0,-2.193538513E0,9.819280701E0,5.823489990E0,1.162509872E1
6.022742125E0,-1.674867096E0,8.630303192E0,4.150718536E0,9.721922513E0
6.032745125E0,-1.222657471E0,7.846832428E0,2.923720093E0,8.462612459E0
6.042748125E0,-7.934999084E-1,7.386838989E0,2.149380341E0,7.734007254E0
6.052752125E0,-3.821553040E-1,7.117698669E0,1.674867096E0,7.322080088E0
6.062755125E0,-3.173400879E-2,6.823111267E0,1.386117554E0,6.962555298E0
6.072758125E0,3.071612549E-1,6.515650635E0,1.175804901E0,6.628013910E0
6.082761125E0,5.544470215E-1,6.239774323E0,1.029559021E0,6.348400340E0
6.092764125E0,7.399113464E-1,5.869594116E0,9.464817810E-1,5.991279634E0
6.102767125E0,1.008003845E0,5.528154144E0,8.964857483E-1,5.690364373E0
6.112770125E0,1.351240082E0,5.233716431E0,8.617579651E-1,5.473597010E0
6.122773125E0,1.685195618E0,5.018613739E0,8.369096375E-1,5.359737482E0
6.132777125E0,2.020648041E0,4.840334473E0,7.891589355E-1,5.304208531E0
6.142780125E0,2.624492340E0,4.822970581E0,8.387059021E-1,5.554496634E0
6.152783125E0,3.506607971E0,4.906347198E0,9.238787842E-1,6.100991256E0
6.162786125E0,4.259991302E0,4.969964905E0,9.641450500E-1,6.616468297E0
6.172789125E0,4.598138123E0,5.214556274E0,8.731343079E-1,7.006913361E0
6.182792125E0,4.588408356E0,5.716013489E0,3.367996216E-1,7.337556503E0
6.192795125E0,4.349205780E0,6.193071442E0,-1.851649475E-1,7.569941272E0
6.202798125E0,4.110302582E0,6.650669861E0,-6.360273743E-1,7.844139706E0
6.212801125E0,3.947890320E0,7.183711395E0,-1.179547119E0,8.281478056E0
6.222805125E0,3.730991364E0,7.739954681E0,-1.761985931E0,8.771076869E0
6.232808125E0,3.347638550E0,8.196654968E0,-2.174977112E0,9.117146591E0
6.242811125E0,2.804418182E0,8.521180115E0,-2.233206024E0,9.244591989E0
6.252814125E0,2.262694702E0,8.757837982E0,-1.889670410E0,9.240690867E0
6.262817125E0,1.941612396E0,8.943751373E0,-1.426533508E0,9.262588471E0
6.272820125E0,1.782343597E0,9.234147491E0,-1.049168243E0,9.462926746E0
6.282823125E0,1.744771729E0,9.699829102E0,-7.255412292E-1,9.882171981E0
6.292826125E0,1.842518463E0,1.032283356E1,-4.101470947E-1,1.049399769E1
6.302829125E0,1.972597961E0,1.102232895E1,-5.613327026E-2,1.119759033E1
6.312833125E0,2.060614929E0,1.177825699E1,3.373983765E-1,1.196191077E1
6.322836125E0,2.087858276E0,1.260274246E1,8.759783936E-1,1.280451514E1
6.332839125E0,2.097138977E0,1.341689941E1,1.526824951E0,1.366537143E1
6.342842125E0,2.135459290E0,1.416444489E1,2.147733765E0,1.448462791E1
6.352845125E0,2.052531738E0,1.467488342E1,2.871927795E0,1.509347738E1
6.362848125E0,1.894460449E0,1.477861771E1,3.792812805E0,1.537471791E1
6.372851125E0,1.793869629E0,1.465437607E1,4.866679688E0,1.554520110E1
6.382854125E0,1.717827759E0,1.447804276E1,5.907165985E0,1.573083800E1
6.392857125E0,2.089504852E0,1.414244064E1,6.695277100E0,1.578611394E1
6.402861125E0,3.207829285E0,1.346465012E1,6.904691620E0,1.546808772E1
6.412864125E0,4.140689392E0,1.252310806E1,6.380032654E0,1.465190639E1
6.422867125E0,4.419409790E0,1.166164948E1,5.570815430E0,1.365866889E1
6.432870125E0,4.376000061E0,1.091290649E1,4.844675446E0,1.271659486E1
6.442873125E0,4.282743988E0,1.023616379E1,4.254752197E0,1.188376461E1
6.452876125E0,4.172872467E0,9.892478485E0,3.850742340E0,1.140623565E1
6.462879125E0,4.050277405E0,9.847871246E0,3.603306885E0,1.124140274E1
6.472882125E0,3.929328918E0,9.942923584E0,3.453767853E0,1.123520661E1
6.482885125E0,4.149371338E0,1.058898010E1,3.361409912E0,1.185929419E1
6.492889125E0,4.511618042E0,1.164263901E1,3.280428314E0,1.290995547E1
6.502892125E0,4.770729218E0,1.270288422E1,3.222049713E0,1.394649522E1
6.512895125E0,4.924609222E0,1.334519852E1,3.104993134E0,1.455977616E1
6.522898125E0,4.893773346E0,1.344504089E1,2.951861572E0,1.460929940E1
6.532901125E0,4.683161316E0,1.301273987E1,2.934946747E0,1.413779725E1
6.542904125E0,4.353097687E0,1.214843719E1,3.088677063E0,1.326928452E1
6.552907125E0,3.883524170E0,1.118249588E1,3.226240997E0,1.226941747E1
6.562910125E0,3.234922943E0,1.026056305E1,3.190166016E0,1.122145444E1
6.572914125E0,2.728675690E0,9.391170959E0,3.019670563E0,1.023514403E1
6.582917125E0,2.377356262E0,8.581504669E0,2.712209930E0,9.308605045E0
6.592920125E0,2.064357147E0,7.868088226E0,2.335892487E0,8.463142234E0
6.602923125E0,1.755848694E0,7.148235168E0,2.011666718E0,7.630666658E0
6.612926125E0,1.530866547E0,6.461613007E0,1.706900482E0,6.856347737E0
6.622929125E0,1.337768097E0,5.827232208E0,1.459165649E0,6.154301186E0
6.632932125E0,1.131946106E0,5.313051453E0,1.288520508E0,5.583019150E0
6.642935125E0,9.288185120E-1,4.826712799E0,1.131047974E0,5.043721819E0
6.652938125E0,7.768844604E-1,4.338877258E0,9.991722107E-1,4.519706897E0
6.662942125E0,6.084846497E-1,3.942501526E0,8.701405334E-1,4.082978863E0
6.672945125E0,4.956193542E-1,3.676953735E0,7.478448486E-1,3.784824862E0
6.682948125E0,4.324507141E-1,3.600462799E0,6.824308777E-1,3.689994294E0
6.692951125E0,3.647914124E-1,3.705095215E0,6.735992432E-1,3.783455995E0
6.702954125E0,1.321751404E-1,3.948938141E0,6.463558960E-1,4.003668150E0
6.712957125E0,-2.285746765E-1,4.195625153E0,4.776567078E-1,4.228909166E0
6.722960125E0,-4.742138672E-1,4.386029205E0,3.641926575E-1,4.426597709E0
6.732963125E0,-6.935078430E-1,4.655468903E0,3.866459656E-1,4.722694033E0
6.742966125E0,-9.216334534E-1,5.311105499E0,4.156855774E-1,5.406481698E0
6.752970125E0,-8.984317017E-1,6.189029846E0,4.263134766E-1,6.268413925E0
6.762973125E0,-6.888674927E-1,7.072941742E0,4.824467468E-1,7.122766188E0
6.772976125E0,-3.818559265E-1,7.883805542E0,5.267546082E-1,7.910605172E0
6.782979125E0,-1.002914429E-1,8.585845642E0,6.834786987E-1,8.613590825E0
6.792982125E0,2.290237427E-2,9.169931030E0,8.653504944E-1,9.210699816E0
6.802985125E0,1.703457642E-1,9.663155365E0,1.033001862E0,9.719705867E0
6.812988125E0,4.370910645E-1,1.016401382E1,1.211879883E0,1.024533447E1
6.822991125E0,7.396119690E-1,1.064975372E1,1.392853546E0,1.076588692E1
6.832994125E0,1.217568054E0,1.111453720E1,1.475332031E0,1.127794368E1
6.842998125E0,1.752555542E0,1.159384048E1,1.559307404E0,1.182877964E1
6.853001125E0,2.416425018E0,1.198198334E1,1.533860321E0,1.231908122E1
6.863004125E0,3.534001007E0,1.236189331E1,1.567540283E0,1.295232612E1
6.873007125E0,4.990172882E0,1.267743713E1,1.431024170E0,1.369916303E1
6.883010125E0,6.557862854E0,1.278940430E1,1.026116180E0,1.440927971E1
6.893013125E0,7.733967133E0,1.251337830E1,7.119195557E-1,1.472771922E1
6.903016125E0,7.838749237E0,1.197734299E1,6.770420837E-1,1.433042639E1
6.913019125E0,7.027286682E0,1.180370407E1,1.055604858E0,1.377768085E1
6.923022125E0,5.777535553E0,1.250080444E1,1.763931885E0,1.388385697E1
6.933026125E0,4.793332214E0,1.380189880E1,2.606679382E0,1.484126752E1
6.943029125E0,3.891607361E0,1.511930923E1,3.369193726E0,1.597152422E1
6.953035458E0,2.935695190E0,1.559322372E1,3.653302917E0,1.628230802E1
6.963038458E0,2.059866486E0,1.496767456E1,3.345542908E0,1.547472097E1
6.973041458E0,1.343156891E0,1.374636429E1,2.920576630E0,1.411723661E1
6.983044458E0,8.831634521E-1,1.229198868E1,2.634072418E0,1.260203558E1
6.993047458E0,6.616241455E-1,1.076321777E1,2.503693542E0,1.107036967E1
7.003050458E0,4.819976807E-1,9.319470062E0,2.380649414E0,9.630801402E0
7.013053458E0,1.035845947E-1,7.985444183E0,2.391277313E0,8.336441433E0
7.023056458E0,-6.899153137E-1,7.517068176E0,2.746488647E0,8.032776419E0
7.033060458E0,-1.393901367E0,8.344846802E0,3.282374268E0,9.074877961E0
7.043063458E0,-1.770667877E0,9.880054321E0,3.927832031E0,1.077861784E1
7.053066458E0,-2.221679993E0,1.181867294E1,4.998555450E0,1.302315049E1
7.063069458E0,-2.624043274E0,1.356808502E1,6.116281128E0,1.511249248E1
7.073072458E0,-2.948119354E0,1.478116241E1,7.050937500E0,1.664000870E1
7.083075458E0,-3.257525940E0,1.478221024E1,7.326065369E0,1.681655281E1
7.093078458E0,-3.291954346E0,1.281185760E1,6.606362000E0,1.478596218E1
7.103081458E0,-3.012635193E0,1.058448944E1,5.083279266E0,1.212217454E1
7.113084458E0,-2.613415375E0,9.046886902E0,3.361110535E0,9.998658238E0
7.123088458E0,-2.096240845E0,7.948620758E0,2.206561432E0,8.511387136E0
7.133091458E0,-1.614243164E0,7.315138092E0,1.524729309E0,7.644725356E0
7.143094458E0,-1.122964783E0,7.063511353E0,1.104852448E0,7.237053369E0
7.153097458E0,-6.072871399E-1,6.934030609E0,8.735833740E-1,7.015178264E0
7.163100458E0,-1.995350647E-1,6.856491852E0,7.515870667E-1,6.900447658E0
7.173103458E0,1.369651794E-1,6.683002625E0,6.740483093E-1,6.718305193E0
7.183106458E0,4.501139832E-1,6.418203278E0,6.081852722E-1,6.462648469E0
7.193109458E0,6.611750793E-1,5.999224548E0,6.280938721E-1,6.068142185E0
7.203112458E0,8.792715454E-1,5.586383057E0,7.388635254E-1,5.703219566E0
7.213115458E0,1.184187469E0,5.331762543E0,8.126600647E-1,5.521812036E0
7.223119458E0,1.542242889E0,5.236410828E0,8.964857483E-1,5.531925359E0
7.233122458E0,1.907483368E0,5.193450165E0,9.201365662E-1,5.608660153E0
7.243125458E0,2.639161835E0,5.389093323E0,1.228046265E0,6.124997931E0
7.253128458E0,4.133803711E0,5.667364655E0,1.572480011E0,7.188883685E0
7.263131458E0,5.162614288E0,5.531596985E0,1.379381561E0,7.691153684E0
7.273134458E0,5.580694885E0,5.602549438E0,8.578660583E-1,7.954159276E0
7.283137458E0,5.700894928E0,5.790408783E0,3.384461975E-1,8.132870507E0
7.293140458E0,5.532046051E0,6.086792450E0,-3.001258850E-1,8.230592408E0
7.303143458E0,5.128485260E0,6.365063782E0,-9.913883972E-1,8.233969211E0
7.313147458E0,4.354893951E0,6.505771179E0,-1.634151764E0,7.997537868E0
7.323150458E0,3.404969330E0,6.656058655E0,-2.122586060E0,7.771891953E0
7.333153458E0,2.518512726E0,6.990014191E0,-2.322121124E0,7.784308014E0
7.343156458E0,2.038760376E0,7.609276428E0,-2.113754425E0,8.156322051E0
7.353159458E0,1.974843292E0,8.395591278E0,-1.639390869E0,8.779154934E0
7.363162458E0,1.996248779E0,9.203610992E0,-1.199605408E0,9.493709371E0
7.373165458E0,2.025438080E0,9.972561951E0,-8.026309204E-1,1.020777192E1
7.383168458E0,2.020348663E0,1.058598633E1,-3.980223083E-1,1.078440249E1
7.393171458E0,1.941612396E0,1.100541412E1,3.742218018E-2,1.117543731E1
7.403175458E0,1.750010834E0,1.136391861E1,5.084925842E-1,1.150911590E1
7.413178458E0,1.472038879E0,1.186133423E1,1.035247192E0,1.199707818E1
7.423181458E0,1.196611633E0,1.274030640E1,1.625170441E0,1.289916530E1
7.433184458E0,9.996212769E-1,1.388332947E1,2.271226959E0,1.410335250E1
7.443187458E0,8.376580811E-1,1.504641083E1,3.056493988E0,1.537655050E1
7.453190458E0,6.542893982E-1,1.582988159E1,4.084705811E0,1.636148121E1
7.463193458E0,5.807922363E-1,1.594873444E1,5.342689819E0,1.682984802E1
7.473196458E0,4.435276794E-1,1.540551407E1,6.469546509E0,1.671471246E1
7.483199458E0,7.872129822E-1,1.491558289E1,7.288194122E0,1.661962968E1
7.493202458E0,1.938768311E0,1.427506485E1,7.000941467E0,1.601716206E1
7.503206458E0,3.086880798E0,1.326885727E1,6.047723694E0,1.490524633E1
7.513209458E0,3.661685486E0,1.211924789E1,5.271138611E0,1.371382559E1
7.523212458E0,3.870201874E0,1.139460480E1,4.532873840E0,1.285933226E1
7.533215458E0,3.699107666E0,1.080019089E1,3.833079071E0,1.204242566E1
7.543218458E0,3.201542358E0,9.923613739E0,3.370540924E0,1.095849119E1
7.553221458E0,2.996618500E0,9.014105072E0,3.235821075E0,1.003515574E1
7.563224458E0,3.227288818E0,8.573271790E0,3.400478668E0,9.771368250E0
7.573227458E0,3.651207275E0,9.078471222E0,3.688928833E0,1.045744473E1
7.583230458E0,4.082909546E0,1.035456757E1,3.901486816E0,1.179444018E1
7.593233458E0,4.471651154E0,1.179337555E1,3.967200165E0,1.322187763E1
7.603237458E0,4.785249023E0,1.305570053E1,3.897295532E0,1.444087383E1
7.613240458E0,4.807103577E0,1.373498795E1,3.714525604E0,1.501851654E1
7.623243458E0,4.506828003E0,1.362406860E1,3.451372833E0,1.475936037E1
7.633246458E0,4.134252777E0,1.284404068E1,3.157533875E0,1.385754117E1
7.643249458E0,3.765270081E0,1.175670181E1,2.979104919E0,1.269930559E1
7.653252458E0,3.261118469E0,1.051862640E1,2.935395813E0,1.139705855E1
7.663255458E0,2.753074951E0,9.520502014E0,2.896776123E0,1.032524538E1
7.673258458E0,2.299218750E0,8.697812805E0,2.867437134E0,9.442486440E0
7.683261458E0,1.922152863E0,7.979007568E0,2.751278687E0,8.656140469E0
7.693265458E0,1.561403046E0,7.382947083E0,2.572101288E0,7.972552422E0
7.703268458E0,1.249900818E0,6.885531464E0,2.337688751E0,7.378182994E0
7.713271458E0,9.618997192E-1,6.463558960E0,2.085612946E0,6.859491735E0
7.723274458E0,7.146139526E-1,6.057303772E0,1.869462433E0,6.379380211E0
7.733277458E0,5.703140259E-1,5.584137726E0,1.614692230E0,5.840811864E0
7.743280458E0,4.406835938E-1,5.104235687E0,1.450034637E0,5.324474099E0
7.753283458E0,3.701802063E-1,4.701423340E0,1.305435333E0,4.893319550E0
7.763286458E0,3.207829285E-1,4.421505432E0,1.209484863E0,4.595156756E0
7.773289458E0,2.565664673E-1,4.260739746E0,1.128503265E0,4.415115984E0
7.783292458E0,2.615061951E-1,4.304299164E0,9.991722107E-1,4.426479627E0
7.793296458E0,1.511856079E-1,4.334087219E0,9.216334534E-1,4.433573878E0
7.803299458E0,-1.224453735E-1,4.512067108E0,9.175918579E-1,4.606052244E0
7.813302458E0,-3.408412170E-1,4.845723267E0,9.059161377E-1,4.941446222E0
7.823305458E0,-4.483177185E-1,5.210514679E0,8.882528687E-1,5.304662586E0
7.833308458E0,-4.390370178E-1,5.738766174E0,8.414002991E-1,5.816712574E0
7.843311458E0,-3.391946411E-1,6.358776855E0,7.949967957E-1,6.417251437E0
7.853314458E0,-1.109193420E-1,7.007078705E0,7.634124756E-1,7.049415131E0
7.863317458E0,1.269360352E-1,7.548053741E0,7.906558228E-1,7.590412681E0
7.873320458E0,3.200344849E-1,8.003855896E0,8.888516235E-1,8.059416138E0
7.883324458E0,5.251080322E-1,8.473130035E0,1.064286804E0,8.555838793E0
7.893327458E0,7.334747314E-1,9.075776825E0,1.248553619E0,9.190571054E0
7.903330458E0,9.921368408E-1,9.776619415E0,1.443598022E0,9.932300738E0
7.913333458E0,1.348395996E0,1.047072601E1,1.614392853E0,1.067991289E1
7.923336458E0,1.965861969E0,1.113399673E1,1.707349548E0,1.143440156E1
7.933339458E0,3.142415314E0,1.176478500E1,1.748513947E0,1.230212344E1
7.943342458E0,4.376449127E0,1.198812057E1,1.663191376E0,1.286990860E1
7.953342458E0,5.180127869E0,1.175086395E1,1.202000427E0,1.289811356E1
7.963345458E0,6.297404480E0,1.164623154E1,9.500743103E-1,1.327383341E1
7.973348458E0,6.856491852E0,1.134805161E1,9.389973450E-1,1.329178211E1
7.983352458E0,6.925049286E0,1.111214218E1,1.443298645E0,1.317266573E1
7.993355458E0,6.570885773E0,1.114627121E1,2.359543304E0,1.315231334E1
8.003358458E0,5.711522827E0,1.142963196E1,3.130140839E0,1.315506600E1
8.013361458E0,4.387675781E0,1.187001617E1,3.454665985E0,1.311806769E1
8.023364458E0,3.148402863E0,1.265648071E1,3.531905365E0,1.351196877E1
8.033367458E0,2.279010773E0,1.393497208E1,3.709735565E0,1.459929707E1
8.043370458E0,1.507365417E0,1.529639099E1,3.814966736E0,1.583684625E1
8.053373458E0,8.497828674E-1,1.613809067E1,3.658242645E0,1.656933434E1
8.063376458E0,5.706134033E-1,1.597552872E1,3.245101776E0,1.631176885E1
8.073379458E0,7.370672607E-1,1.475466751E1,2.919977875E0,1.505887620E1
8.083383458E0,9.425898743E-1,1.303788757E1,2.709066467E0,1.334968274E1
8.093386458E0,1.039139099E0,1.109328140E1,2.485581207E0,1.141572671E1
8.103389458E0,9.348060608E-1,9.138047333E0,2.294428711E0,9.467955140E0
8.113392458E0,6.093827820E-1,7.430697784E0,2.252815247E0,7.788568127E0
8.123395458E0,1.553768921E-1,6.343059540E0,2.426753540E0,6.793208303E0
8.133398458E0,-4.070036316E-1,6.255341949E0,2.899320831E0,6.906592224E0
8.143401458E0,-1.017284546E0,7.508236542E0,3.824097748E0,8.487179001E0
8.153404458E0,-1.451830902E0,9.846224670E0,4.821623383E0,1.105911413E1
8.163407458E0,-1.930086365E0,1.234333191E1,5.810766449E0,1.377853703E1
8.173410458E0,-2.512225800E0,1.442550201E1,6.656657410E0,1.608469691E1
8.183414458E0,-3.179538116E0,1.542961395E1,7.057823181E0,1.726254087E1
8.193417458E0,-3.753893738E0,1.408346329E1,6.933880920E0,1.614045727E1
8.203420458E0,-3.570225677E0,1.140358612E1,6.114335175E0,1.342286789E1
8.213423458E0,-3.152743835E0,9.377998352E0,4.715194702E0,1.095991368E1
8.223426458E0,-2.651885376E0,7.983797607E0,3.175047455E0,8.991910065E0
8.233429458E0,-2.256407776E0,7.202422485E0,2.122136993E0,7.840263460E0
8.243432458E0,-1.929786987E0,6.907984772E0,1.531165924E0,7.334084845E0
8.253435458E0,-1.434167633E0,6.705904999E0,1.195114746E0,6.960912146E0
8.263438458E0,-8.488847351E-1,6.551575928E0,1.030157776E0,6.686178092E0
8.273441458E0,-3.257226562E-1,6.270011444E0,1.005309448E0,6.358442093E0
8.283445458E0,7.110214233E-2,6.017636261E0,9.584568787E-1,6.093901974E0
8.293448458E0,4.144880676E-1,5.779331818E0,9.277706909E-1,5.867983902E0
8.303451458E0,7.813751221E-1,5.464237061E0,8.921447754E-1,5.591453839E0
8.313454458E0,1.208586731E0,5.239554291E0,9.352551270E-1,5.457867093E0
8.323457458E0,1.690883789E0,5.207221527E0,9.349557495E-1,5.554132360E0
8.333460458E0,2.099683685E0,5.178481293E0,1.002016296E0,5.677092278E0
8.343463458E0,2.657274170E0,5.228926392E0,1.189127197E0,5.984713921E0
8.353466458E0,3.642375641E0,5.441184998E0,1.429078217E0,6.701914580E0
8.363469458E0,4.146676941E0,5.366939392E0,1.493594055E0,6.944767188E0
8.373472458E0,3.861519928E0,5.342839508E0,1.301992493E0,6.719557620E0
8.383476458E0,4.468507690E0,5.957760773E0,1.249451752E0,7.551397492E0
8.393479458E0,4.835544434E0,6.608158264E0,1.129700775E0,8.265982667E0
8.403482458E0,4.769082642E0,7.213649139E0,7.635621643E-1,8.681238986E0
8.413485458E0,4.445305939E0,7.753875732E0,1.839674377E-1,8.939640808E0
8.423488458E0,4.090393982E0,8.102351074E0,-4.604425049E-1,9.087982348E0
8.433491458E0,3.841611328E0,8.188422089E0,-1.010847931E0,9.101101441E0
8.443494458E0,3.512894897E0,8.239765320E0,-1.306034088E0,9.052065407E0
8.453497458E0,3.030747528E0,8.418493652E0,-1.260079651E0,9.035721702E0
8.463500458E0,2.471061401E0,8.706943817E0,-1.011895752E0,9.107192108E0
8.473503458E0,2.051783295E0,9.148824921E0,-6.704557800E-1,9.400017185E0
8.483507458E0,1.824256439E0,9.795031128E0,-2.814147949E-1,9.967434005E0
8.493510458E0,1.682950287E0,1.053554123E1,1.182540894E-1,1.066976732E1
8.503513458E0,1.670825500E0,1.129191833E1,5.698649597E-1,1.142907799E1
8.513516458E0,1.655557251E0,1.193842392E1,1.073417816E0,1.210037443E1
8.523519458E0,1.595232697E0,1.259091705E1,1.691033478E0,1.280373203E1
8.533522458E0,1.513951721E0,1.327723984E1,2.404449921E0,1.357786901E1
8.543525458E0,1.492246857E0,1.394080994E1,3.249143372E0,1.439200872E1
8.553528458E0,1.514999542E0,1.446052917E1,4.159999237E0,1.512308571E1
8.563531458E0,1.650617523E0,1.463177307E1,5.104085999E0,1.558412703E1
8.573534458E0,1.872755585E0,1.441442505E1,6.001170502E0,1.572567679E1
8.583538458E0,1.954036560E0,1.402658157E1,6.543642426E0,1.560072132E1
8.593541458E0,2.122735748E0,1.364472565E1,6.474486237E0,1.525134476E1
8.603544458E0,2.524350586E0,1.323442886E1,5.916296997E0,1.471478927E1
8.613547458E0,3.159330139E0,1.298145493E1,5.294190674E0,1.437108186E1
8.623550458E0,3.576811981E0,1.268043091E1,4.796176300E0,1.402106341E1
8.633553458E0,3.475622406E0,1.206925186E1,4.388723602E0,1.330442357E1
8.643556458E0,3.172951813E0,1.121692429E1,3.975582733E0,1.231634165E1
8.653559458E0,2.902015228E0,1.022912842E1,3.757785645E0,1.127730968E1
8.663562458E0,2.779869232E0,9.416767731E0,3.766168213E0,1.051604538E1
8.673565458E0,2.736010437E0,9.039103088E0,4.040547638E0,1.027215474E1
8.683568458E0,2.818189545E0,9.267378387E0,4.405638428E0,1.064124732E1
8.693572458E0,3.211721191E0,1.017000137E1,4.638703766E0,1.163020436E1
8.703575458E0,3.568878479E0,1.134041748E1,4.650978241E0,1.276610985E1
8.713578458E0,3.789819031E0,1.231309479E1,4.517455902E0,1.365219540E1
8.723581458E0,3.859573975E0,1.292098068E1,4.301455078E0,1.415452468E1
8.733584458E0,3.554957428E0,1.300420761E1,3.956123199E0,1.404984159E1
8.743587458E0,3.231180725E0,1.274973679E1,3.602708130E0,1.363729529E1
8.753590458E0,2.919828186E0,1.201760925E1,3.369792480E0,1.281810556E1
8.763593458E0,2.659669189E0,1.087009552E1,3.345393219E0,1.168008872E1
8.773596458E0,2.306104431E0,9.691147156E0,3.385060730E0,1.052117327E1
8.783599458E0,1.956132202E0,8.855285339E0,3.287613373E0,9.646291169E0
8.793603458E0,1.681603088E0,8.277935944E0,3.092119904E0,8.995177482E0
8.803606458E0,1.444196777E0,7.738607483E0,2.769091644E0,8.345035569E0
8.813609458E0,1.292861481E0,7.271129608E0,2.364782410E0,7.754547855E0
8.823612458E0,1.119521942E0,6.779102783E0,2.032024384E0,7.165102024E0
8.833615458E0,9.527687073E-1,6.305038605E0,1.780996399E0,6.620666748E0
8.843618458E0,7.379653931E-1,5.841452637E0,1.633253632E0,6.110211065E0
8.853621458E0,5.272036743E-1,5.433850250E0,1.475930786E0,5.655355333E0
8.863624458E0,4.059558105E-1,5.082680511E0,1.250200195E0,5.249899221E0
8.873627458E0,3.511697388E-1,4.841981049E0,1.052311707E0,4.967440044E0
8.883630458E0,3.397933960E-1,4.743934937E0,8.828640747E-1,4.837336789E0
8.893634458E0,3.254232788E-1,4.798571320E0,7.696994019E-1,4.870792973E0
8.903637458E0,3.769161987E-1,4.975653076E0,6.884184265E-1,5.037172747E0
8.913640458E0,4.778063965E-1,5.259612579E0,6.288423157E-1,5.318577450E0
8.923643458E0,5.469625854E-1,5.442831573E0,6.512956238E-1,5.508880975E0
8.933646458E0,4.405339050E-1,5.539530487E0,6.900650024E-1,5.599701585E0
8.943649458E0,2.484832764E-1,5.636528778E0,6.539900208E-1,5.679780238E0
8.953652750E0,3.098556519E-1,5.832022247E0,5.840853882E-1,5.869382400E0
8.963655750E0,4.376898193E-1,6.171516266E0,5.069956970E-1,6.207755636E0
8.973658750E0,6.771917725E-1,6.646179199E0,4.150868225E-1,6.693473218E0
8.983661750E0,1.018781433E0,7.222780151E0,3.444337463E-1,7.302403942E0
8.993665750E0,1.423390045E0,7.902965698E0,3.484753418E-1,8.037682571E0
9.003668750E0,2.120640106E0,8.700058136E0,3.444337463E-1,8.961403943E0
9.013671750E0,2.971470795E0,9.443562012E0,3.911366272E-1,9.907748988E0
9.023674750E0,3.730991364E0,9.998458099E0,4.114942932E-1,1.067983092E1
9.033677750E0,4.148173828E0,1.036788986E1,4.165837097E-1,1.117470484E1
9.043680750E0,4.331093445E0,1.069780380E1,5.601351929E-1,1.155487464E1
9.053683750E0,4.239334259E0,1.090063202E1,9.641450500E-1,1.173564268E1
9.063686750E0,3.657045135E0,1.096410004E1,1.676663361E0,1.167889844E1
9.073689750E0,3.681743774E0,1.131946106E1,2.651286621E0,1.219486600E1
9.083692750E0,3.858975220E0,1.182765427E1,3.630250854E0,1.296008551E1
9.093695750E0,4.036506042E0,1.242880417E1,4.508025513E0,1.382356134E1
9.103699750E0,3.985462189E0,1.277443542E1,5.110821991E0,1.432447593E1
9.113702750E0,3.596720581E0,1.279778687E1,5.198090515E0,1.427374837E1
9.123705750E0,2.855611725E0,1.268357437E1,4.561913452E0,1.377819406E1
9.133708750E0,1.991608429E0,1.293250671E1,3.871249695E0,1.364561498E1
9.143711750E0,1.430575104E0,1.378842682E1,3.589535522E0,1.431963772E1
9.153714750E0,1.086889801E0,1.471275467E1,3.440595245E0,1.514873510E1
9.163717750E0,9.650431824E-1,1.522828262E1,3.317401428E0,1.561528265E1
9.173720750E0,1.238374786E0,1.450738174E1,3.155737610E0,1.489820046E1
9.183723750E0,1.561702423E0,1.301962555E1,3.035687256E0,1.345975338E1
9.193726750E0,1.484612732E0,1.140822647E1,2.838696899E0,1.184946861E1
9.203730750E0,9.916877747E-1,9.820627899E0,2.624642029E0,1.021356562E1
9.213733750E0,4.538562012E-1,8.681347046E0,2.352058868E0,9.005773310E0
9.223736750E0,2.146536255E-1,7.525301056E0,1.933678894E0,7.772730937E0
9.233739750E0,-2.728825378E-1,6.719826050E0,1.969454498E0,7.007801227E0
9.243742750E0,-8.159532166E-1,6.723119202E0,2.479593658E0,7.212107609E0
9.253745750E0,-1.212628326E0,7.889044647E0,3.258873138E0,8.621354130E0
9.263748750E0,-1.431622925E0,1.008857071E1,4.184997253E0,1.101558011E1
9.273751750E0,-1.513502655E0,1.261845978E1,5.121599579E0,1.370208012E1
9.283754750E0,-1.857936401E0,1.479882568E1,6.144721985E0,1.613117409E1
9.293757750E0,-2.562970276E0,1.557840454E1,6.785988464E0,1.718444483E1
9.303760750E0,-3.292702789E0,1.402762939E1,6.496191101E0,1.580559322E1
9.313764750E0,-3.130440216E0,1.103580093E1,5.469476166E0,1.270841169E1
9.323767750E0,-2.474504242E0,8.985664215E0,4.310586090E0,1.026871390E1
9.333770750E0,-1.820065155E0,7.950267334E0,3.276536407E0,8.789486827E0
9.343773750E0,-1.286873932E0,7.486232300E0,2.582429810E0,8.023008306E0
9.353776750E0,-8.180488586E-1,7.239994354E0,2.104324036E0,7.583857978E0
9.363779750E0,-2.514770508E-1,7.092850342E0,1.820065155E0,7.326964163E0
9.373782750E0,1.978884888E-1,6.900350647E0,1.605411530E0,7.087407501E0
9.383785750E0,5.544470215E-1,6.698121185E0,1.443897400E0,6.874378417E0
9.393788750E0,8.903485107E-1,6.500831451E0,1.263672180E0,6.682095286E0
9.403791750E0,1.231938171E0,6.210585022E0,1.128054199E0,6.431294135E0
9.413794750E0,1.571731567E0,5.865402832E0,1.060993652E0,6.164332732E0
9.423798750E0,1.861828308E0,5.579497375E0,1.008452911E0,5.967761128E0
9.433801750E0,2.150128784E0,5.349276123E0,1.003363495E0,5.851884067E0
9.443804750E0,2.450703735E0,5.168452148E0,1.019529877E0,5.810188257E0
9.453807750E0,2.805016937E0,5.070106659E0,1.015637970E0,5.882654336E0
9.463810750E0,3.228935394E0,5.121300201E0,9.211843872E-1,6.123913798E0
9.473813750E0,3.639381866E0,5.269042969E0,7.098239136E-1,6.442962375E0
9.483816750E0,4.001329193E0,5.590424652E0,4.378395081E-1,6.888772499E0
9.493819750E0,4.253854065E0,5.994883575E0,1.213975525E-1,7.351778074E0
9.503822750E0,4.336631927E0,6.415658569E0,-2.685415649E-1,7.748494430E0
9.513825750E0,4.237687683E0,6.826853485E0,-6.959028625E-1,8.065246816E0
9.523829750E0,3.983366547E0,7.173382874E0,-1.186133423E0,8.290448926E0
9.533832750E0,3.603157196E0,7.447462921E0,-1.581910400E0,8.423175545E0
9.543835750E0,3.177891541E0,7.703280945E0,-1.643432465E0,8.493550625E0
9.553838750E0,2.775677948E0,8.018974457E0,-1.370998993E0,8.595811634E0
9.563841750E0,2.482437744E0,8.537346497E0,-9.147477722E-1,8.937871438E0
9.573844750E0,2.331701202E0,9.228758698E0,-3.998185730E-1,9.527154480E0
9.583847750E0,2.255359955E0,9.990674286E0,6.451583862E-2,1.024228410E1
9.593850750E0,2.261197815E0,1.072444839E1,5.683680725E-1,1.097496475E1
9.603853750E0,2.237397308E0,1.128084137E1,1.113983459E0,1.155440556E1
9.613856750E0,2.074086914E0,1.165446442E1,1.673070831E0,1.195523080E1
9.623859750E0,1.771566010E0,1.209350143E1,2.211351471E0,1.242100231E1
9.633863750E0,1.476828918E0,1.282248550E1,2.655627594E0,1.317761420E1
9.643866750E0,1.193617859E0,1.372540787E1,3.172203369E0,1.413769497E1
9.653869750E0,9.610015869E-1,1.446172668E1,3.896547089E0,1.500826912E1
9.663872750E0,8.491841125E-1,1.475017685E1,4.811893616E0,1.553844107E1
9.673875750E0,8.622070313E-1,1.468700821E1,5.697003021E0,1.577680115E1
9.683878750E0,9.496252441E-1,1.472667572E1,6.306834869E0,1.604845575E1
9.693881750E0,1.627565460E0,1.466979401E1,6.330186310E0,1.605998394E1
9.703884750E0,2.588567047E0,1.438942703E1,5.908213806E0,1.576906085E1
9.713887750E0,3.336262207E0,1.365969452E1,5.541326752E0,1.511370908E1
9.723890750E0,3.623514862E0,1.253283783E1,5.039570160E0,1.398567665E1
9.733893750E0,3.415447540E0,1.133532806E1,4.552033997E0,1.268368865E1
9.743897750E0,3.006797333E0,1.021984772E1,4.138294373E0,1.142854312E1
9.753900750E0,2.736609192E0,9.420060883E0,3.817960510E0,1.052631936E1
9.763903750E0,2.798280945E0,8.896300049E0,3.756588135E0,1.005417750E1
9.773906750E0,3.241808624E0,8.912316742E0,3.992946625E0,1.028991427E1
9.783909750E0,3.779490509E0,9.628128204E0,4.282594299E0,1.119491023E1
9.793912750E0,4.154610443E0,1.080333435E1,4.421954498E0,1.239058121E1
9.803915750E0,4.400399323E0,1.208766357E1,4.368515625E0,1.358525133E1
9.813918750E0,4.487817535E0,1.312066544E1,4.202361145E0,1.448972763E1
9.823921750E0,4.265529785E0,1.366089203E1,3.937711487E0,1.484318992E1
9.833924750E0,3.872596893E0,1.346105759E1,3.654350739E0,1.447588883E1
9.843927750E0,3.623065796E0,1.261801071E1,3.444936218E0,1.357233899E1
9.853930750E0,3.379222870E0,1.136062546E1,3.258274384E0,1.229224593E1
9.863934750E0,2.911894684E0,1.013377670E1,3.042273560E0,1.097396871E1
9.873937750E0,2.346819763E0,9.158854065E0,2.828967133E0,9.868901956E0
9.883940750E0,1.897903290E0,8.471333771E0,2.618504791E0,9.067640272E0
9.893943750E0,1.535955963E0,7.866291962E0,2.436183929E0,8.376914831E0
9.903946750E0,1.158740387E0,7.237299957E0,2.263293457E0,7.670963905E0
9.913949750E0,8.978329468E-1,6.691684570E0,2.131567383E0,7.080136008E0
9.923952750E0,7.161108398E-1,6.157595215E0,2.040406952E0,6.526258813E0
9.933955750E0,5.306465149E-1,5.645659790E0,1.898651733E0,5.979961421E0
9.943958750E0,3.649411011E-1,5.189408569E0,1.742975464E0,5.486447555E0
9.953961750E0,2.582130432E-1,4.795577545E0,1.572779388E0,5.053501061E0
9.963964750E0,1.546284485E-1,4.474794617E0,1.442101135E0,4.703971992E0
9.973968750E0,-8.232879639E-3,4.184548187E0,1.370998993E0,4.403424752E0
9.983971750E0,-7.679031372E-2,4.074377289E0,1.228195953E0,4.256161691E0
9.993974750E0,-1.856140137E-2,4.168082428E0,1.038839722E0,4.295630759E0
1.000397775E1,1.143621826E-1,4.417164459E0,8.963360596E-1,4.508640471E0
1.001398075E1,1.564247131E-1,4.680766296E0,7.912545776E-1,4.749750059E0
1.002398375E1,-2.395019531E-2,5.066364441E0,7.890092468E-1,5.127490405E0
1.003398675E1,-2.571652222E-1,5.482798462E0,8.363108826E-1,5.552173342E0
1.004398975E1,-4.632865906E-1,5.899232483E0,8.553213501E-1,5.978892286E0
1.005399275E1,-5.472619629E-1,6.367309113E0,8.240364075E-1,6.443691255E0
1.006399575E1,-4.703219604E-1,6.904242554E0,7.620652771E-1,6.962076664E0
1.007399975E1,-3.456312561E-1,7.550149384E0,7.625143433E-1,7.596423158E0
1.008400275E1,-2.065704346E-1,8.359216919E0,8.550219727E-1,8.405369797E0
1.009400575E1,-3.667373657E-2,9.262738037E0,9.873468018E-1,9.315283926E0
1.010400875E1,2.772235107E-1,1.010743149E1,1.115929413E0,1.017262614E1
1.011401175E1,7.725434875E-1,1.068717590E1,1.268761597E0,1.078991697E1
1.012401475E1,1.458417206E0,1.096544724E1,1.509910126E0,1.116457981E1
1.013401775E1,2.275567932E0,1.115046249E1,1.698517914E0,1.150634548E1
1.014402075E1,3.247945862E0,1.135463791E1,1.863175507E0,1.195610210E1
1.015402375E1,4.357288971E0,1.158216476E1,2.061513062E0,1.254521199E1
1.016402675E1,5.243146820E0,1.176598251E1,2.345472565E0,1.309313464E1
1.017402975E1,5.675896912E0,1.193992081E1,2.702330475E0,1.349370611E1
1.018403275E1,5.776038666E0,1.205473206E1,3.108735352E0,1.372382684E1
1.019403675E1,5.539231110E0,1.214304840E1,3.540138245E0,1.380830491E1
1.020403975E1,5.015320587E0,1.225336899E1,3.646267548E0,1.373294430E1
1.021404275E1,4.165687408E0,1.247011826E1,3.360362091E0,1.357014496E1
1.022404575E1,3.232078857E0,1.291993286E1,3.160377960E0,1.368791393E1
1.023404875E1,2.536625061E0,1.357916199E1,3.085832977E0,1.415452126E1
1.024405175E1,2.013612671E0,1.431128952E1,2.960992584E0,1.475246152E1
1.025405475E1,1.656904449E0,1.479328720E1,2.856809235E0,1.515744166E1
1.026405775E1,1.538949738E0,1.478235992E1,3.026705933E0,1.516731618E1
1.027406075E1,1.584155731E0,1.407852356E1,3.300037537E0,1.454663613E1
1.028406375E1,1.464255066E0,1.272533752E1,3.259920959E0,1.321761486E1
1.029406675E1,1.068777466E0,1.083641556E1,2.991828461E0,1.129252961E1
1.030407075E1,6.271957397E-1,8.827742615E0,2.774031372E0,9.274570838E0
1.031407375E1,-1.314266968E-1,7.453450470E0,2.769989777E0,7.952612165E0
1.032407675E1,-7.737409973E-1,6.859934692E0,2.876119080E0,7.478598804E0
1.033407975E1,-1.327140198E0,6.899751892E0,3.362457733E0,7.789351660E0
1.034408275E1,-1.784139862E0,8.044571228E0,4.239334259E0,9.266619462E0
1.035408575E1,-2.142195282E0,1.010967682E1,5.304519196E0,1.161604450E1
1.036408875E1,-2.636168060E0,1.262594421E1,6.393804016E0,1.439599177E1
1.037409175E1,-3.212020569E0,1.463611404E1,7.233707428E0,1.663909353E1
1.038409475E1,-3.772006073E0,1.505299713E1,7.430847473E0,1.720576202E1
1.039409775E1,-3.705693970E0,1.326825851E1,6.516399078E0,1.523949831E1
1.040410075E1,-3.197650452E0,1.080752563E1,4.979994049E0,1.232184724E1
1.041410475E1,-2.764151917E0,9.006321259E0,3.555107117E0,1.006941632E1
1.042410775E1,-2.364183655E0,7.819289703E0,2.546354828E0,8.556551801E0
1.043411075E1,-1.923649750E0,7.326514435E0,1.842368774E0,7.795676034E0
1.044411375E1,-1.431323547E0,7.009922791E0,1.485810242E0,7.307211281E0
1.045411675E1,-9.526190186E-1,6.797065430E0,1.272803192E0,6.980516415E0
1.046411975E1,-4.420307922E-1,6.702611847E0,1.112935638E0,6.808746032E0
1.047412275E1,1.137634277E-2,6.432274017E0,1.150208130E0,6.534313828E0
1.048412575E1,4.149371338E-1,6.051615601E0,1.138382721E0,6.171720945E0
1.049412875E1,7.485932922E-1,5.664370880E0,1.102756805E0,5.819068822E0
1.050413175E1,1.096469879E0,5.401667175E0,1.135239258E0,5.627523669E0
1.051413475E1,1.559008026E0,5.324876862E0,1.161584473E0,5.668694568E0
1.052413775E1,1.948348389E0,5.330864410E0,1.222358093E0,5.805888056E0
1.053414175E1,2.314487000E0,5.352868652E0,1.318158875E0,5.978929310E0
1.054414475E1,2.696193237E0,5.466632080E0,1.351539459E0,6.243411182E0
1.055414775E1,3.124901733E0,5.606441345E0,1.434916077E0,6.576943025E0
1.056415075E1,3.674409027E0,5.813011780E0,1.543739777E0,7.048086276E0
1.057415375E1,4.206702118E0,6.114035797E0,1.656156006E0,7.603987714E0
1.058415675E1,4.511917419E0,6.530020752E0,1.574425964E0,8.091809868E0
1.059415975E1,4.552782440E0,6.998396759E0,1.260828094E0,8.443640958E0
1.060416275E1,4.410877533E0,7.367229767E0,8.307723999E-1,8.626824319E0
1.061416575E1,4.082460480E0,7.659871216E0,2.634521484E-1,8.683865363E0
1.062416875E1,3.731739807E0,7.937992859E0,-3.772155762E-1,8.779516172E0
1.063417275E1,3.462898865E0,8.115074615E0,-9.304650879E-1,8.871971024E0
1.064417575E1,3.183430023E0,8.308023376E0,-1.298699341E0,8.991334668E0
1.065417875E1,2.797382812E0,8.504265289E0,-1.405128021E0,9.062133494E0
1.066418175E1,2.296674042E0,8.762478333E0,-1.205592957E0,9.138336422E0
1.067418475E1,1.810335388E0,9.187893677E0,-9.448352051E-1,9.412088928E0
1.068418775E1,1.450932770E0,9.721833344E0,-6.322851562E-1,9.849824058E0
1.069419075E1,1.256636810E0,1.036115387E1,-2.791694641E-1,1.044081324E1
1.070419375E1,1.252146149E0,1.114163086E1,1.106199646E-1,1.121231666E1
1.071419675E1,1.411714325E0,1.206161774E1,5.640270996E-1,1.215704266E1
1.072419975E1,1.657503204E0,1.300450699E1,1.147962799E0,1.315987604E1
1.073420275E1,2.022593994E0,1.381896332E1,1.873354340E0,1.409127709E1
1.074420575E1,2.424358521E0,1.433284470E1,2.888842621E0,1.482070724E1
1.075420975E1,2.762655029E0,1.447953964E1,3.995641022E0,1.527267096E1
1.076421275E1,2.960244141E0,1.455303680E1,5.133424988E0,1.571324211E1
1.077421575E1,2.959196320E0,1.458013046E1,6.189927979E0,1.611372879E1
1.078421875E1,3.026855621E0,1.441667038E1,7.009324036E0,1.631357911E1
1.079422175E1,3.315305786E0,1.373259293E1,7.365283813E0,1.593181617E1
1.080422475E1,3.678450623E0,1.260513748E1,7.090155945E0,1.492282819E1
1.081422775E1,3.520379333E0,1.159294235E1,6.217620392E0,1.361793620E1
1.082423075E1,3.140768738E0,1.089898544E1,5.229824524E0,1.249013116E1
1.083423375E1,2.818788300E0,1.041324554E1,4.517455902E0,1.169566835E1
1.084423675E1,2.575244751E0,9.767937469E0,4.097878418E0,1.090124284E1
1.085423975E1,2.534230042E0,9.396559753E0,4.023333435E0,1.053113807E1
1.086424275E1,2.649789734E0,9.781708832E0,4.259542236E0,1.099303931E1
1.087424675E1,2.812351685E0,1.089718918E1,4.453089752E0,1.210322529E1
1.088424975E1,3.036435699E0,1.206071960E1,4.475992126E0,1.321799549E1
1.089425275E1,3.349883881E0,1.282877243E1,4.426145782E0,1.397819339E1
1.090425575E1,3.605252838E0,1.330702789E1,4.378395081E0,1.446530964E1
1.091425875E1,3.939208374E0,1.355970245E1,4.266876984E0,1.475090277E1
1.092426175E1,4.177063751E0,1.324565552E1,4.064797211E0,1.447127596E1
1.093426475E1,3.999083862E0,1.242536133E1,3.714375916E0,1.357125139E1
1.094426775E1,3.556154938E0,1.132963989E1,3.255130920E0,1.231271113E1
1.095427058E1,3.001408539E0,1.015742752E1,2.770588531E0,1.094796547E1
1.096427358E1,2.519859924E0,9.241931305E0,2.314487000E0,9.854939795E0
1.097427658E1,2.143392792E0,8.599018250E0,1.985171814E0,9.081748436E0
1.098427958E1,1.885928192E0,8.038733368E0,1.817520447E0,8.454663795E0
1.099428358E1,1.743125153E0,7.466323700E0,1.715732117E0,7.856730337E0
1.100428658E1,1.532213745E0,6.882687378E0,1.699715424E0,7.253143941E0
1.101428958E1,1.287772064E0,6.304140472E0,1.679208069E0,6.649833361E0
1.102429258E1,1.116378479E0,5.799988861E0,1.524130554E0,6.099929970E0
1.103429558E1,9.898915100E-1,5.338797913E0,1.372046814E0,5.600460768E0
1.104429858E1,8.780740356E-1,4.908143463E0,1.237027588E0,5.137229168E0
1.105430158E1,7.578739929E-1,4.526437225E0,1.093775482E0,4.717981745E0
1.106430458E1,6.825805664E-1,4.250411224E0,9.445358276E-1,4.407273504E0
1.107430758E1,6.159690857E-1,4.061504059E0,8.428971863E-1,4.193531781E0
1.108431058E1,5.123844910E-1,3.907773743E0,7.450007629E-1,4.011017281E0
1.109431358E1,4.544549561E-1,3.894152069E0,6.337820435E-1,3.971476970E0
1.110431758E1,3.809577942E-1,4.142934723E0,5.333409119E-1,4.194459380E0
1.111432058E1,3.215313721E-1,4.524940338E0,4.489164734E-1,4.558507814E0
1.112432358E1,2.091151428E-1,4.948709106E0,4.237687683E-1,4.971220266E0
1.113432658E1,1.261875916E-1,5.502407684E0,3.797602844E-1,5.516940412E0
1.114432958E1,6.780899048E-2,6.106701050E0,3.643423462E-1,6.117936018E0
1.115433258E1,-1.496887207E-4,6.610553284E0,4.266128540E-1,6.624304738E0
1.116433558E1,-8.786727905E-2,7.188202057E0,5.081932068E-1,7.206679527E0
1.117433858E1,-6.541397095E-2,7.881111145E0,5.620811462E-1,7.901400324E0
1.118434158E1,8.906478882E-2,8.702303467E0,6.060896301E-1,8.723838765E0
1.119434458E1,4.902305603E-1,9.583371277E0,6.288423157E-1,9.616484477E0
1.120434758E1,1.221609650E0,1.041489212E1,6.007008362E-1,1.050348273E1
1.121435058E1,2.372865601E0,1.118144806E1,7.123686218E-1,1.145263031E1
1.122435458E1,3.665727081E0,1.178514267E1,8.312214661E-1,1.237004737E1
1.123435758E1,4.644990692E0,1.201641174E1,8.973838806E-1,1.291415454E1
1.124436058E1,5.099595337E0,1.181478104E1,1.013692017E0,1.290823361E1
1.125436358E1,5.097499695E0,1.154608978E1,1.283730469E0,1.268639651E1
1.126436658E1,4.580474854E0,1.150552414E1,1.890119476E0,1.252718593E1
1.127436958E1,4.220772858E0,1.187645279E1,3.033890991E0,1.296416403E1
1.128437258E1,4.886737976E0,1.251128265E1,4.020189972E0,1.402049675E1
1.129437558E1,4.853507080E0,1.273177414E1,4.493206329E0,1.434724736E1
1.130437858E1,4.184099121E0,1.271351212E1,4.521647186E0,1.412746860E1
1.131438158E1,3.114722900E0,1.280661850E1,4.153113556E0,1.381880343E1
1.132438458E1,2.286345520E0,1.342034225E1,3.787124634E0,1.413065020E1
1.133438758E1,1.803000641E0,1.433179688E1,3.596421204E0,1.488574682E1
1.134439158E1,1.670526123E0,1.511945892E1,3.329077148E0,1.557149480E1
1.135439458E1,1.940265198E0,1.526330978E1,3.121309204E0,1.569954858E1
1.136439758E1,2.358495483E0,1.444196777E1,3.005150757E0,1.493867013E1
1.137440058E1,2.294129333E0,1.299612442E1,2.808759155E0,1.349264271E1
1.138440358E1,1.864822083E0,1.118638779E1,2.435435486E0,1.159931805E1
1.139440658E1,1.340312805E0,9.239236908E0,2.033521271E0,9.554849335E0
1.140440958E1,7.813751221E-1,7.507937164E0,1.785187683E0,7.756710811E0
1.141441258E1,1.176553345E-1,6.668632507E0,1.742227020E0,6.893464824E0
1.142441558E1,-4.661306763E-1,6.927743683E0,1.998045044E0,7.225170887E0
1.143441858E1,-9.258247375E-1,8.183482361E0,2.503543854E0,8.607802671E0
1.144442158E1,-1.125509491E0,1.016266663E1,3.198249207E0,1.071332640E1
1.145442458E1,-1.197210388E0,1.239826767E1,4.089795227E0,1.311017845E1
1.146442858E1,-1.558409271E0,1.421818314E1,5.147795105E0,1.520148564E1
1.147443158E1,-2.317031708E0,1.465811829E1,6.171067200E0,1.607206079E1
1.148443458E1,-3.030897217E0,1.319431229E1,6.586154022E0,1.505502041E1
1.149443758E1,-3.028053131E0,1.065184937E1,5.929170227E0,1.256129214E1
1.150444058E1,-2.573598175E0,8.865314484E0,4.643643494E0,1.033347151E1
1.151444358E1,-2.092798004E0,7.830067291E0,3.531905365E0,8.841047041E0
1.152444658E1,-1.555265808E0,7.236850891E0,2.720442810E0,7.886169643E0
1.153444958E1,-9.752220154E-1,6.941515045E0,2.190245361E0,7.343899771E0
1.154445258E1,-4.188290405E-1,6.822811890E0,1.835632782E0,7.077833536E0
1.155445558E1,1.324745178E-1,6.727011108E0,1.594035187E0,6.914562613E0
1.156445858E1,5.653742981E-1,6.486760712E0,1.429826660E0,6.666492099E0
1.157446158E1,8.708889771E-1,6.094127197E0,1.363813934E0,6.305301131E0
1.158446558E1,1.152902527E0,5.736820221E0,1.272354126E0,5.988253126E0
1.159446858E1,1.500330048E0,5.503605194E0,1.154698792E0,5.820136569E0
1.160447158E1,1.781146088E0,5.342839508E0,1.056652679E0,5.730177160E0
1.161447458E1,1.995051270E0,5.133874054E0,9.921368408E-1,5.596537133E0
1.162447758E1,2.314487000E0,4.974605255E0,8.984317017E-1,5.559741634E0
1.163448058E1,2.744692383E0,4.878654785E0,8.641529846E-1,5.664041770E0
1.164448358E1,3.317102051E0,4.928501129E0,7.828720093E-1,5.992176397E0
1.165448658E1,4.026327209E0,5.237458649E0,6.941065979E-1,6.642594965E0
1.166448958E1,4.534370728E0,5.737568665E0,5.649252319E-1,7.334804196E0
1.167449258E1,4.586163025E0,6.242917786E0,3.109034729E-1,7.752649530E0
1.168449558E1,4.234095154E0,6.626869354E0,-8.592132568E-2,7.864498820E0
1.169449858E1,3.676055603E0,6.925498352E0,-4.743635559E-1,7.854994144E0
1.170450258E1,3.150049438E0,7.159761200E0,-7.948471069E-1,7.862364392E0
1.171450558E1,2.834056549E0,7.406897278E0,-1.050066376E0,7.999790197E0
1.172450858E1,2.660866699E0,7.754773865E0,-1.136586456E0,8.276989674E0
1.173451158E1,2.629581757E0,8.287216644E0,-1.029259644E0,8.755114810E0
1.174451458E1,2.669997711E0,8.847501526E0,-7.756869507E-1,9.274096251E0
1.175451758E1,2.708916779E0,9.408534851E0,-3.993695068E-1,9.798890456E0
1.176452058E1,2.699636078E0,9.929601288E0,4.206253052E-2,1.029013051E1
1.177452358E1,2.656974792E0,1.044542862E1,5.152285767E-1,1.079036397E1
1.178452658E1,2.497556305E0,1.096889008E1,9.771679688E-1,1.129199691E1
1.179452958E1,2.282902679E0,1.158306290E1,1.433269501E0,1.189257130E1
1.180453258E1,2.100282440E0,1.241099121E1,1.865720215E0,1.272496763E1
1.181453558E1,1.979483643E0,1.346210541E1,2.290686493E0,1.379832896E1
1.182453858E1,1.895059204E0,1.443837524E1,2.756667480E0,1.482083482E1
1.183454258E1,1.782343597E0,1.499387009E1,3.277284851E0,1.545100271E1
1.184454558E1,1.569486237E0,1.496288452E1,4.024680634E0,1.557399289E1
1.185454858E1,1.313967590E0,1.472293350E1,4.953199768E0,1.558927419E1
1.186455158E1,1.332079926E0,1.463701218E1,5.673202515E0,1.575442126E1
1.187455458E1,1.807042236E0,1.462488739E1,5.970184937E0,1.589955474E1
1.188455758E1,2.805765381E0,1.431533112E1,5.902675323E0,1.573666420E1
1.189456058E1,3.743265839E0,1.393871429E1,5.566624146E0,1.546890751E1
1.190456358E1,3.966002655E0,1.337932755E1,5.123695221E0,1.486565960E1
1.191456658E1,3.757935333E0,1.247206421E1,4.574187927E0,1.380571109E1
1.192456958E1,3.436104584E0,1.143232635E1,4.033212891E0,1.260046455E1
1.193457258E1,3.072061615E0,1.053269714E1,3.739822998E0,1.159144287E1
1.194457558E1,2.910697174E0,9.566306763E0,3.744313660E0,1.067737177E1
1.195457950E1,3.041375427E0,9.229656830E0,3.984414368E0,1.050295613E1
1.196458250E1,3.301235046E0,9.462572479E0,4.275109863E0,1.089564111E1
1.197458550E1,3.709735565E0,1.004486160E1,4.369413757E0,1.156517009E1
1.198458850E1,4.039499817E0,1.078552139E1,4.270619202E0,1.228345305E1
1.199459150E1,4.140839081E0,1.163635208E1,4.183200989E0,1.304033775E1
1.200459450E1,4.136947174E0,1.232746490E1,4.002676392E0,1.360522478E1
1.201459750E1,4.087250519E0,1.254286697E1,3.771407318E0,1.372051901E1
1.202460050E1,3.899241486E0,1.224034607E1,3.523822174E0,1.332094136E1
1.203460350E1,3.580404510E0,1.160880936E1,3.260519714E0,1.257834409E1
1.204460650E1,3.073857880E0,1.072384964E1,2.860102386E0,1.151649856E1
1.205460950E1,2.533182220E0,9.676926727E0,2.503394165E0,1.031149385E1
1.206461250E1,2.097138977E0,8.767567749E0,2.243384857E0,9.289833784E0
1.207461550E1,1.756297760E0,8.097111969E0,2.049987030E0,8.535235842E0
1.208461950E1,1.403182068E0,7.565866699E0,1.934277649E0,7.934273051E0
1.209462250E1,1.184786224E0,6.990463257E0,1.817670135E0,7.319441213E0
1.210462550E1,1.029858398E0,6.424639893E0,1.708397369E0,6.727200580E0
1.211462850E1,9.178912354E-1,5.885760498E0,1.570384369E0,6.160422715E0
1.212463150E1,8.153544617E-1,5.375321960E0,1.432071991E0,5.622252152E0
1.213463450E1,7.427554321E-1,4.953349457E0,1.302291870E0,5.175260437E0
1.214463750E1,6.712042236E-1,4.629123688E0,1.141077118E0,4.814702298E0
1.215464050E1,5.614823914E-1,4.302353210E0,1.047371979E0,4.463462074E0
1.216464350E1,4.496649170E-1,4.040098572E0,9.984237671E-1,4.185862519E0
1.217464650E1,3.396437073E-1,3.920048218E0,9.409432983E-1,4.045677962E0
1.218464950E1,2.752775574E-1,3.967200165E0,8.849597168E-1,4.074016272E0
1.219465350E1,1.640588379E-1,4.145180054E0,8.475375366E-1,4.234117719E0
1.220465650E1,1.721420288E-2,4.553231506E0,8.119116211E-1,4.625085292E0
1.221465950E1,-6.975494385E-2,5.099146271E0,7.942483521E-1,5.161103456E0
1.222466250E1,-1.686991882E-1,5.622308350E0,7.997868347E-1,5.681414399E0
1.223466550E1,-2.088157654E-1,6.286626892E0,8.258326721E-1,6.344074504E0
1.224466850E1,-1.775308228E-1,7.016209717E0,8.093669128E-1,7.064969270E0
1.225467150E1,-7.514373779E-2,7.712861023E0,8.285270691E-1,7.757598136E0
1.226467450E1,1.643582153E-1,8.447682953E0,8.809181213E-1,8.495079613E0
1.227467750E1,5.358856201E-1,9.193731537E0,9.168434143E-1,9.254862226E0
1.228468050E1,1.024020538E0,9.847122803E0,8.647517395E-1,9.937919356E0
1.229468350E1,1.611548767E0,1.030187714E1,6.734495544E-1,1.044888971E1
1.230468650E1,2.356549530E0,1.054542068E1,4.590953064E-1,1.081526660E1
1.231468950E1,3.314407654E0,1.070558762E1,4.221221924E-1,1.121486030E1
1.232469350E1,4.268074493E0,1.087743027E1,4.135899353E-1,1.169213435E1
1.233469650E1,4.835394745E0,1.103071152E1,5.602848816E-1,1.205701282E1
1.234469950E1,4.905149689E0,1.120569763E1,1.025517426E0,1.227517164E1
1.235470250E1,4.726121979E0,1.148037643E1,1.796713715E0,1.254445902E1
1.236470550E1,4.647236023E0,1.184591629E1,2.641706543E0,1.299619748E1
1.237470850E1,4.665498047E0,1.207104813E1,3.357518005E0,1.336974203E1
1.238471150E1,4.631069641E0,1.205473206E1,3.826792145E0,1.346876791E1
1.239471450E1,4.270020447E0,1.210113556E1,3.982767792E0,1.343625676E1
1.240471750E1,3.617078247E0,1.259510834E1,3.877087555E0,1.366571685E1
1.241472050E1,2.978655853E0,1.358230545E1,3.685635681E0,1.438524669E1
1.242472350E1,2.483635254E0,1.484358261E1,3.502566376E0,1.545213125E1
1.243472650E1,2.237846375E0,1.582748657E1,3.329526215E0,1.632798311E1
1.244472950E1,2.354753265E0,1.592014389E1,3.179987183E0,1.640451654E1
1.245473350E1,2.563868408E0,1.472293350E1,3.009042664E0,1.524442619E1
1.246473650E1,2.230062561E0,1.287592438E1,2.729723511E0,1.334968157E1
1.247473950E1,1.530267792E0,1.094658646E1,2.420017548E0,1.131485570E1
1.248474250E1,8.202941895E-1,9.290729828E0,2.204914856E0,9.583954967E0
1.249474550E1,1.951940918E-1,8.137078857E0,2.010618896E0,8.384076658E0
1.250474850E1,-3.728746033E-1,7.562274170E0,2.082319794E0,7.852584403E0
1.251475150E1,-8.431965637E-1,7.985444183E0,2.439776459E0,8.392306502E0
1.252475450E1,-1.156195679E0,9.413025513E0,2.975362701E0,9.939548328E0
1.253475750E1,-1.336570587E0,1.131317413E1,3.737427979E0,1.198927428E1
1.254476050E1,-1.482217712E0,1.315419571E1,4.693489838E0,1.404488095E1
1.255476350E1,-1.693129120E0,1.422147629E1,5.639073486E0,1.539208315E1
1.256476650E1,-2.173330536E0,1.373154510E1,6.395300903E0,1.530289418E1
1.257476950E1,-2.666554871E0,1.194755493E1,6.421945496E0,1.382374651E1
1.258477350E1,-2.930306396E0,1.013407608E1,5.737418976E0,1.200850407E1
1.259477650E1,-2.830913086E0,8.701255646E0,4.657414856E0,1.026729915E1
1.260477950E1,-2.383343811E0,7.848479004E0,3.426524506E0,8.889320592E0
1.261478250E1,-1.848805389E0,7.444169769E0,2.595602417E0,8.097585864E0
1.262478550E1,-1.249900818E0,7.334897003E0,2.066153412E0,7.722173012E0
1.263478850E1,-6.409671021E-1,7.183112640E0,1.709145813E0,7.411418585E0
1.264479150E1,-2.098635864E-1,6.899901581E0,1.534908142E0,7.071677846E0
1.265479450E1,1.502874756E-1,6.550228729E0,1.377585297E0,6.695209032E0
1.266479750E1,3.987707520E-1,6.118676147E0,1.266965332E0,6.261183360E0
1.267480050E1,6.054908752E-1,5.751639404E0,1.167272644E0,5.900042412E0
1.268480350E1,8.017327881E-1,5.491779785E0,1.059347076E0,5.650189103E0
1.269480650E1,1.026565247E0,5.285658417E0,9.728269958E-1,5.471600631E0
1.270480950E1,1.298849030E0,5.062322845E0,9.708810425E-1,5.315706105E0
1.271481350E1,1.611997833E0,4.862338715E0,1.010249176E0,5.221252550E0
1.272481650E1,2.268532562E0,4.872068481E0,9.719288635E-1,5.461495856E0
1.273481950E1,3.141966248E0,5.093757477E0,1.041384430E0,6.074767375E0
1.274482250E1,4.088298340E0,5.441783752E0,1.235680389E0,6.917665773E0
1.275482550E1,4.912185059E0,5.720354462E0,1.372795258E0,7.663979647E0
1.276482850E1,5.304070129E0,5.993386688E0,1.254391479E0,8.101070418E0
1.277483150E1,5.069956970E0,6.253545685E0,9.467811584E-1,8.106028119E0
1.278483450E1,4.587360535E0,6.539750519E0,4.336482239E-1,8.000016519E0
1.279483750E1,3.997586975E0,6.911577301E0,-1.484912109E-1,7.985778112E0
1.280484050E1,3.630400543E0,7.437433777E0,-7.827223206E-1,8.313115151E0
1.281484350E1,3.452869720E0,7.932903442E0,-1.365759888E0,8.758913540E0
1.282484650E1,3.293600922E0,8.385262756E0,-1.677561493E0,9.163768389E0
1.283485050E1,2.983445892E0,8.756191406E0,-1.685345306E0,9.402777576E0
1.284485350E1,2.448757782E0,9.122479706E0,-1.356179810E0,9.542288737E0
1.285485650E1,1.824406128E0,9.599837036E0,-9.689350891E-1,9.819580645E0
1.286485950E1,1.293160858E0,1.014515305E1,-6.083349609E-1,1.024531438E1
1.287486250E1,9.318122864E-1,1.069466034E1,-3.077600098E-1,1.073958799E1
1.288486550E1,8.054750061E-1,1.133098709E1,1.152603149E-2,1.135958588E1
1.289486850E1,8.867559814E-1,1.217777618E1,4.526586914E-1,1.221840697E1
1.290487150E1,1.132245483E0,1.322245377E1,1.048270111E0,1.331217990E1
1.291487450E1,1.621278534E0,1.435290298E1,1.786983948E0,1.455430108E1
1.292487750E1,2.310894470E0,1.520044052E1,2.826123047E0,1.563267721E1
1.293488050E1,2.853216705E0,1.514700165E1,4.273912354E0,1.599496269E1
1.294488350E1,3.106639709E0,1.466859650E1,5.600902863E0,1.600590661E1
1.295488675E1,3.185076599E0,1.401745056E1,6.552923126E0,1.579792501E1
1.296488975E1,3.272195435E0,1.342483292E1,6.883735199E0,1.543759088E1
1.297489375E1,3.682941284E0,1.313413742E1,6.550677795E0,1.513211822E1
1.298489675E1,4.245172119E0,1.267668869E1,5.975124664E0,1.464315667E1
1.299489975E1,4.384083252E0,1.202853653E1,5.143603821E0,1.379719309E1
1.300490275E1,3.964206390E0,1.125210114E1,4.233795776E0,1.265897859E1
1.301490575E1,3.362906799E0,1.055125854E1,3.559448090E0,1.163219110E1
1.302490875E1,2.816542969E0,1.000684067E1,3.119812317E0,1.085370920E1
1.303491175E1,2.535427551E0,9.641001434E0,3.069516907E0,1.043068720E1
1.304491475E1,2.781815186E0,1.001806732E1,3.356470184E0,1.092547760E1
1.305491775E1,3.250939636E0,1.119417160E1,3.824995880E0,1.226819790E1
1.306492075E1,3.463347931E0,1.227447510E1,4.151766357E0,1.341248231E1
1.307492375E1,3.622916107E0,1.295256500E1,4.360881500E0,1.413901513E1
1.308492675E1,3.942950592E0,1.358485016E1,4.458628235E0,1.483153326E1
1.309492975E1,4.096830597E0,1.378752869E1,4.513713684E0,1.507493215E1
1.310493375E1,4.021237793E0,1.333936066E1,4.417014771E0,1.461570784E1
1.311493675E1,3.670816498E0,1.245185623E1,4.090543671E0,1.361088406E1
1.312493975E1,2.992576904E0,1.135119507E1,3.620670776E0,1.228472234E1
1.313494275E1,2.216590576E0,1.024858795E1,3.160677338E0,1.095156199E1
1.314494575E1,1.716480560E0,9.394164734E0,2.793191528E0,9.949801781E0
1.315494875E1,1.430724792E0,8.705297241E0,2.423759766E0,9.148977259E0
1.316495175E1,1.168619843E0,8.005502472E0,2.121837616E0,8.363966585E0
1.317495475E1,1.080153809E0,7.348368988E0,1.819316711E0,7.646906063E0
1.318495775E1,1.072519684E0,6.634952545E0,1.570534058E0,6.902135248E0
1.319496075E1,9.852511597E-1,5.960305481E0,1.303639069E0,6.180245634E0
1.320496375E1,8.111631775E-1,5.342689819E0,1.160237274E0,5.527067101E0
1.321496675E1,6.008505249E-1,4.967120819E0,1.103205872E0,5.123511860E0
1.322496975E1,3.861968994E-1,4.677922211E0,9.728269958E-1,4.793589117E0
1.323497375E1,1.930984497E-1,4.501439209E0,8.669970703E-1,4.588237775E0
1.324497675E1,9.415420532E-2,4.388723602E0,7.665559387E-1,4.456160666E0
1.325497975E1,1.182540894E-2,4.368066559E0,7.463479614E-1,4.431385853E0
1.326498275E1,-5.763015747E-2,4.439318390E0,7.464976501E-1,4.502013743E0
1.327498575E1,-1.294807434E-1,4.697381744E0,7.044351196E-1,4.751672269E0
1.328498875E1,-1.893562317E-1,5.043162689E0,6.500981140E-1,5.088415593E0
1.329499175E1,-1.737886047E-1,5.322930908E0,6.541397095E-1,5.365789289E0
1.330499475E1,-5.583389282E-2,5.709876251E0,5.810916138E-1,5.739640380E0
1.331499775E1,1.275347900E-1,6.224805450E0,4.984634399E-1,6.246033447E0
1.332500075E1,3.683839417E-1,6.737639008E0,4.320016479E-1,6.761516956E0
1.333500375E1,6.542893982E-1,7.175628204E0,4.126918030E-1,7.217205087E0
1.334500675E1,9.882449341E-1,7.516170044E0,3.924838257E-1,7.591013353E0
1.335500975E1,1.337319031E0,7.870932312E0,4.339476013E-1,7.995518005E0
1.336501375E1,1.621727600E0,8.251590729E0,4.296066284E-1,8.420410431E0
1.337501675E1,1.949246521E0,8.745563507E0,4.311035156E-1,8.970523580E0
1.338501975E1,2.509830780E0,9.415121155E0,4.423301697E-1,9.753943453E0
1.339502275E1,3.193608856E0,1.002435425E1,4.417314148E-1,1.053004949E1
1.340502575E1,3.943249969E0,1.067445236E1,3.962260437E-1,1.138640192E1
1.341502875E1,4.612358551E0,1.124222168E1,3.302133179E-1,1.215608656E1
1.342503175E1,4.835095367E0,1.155147858E1,3.547622681E-1,1.252759597E1
1.343503475E1,4.594096527E0,1.162258072E1,4.709207153E-1,1.250647320E1
1.344503775E1,4.303999786E0,1.169458099E1,9.351054382E-1,1.249648194E1
1.345504075E1,3.864813080E0,1.178963333E1,1.835483093E0,1.254197881E1
1.346504375E1,4.096980286E0,1.221864120E1,3.087629242E0,1.325193928E1
1.347504675E1,4.321064301E0,1.248119522E1,4.024231567E0,1.380747155E1
1.348504975E1,3.740272064E0,1.246966919E1,4.504582672E0,1.377583209E1
1.349505275E1,2.911595306E0,1.261651382E1,4.606670380E0,1.374318814E1
1.350505675E1,2.214794312E0,1.320793396E1,4.590803375E0,1.415734117E1
1.351505975E1,1.711989899E0,1.425889847E1,4.585264893E0,1.507553479E1
1.352506275E1,1.351240082E0,1.537333099E1,4.403842163E0,1.604864422E1
1.353506575E1,1.243464203E0,1.580847610E1,3.980372772E0,1.634923507E1
1.354506875E1,1.469494171E0,1.486738312E1,3.315455475E0,1.530329177E1
1.355507175E1,1.465003510E0,1.296903076E1,2.661615143E0,1.332014224E1
1.356507475E1,1.249302063E0,1.063762894E1,2.089953918E0,1.091273625E1
1.357507775E1,8.849597168E-1,8.510701904E0,1.794318695E0,8.742698679E0
1.358508075E1,3.811074829E-1,6.975494385E0,1.694476318E0,7.188464010E0
1.359508375E1,1.460961914E-1,6.140231323E0,1.641336823E0,6.357497256E0
1.360508675E1,-2.615061951E-1,6.353537750E0,1.964514771E0,6.655459843E0
1.361508975E1,-7.183561707E-1,7.521109772E0,2.654579773E0,8.008115981E0
1.362509275E1,-9.883946228E-1,9.615853729E0,3.488944702E0,1.027688192E1
1.363509675E1,-1.121168518E0,1.233539841E1,4.447850647E0,1.316064011E1
1.364509975E1,-1.328038330E0,1.497051865E1,5.519921265E0,1.601092268E1
1.365510275E1,-1.697919159E0,1.645138916E1,6.476881256E0,1.776178836E1
1.366510575E1,-2.244133301E0,1.527887741E1,6.821614380E0,1.688237696E1
1.367510875E1,-2.526895294E0,1.209050766E1,6.206094360E0,1.382321173E1
1.368511175E1,-2.380649414E0,9.824819183E0,5.084177399E0,1.131562740E1
1.369511475E1,-2.015259247E0,8.493637390E0,3.892804871E0,9.558089543E0
1.370511775E1,-1.650467834E0,7.680677948E0,3.046614532E0,8.426073696E0
1.371512075E1,-1.141226807E0,7.336393890E0,2.383493500E0,7.797827595E0
1.372512375E1,-5.751040649E-1,7.155719604E0,1.988614655E0,7.449137936E0
1.373512675E1,-8.756790161E-2,6.996301117E0,1.689536591E0,7.197946328E0
1.374512975E1,3.097059631E-1,6.680158539E0,1.427880707E0,6.838075694E0
1.375513275E1,6.503974915E-1,6.251899109E0,1.358275452E0,6.430720921E0
1.376513575E1,9.651928711E-1,5.933960266E0,1.257385254E0,6.142027303E0
1.377513975E1,1.276695099E0,5.606591034E0,1.162482605E0,5.866445193E0
1.378514275E1,1.584455109E0,5.297334137E0,1.107247467E0,5.638993164E0
1.379514575E1,1.908531189E0,5.045557709E0,1.050665131E0,5.495820331E0
1.380514875E1,2.263443146E0,4.863985291E0,9.804611206E-1,5.453698909E0
1.381515175E1,2.664608917E0,4.769531708E0,8.610095215E-1,5.530814659E0
1.382515475E1,3.134332123E0,4.810546417E0,7.119195557E-1,5.785518485E0
1.383515775E1,3.690725098E0,4.998106384E0,4.837939453E-1,6.231899851E0
1.384516075E1,4.280947723E0,5.399272156E0,2.405497742E-1,6.894673119E0
1.385516375E1,4.599335632E0,5.938600616E0,-9.834548950E-2,7.512026183E0
1.386516675E1,4.477638702E0,6.523733826E0,-5.140310669E-1,7.929223122E0
1.387516975E1,3.973337402E0,6.965315552E0,-9.193881226E-1,8.071450016E0
1.388517275E1,3.276686096E0,7.260052643E0,-1.166673889E0,8.050227581E0
1.389517575E1,2.673889618E0,7.579488373E0,-1.191073151E0,8.125083688E0
1.390517975E1,2.392923889E0,7.994126129E0,-1.060095520E0,8.411654999E0
1.391518275E1,2.300715637E0,8.424481201E0,-8.214916992E-1,8.771546304E0
1.392518575E1,2.257605286E0,8.830287323E0,-5.664221191E-1,9.131899575E0
1.393518875E1,2.212099915E0,9.218729553E0,-2.347119141E-1,9.483324854E0
1.394519175E1,2.124082947E0,9.680818634E0,2.412982178E-1,9.914040681E0
1.395519446E1,2.011367340E0,1.025143204E1,8.708889771E-1,1.048312477E1
1.396519746E1,1.836381226E0,1.083147583E1,1.498683472E0,1.108779585E1
1.397520046E1,1.463656311E0,1.125344833E1,2.135608978E0,1.154743326E1
1.398520346E1,1.203497314E0,1.171119644E1,2.643203430E0,1.206594597E1
1.399520646E1,1.080153809E0,1.239527390E1,3.060834961E0,1.281320638E1
1.400520946E1,1.053658905E0,1.321407120E1,3.482807465E0,1.370590466E1
1.401521246E1,1.170565796E0,1.399739227E1,3.839515686E0,1.456156226E1
1.402521546E1,1.370699615E0,1.443897400E1,4.143982544E0,1.508427588E1
1.403521846E1,1.496737518E0,1.427581329E1,4.484973450E0,1.503841931E1
1.404522246E1,1.422491913E0,1.376447662E1,4.995711365E0,1.471194861E1
1.405522546E1,1.279539185E0,1.322829163E1,5.132526855E0,1.424667511E1
1.406522846E1,1.475930786E0,1.286140457E1,4.719385986E0,1.377921273E1
1.407523146E1,2.343227234E0,1.304821609E1,4.345613251E0,1.395102189E1
1.408523446E1,3.476670227E0,1.332214645E1,4.051175537E0,1.435196311E1
1.409523746E1,4.220623169E0,1.315973419E1,3.894301758E0,1.435819801E1
1.410524046E1,4.395160217E0,1.225711121E1,3.682641907E0,1.353203827E1
1.411524346E1,4.239783325E0,1.115465378E1,3.393742676E0,1.240643192E1
1.412524646E1,4.033063202E0,1.010324020E1,3.168012085E0,1.133037343E1
1.413524946E1,3.976480865E0,9.175020447E0,3.067271576E0,1.045951984E1
1.414525246E1,3.938908997E0,8.472381592E0,3.115770721E0,9.849075140E0
1.415525546E1,3.936364288E0,8.483308868E0,3.224594421E0,9.892396188E0
1.416525846E1,4.020788727E0,9.301657104E0,3.431464233E0,1.069871551E1
1.417526146E1,4.100722504E0,1.045500870E1,3.592529297E0,1.179107284E1
1.418526546E1,4.150419159E0,1.162572418E1,3.599265289E0,1.285838841E1
1.419526846E1,4.230802002E0,1.260379028E1,3.506009216E0,1.374944783E1
1.420527146E1,4.280947723E0,1.314955536E1,3.382066956E0,1.423642148E1
1.421527446E1,4.146826630E0,1.316332672E1,3.212020569E0,1.416991241E1
1.422527746E1,3.872297516E0,1.261890884E1,3.047662354E0,1.354694778E1
1.423528046E1,3.367098083E0,1.142484192E1,2.973566437E0,1.227625593E1
1.424528346E1,2.741099854E0,1.019919067E1,3.027154999E0,1.098639095E1
1.425528646E1,2.178270264E0,9.318122864E0,3.139122162E0,1.007106563E1
1.426528946E1,1.747466125E0,8.563392334E0,3.178939362E0,9.300052774E0
1.427529246E1,1.409319305E0,7.895181885E0,3.083737335E0,8.592410247E0
1.428529546E1,1.194366302E0,7.388335876E0,2.841840363E0,8.005627679E0
1.429529846E1,9.165440369E-1,6.892716522E0,2.604284363E0,7.425085257E0
1.430530146E1,6.230044556E-1,6.327192535E0,2.390379181E0,6.792305394E0
1.431530446E1,4.628375244E-1,5.743256836E0,2.093546448E0,6.130428565E0
1.432530846E1,3.963757324E-1,5.313201141E0,1.740281067E0,5.604979775E0
1.433531146E1,3.390449524E-1,4.939278717E0,1.465003510E0,5.163105752E0
1.434531446E1,2.656974792E-1,4.621639252E0,1.251697083E0,4.795507284E0
1.435531746E1,2.183958435E-1,4.387675781E0,1.083896027E0,4.524845423E0
1.436532046E1,1.916015625E-1,4.305646362E0,9.139993286E-1,4.405757203E0
1.437532346E1,1.892065430E-1,4.412973175E0,7.738906860E-1,4.484310220E0
1.438532646E1,2.436932373E-1,4.548591156E0,7.155120850E-1,4.610967951E0
1.439532946E1,7.469467163E-2,4.869523773E0,7.243437195E-1,4.923668845E0
1.440533246E1,-1.378633118E-1,5.281317444E0,7.893086243E-1,5.341753302E0
1.441533546E1,-1.901046753E-1,5.733377380E0,7.869136047E-1,5.790249476E0
1.442533846E1,-1.791773987E-1,6.266867981E0,7.960446167E-1,6.319764700E0
1.443534146E1,-1.213975525E-1,6.815776520E0,8.149053955E-1,6.865392759E0
1.444534446E1,6.646179199E-2,7.392078094E0,7.795788574E-1,7.433369284E0
1.445534746E1,3.899391174E-1,7.942034454E0,7.397616577E-1,7.985938336E0
1.446535146E1,7.391629028E-1,8.450676727E0,7.405101013E-1,8.515201357E0
1.447535446E1,1.124611359E0,8.971144409E0,8.041278076E-1,9.077048212E0
1.448535746E1,1.633852386E0,9.455836487E0,7.470964050E-1,9.624991965E0
1.449536046E1,2.346969452E0,9.942923584E0,6.923103333E-1,1.023959416E1
1.450536346E1,3.376977539E0,1.052446426E1,7.601193237E-1,1.107908420E1
1.451536646E1,4.379891968E0,1.092802505E1,8.780740356E-1,1.180576974E1
1.452536946E1,4.976401520E0,1.094224548E1,9.879455566E-1,1.206123313E1
1.453537246E1,5.329517212E0,1.073043594E1,1.226998444E0,1.204373424E1
1.454537546E1,5.604046326E0,1.061742096E1,1.667682037E0,1.212089627E1
1.455537846E1,5.789360962E0,1.088117249E1,2.346819763E0,1.254687921E1
1.456538146E1,5.770350494E0,1.145388153E1,3.081042938E0,1.319019229E1
1.457538446E1,5.314099274E0,1.191971283E1,3.440295868E0,1.349647512E1
1.458538746E1,4.472100220E0,1.219454132E1,3.393892365E0,1.342479139E1
1.459539046E1,3.444187775E0,1.252595215E1,3.109932861E0,1.335790362E1
1.460539346E1,2.532882843E0,1.317754715E1,3.004851379E0,1.375108636E1
1.461539746E1,1.839225311E0,1.429093185E1,3.162323914E0,1.475173805E1
1.462540046E1,1.326541443E0,1.563842972E1,3.450325012E0,1.606937892E1
1.463540346E1,9.791139221E-1,1.634211639E1,3.679049377E0,1.677971503E1
1.464540646E1,1.018332367E0,1.574396027E1,3.882326660E0,1.624751507E1
1.465540946E1,1.239871674E0,1.414318909E1,3.863465881E0,1.471371632E1
1.466541246E1,1.048569489E0,1.235171448E1,3.407064972E0,1.285583293E1
1.467541546E1,7.393125916E-1,1.053359528E1,2.750979309E0,1.091197048E1
1.468541846E1,3.493734741E-1,8.899593201E0,2.286195831E0,9.195189631E0
1.469542146E1,-1.113684082E-1,7.640711060E0,1.992057495E0,7.896908350E0
1.470542446E1,-6.012995911E-1,7.133266296E0,2.106569366E0,7.462083070E0
1.471542746E1,-1.067879333E0,7.868836670E0,2.619103546E0,8.361737869E0
1.472543046E1,-1.419049072E0,9.733359375E0,3.320544891E0,1.038161853E1
1.473543346E1,-1.602118378E0,1.204230789E1,4.080813904E0,1.281549862E1
1.474543646E1,-1.797911224E0,1.397718430E1,5.011428680E0,1.495689082E1
1.475543946E1,-2.226020966E0,1.490570343E1,5.891149292E0,1.618149573E1
1.476544346E1,-2.799029388E0,1.379516281E1,6.283184052E0,1.541491110E1
1.477544646E1,-2.877765656E0,1.118578903E1,5.821693726E0,1.293427730E1
1.478544946E1,-2.592608643E0,9.313781891E0,4.886139221E0,1.083247475E1
1.479545246E1,-2.190245361E0,8.215964813E0,3.882176971E0,9.347221544E0
1.480545546E1,-1.691931610E0,7.660020905E0,3.063229980E0,8.421515941E0
1.481545846E1,-1.127156067E0,7.584128723E0,2.480940857E0,8.058818575E0
1.482546146E1,-5.884263611E-1,7.629035339E0,2.091899872E0,7.932494618E0
1.483546446E1,-7.005432129E-2,7.525301056E0,1.841021576E0,7.747543097E0
1.484546746E1,3.622467041E-1,7.165599060E0,1.647324371E0,7.361433974E0
1.485547046E1,6.709048462E-1,6.640041962E0,1.522334290E0,6.845273717E0
1.486547346E1,9.654922485E-1,6.129154358E0,1.423390045E0,6.365905092E0
1.487547646E1,1.230740662E0,5.676795044E0,1.307081909E0,5.953922041E0
1.488547946E1,1.476529541E0,5.251080322E0,1.229543152E0,5.591579419E0
1.489548246E1,1.674567719E0,4.866979065E0,1.180145874E0,5.280568771E0
1.490548646E1,1.932182007E0,4.491859131E0,1.066981201E0,5.004855107E0
1.491548946E1,2.424657898E0,4.338577881E0,9.156459045E-1,5.053773973E0
1.492549246E1,3.052751770E0,4.434228973E0,7.521858215E-1,5.435757856E0
1.493549546E1,3.780987396E0,4.745431824E0,6.135740662E-1,6.098480304E0
1.494549846E1,4.591402130E0,5.138065338E0,4.643344116E-1,6.906250458E0
1.495550233E1,5.112618256E0,5.604645081E0,7.559280396E-2,7.586608345E0
1.496550533E1,5.071004791E0,6.056106262E0,-4.239184570E-1,7.910197185E0
1.497550833E1,4.643194427E0,6.361920319E0,-9.289682007E-1,7.930716648E0
1.498551133E1,4.036955109E0,6.608757019E0,-1.245410156E0,7.843705906E0
1.499551433E1,3.528312836E0,7.059469757E0,-1.407972107E0,8.016700704E0
1.500551733E1,3.227737885E0,7.715256042E0,-1.361119537E0,8.473258762E0
1.501552033E1,2.999312897E0,8.415948944E0,-1.051563263E0,8.996102477E0
1.502552333E1,2.742596741E0,9.056766357E0,-6.303392029E-1,9.483890618E0
1.503552633E1,2.455344086E0,9.603878632E0,-2.748284912E-1,9.916588630E0
1.504552933E1,2.127076721E0,1.004755600E1,2.694396973E-3,1.027024071E1
1.505553333E1,1.859133911E0,1.041728714E1,3.418890381E-1,1.058740470E1
1.506553633E1,1.719324646E0,1.083611618E1,7.406597900E-1,1.099663894E1
1.507553933E1,1.751657410E0,1.137260056E1,1.221310272E0,1.157134158E1
1.508554233E1,1.894610138E0,1.194007050E1,1.847607880E0,1.222981954E1
1.509554533E1,1.967209167E0,1.254870483E1,2.502945099E0,1.294622103E1
1.510554833E1,2.020198975E0,1.319161789E1,3.137325897E0,1.370922318E1
1.511555133E1,2.123633881E0,1.383722534E1,3.667523346E0,1.447167418E1
1.512555433E1,2.329605560E0,1.434332291E1,4.165537720E0,1.511653659E1
1.513555733E1,2.286644897E0,1.436787186E1,4.791086884E0,1.531727783E1
1.514556033E1,1.819915466E0,1.402448593E1,5.459147644E0,1.515917514E1
1.515556333E1,1.343156891E0,1.355985214E1,5.874982910E0,1.483876965E1
1.516556633E1,1.338217163E0,1.343845459E1,6.015540619E0,1.478410010E1
1.517556933E1,2.158960419E0,1.316661987E1,5.811963959E0,1.455334718E1
1.518557233E1,3.006198578E0,1.269794449E1,5.335205383E0,1.409749767E1
1.519557533E1,3.225492554E0,1.219364319E1,4.794679413E0,1.349361653E1
1.520557933E1,3.102598114E0,1.157797348E1,4.335733795E0,1.274653571E1
1.521558233E1,2.963836670E0,1.095152618E1,4.033362579E0,1.204110739E1
1.522558533E1,2.967129822E0,1.043809387E1,3.902384949E0,1.153196737E1
1.523558833E1,3.098406830E0,1.013991394E1,4.035458221E0,1.134473017E1
1.524559133E1,3.230432281E0,1.011985565E1,4.301455078E0,1.146078911E1
1.525559433E1,3.253933411E0,1.055215668E1,4.443509674E0,1.190297742E1
1.526559733E1,3.387306061E0,1.139385635E1,4.484973450E0,1.270467598E1
1.527560033E1,3.854634247E0,1.233015930E1,4.445006561E0,1.366195875E1
1.528560333E1,4.516408081E0,1.296199539E1,4.294120331E0,1.438230635E1
1.529560633E1,4.909340973E0,1.315883606E1,4.073179779E0,1.462352176E1
1.530560933E1,4.952900391E0,1.286409897E1,3.755091248E0,1.428695121E1
1.531561233E1,4.738246765E0,1.214544342E1,3.350033569E0,1.346051645E1
1.532561533E1,4.191583557E0,1.111348938E1,2.884501648E0,1.222290345E1
1.533561833E1,3.478316803E0,9.988279266E0,2.475851440E0,1.086251586E1
1.534562233E1,2.925516357E0,8.988657990E0,2.202370148E0,9.705928739E0
1.535562533E1,2.541265411E0,8.244555359E0,1.992506561E0,8.854422926E0
1.536562833E1,2.248474274E0,7.638166351E0,1.780547333E0,8.158895181E0
1.537563133E1,2.033521271E0,7.300019531E0,1.568288727E0,7.738541429E0
1.538563433E1,1.617087250E0,6.753506012E0,1.452878723E0,7.094763647E0
1.539563733E1,1.209335175E0,6.093378754E0,1.379531250E0,6.363557391E0
1.540564033E1,1.025218048E0,5.612129517E0,1.329535217E0,5.857877914E0
1.541564333E1,9.217831421E-1,5.179529114E0,1.282832336E0,5.415059077E0
1.542564633E1,8.357121277E-1,4.753215637E0,1.214424591E0,4.976575202E0
1.543564933E1,7.866142273E-1,4.383035431E0,1.123114471E0,4.592509951E0
1.544565233E1,7.554789734E-1,4.217779083E0,1.019380188E0,4.404491440E0
1.545565533E1,7.074288940E-1,3.984264679E0,8.985813904E-1,4.145150080E0
1.546565833E1,4.935237122E-1,3.749702454E0,8.324189758E-1,3.872564460E0
1.547566133E1,1.314266968E-1,3.805985413E0,8.632548523E-1,3.904869636E0
1.548566433E1,-1.329235840E-1,4.095633087E0,8.885522461E-1,4.193018502E0
1.549566833E1,-2.989283752E-1,4.553680573E0,9.268725586E-1,4.656657349E0
1.550567133E1,-4.099974060E-1,5.145998840E0,9.937834167E-1,5.257091155E0
1.551567433E1,-4.538562012E-1,5.813460846E0,1.044527893E0,5.923964127E0
1.552567733E1,-4.379891968E-1,6.540498962E0,1.027762756E0,6.635228519E0
1.553568033E1,-3.350033569E-1,7.292535095E0,1.014889526E0,7.370433916E0
1.554568333E1,-1.478924561E-1,8.057743835E0,1.067579956E0,8.129503974E0
1.555568633E1,1.335223389E-1,8.868607635E0,1.157093811E0,8.944769181E0
1.556568933E1,4.568499756E-1,9.639654236E0,1.248403931E0,9.730886808E0
1.557569233E1,8.845106506E-1,1.029693741E1,1.355730743E0,1.042340083E1
1.558569533E1,1.431922302E0,1.072923843E1,1.483415222E0,1.092554253E1
1.559569833E1,2.116448822E0,1.097637451E1,1.664987640E0,1.130187316E1
1.560570133E1,2.826572113E0,1.099448685E1,1.815275116E0,1.149623741E1
1.561570433E1,3.542383575E0,1.087787933E1,1.839524689E0,1.158708726E1
1.562570733E1,4.281396790E0,1.082788330E1,1.829495544E0,1.178645278E1
1.563571033E1,4.983137512E0,1.095212494E1,1.912872162E0,1.218358650E1
1.564571333E1,5.597609711E0,1.122171432E1,2.081870728E0,1.271197438E1
1.565571733E1,6.068829803E0,1.157078842E1,2.270328827E0,1.326153207E1
1.566572033E1,6.279441833E0,1.182061890E1,2.428250427E0,1.360348562E1
1.567572333E1,5.987997894E0,1.193992081E1,2.445464630E0,1.357932712E1
1.568572633E1,5.093158722E0,1.220951019E1,2.344424744E0,1.343535382E1
1.569572933E1,4.037553864E0,1.281200729E1,2.314187622E0,1.363102478E1
1.570573233E1,3.181933136E0,1.379007339E1,2.518662415E0,1.437478637E1
1.571573533E1,2.456391907E0,1.481633926E1,2.813998260E0,1.527993313E1
1.572573833E1,1.881138153E0,1.538321045E1,3.099005585E0,1.580460946E1
1.573574133E1,1.638043671E0,1.531540146E1,3.438050537E0,1.578179015E1
1.574574433E1,1.453627167E0,1.436921906E1,3.634591827E0,1.489287568E1
1.575574733E1,9.345066833E-1,1.263881744E1,3.454815674E0,1.313578168E1
1.576575033E1,3.101550293E-1,1.066532135E1,2.952610016E0,1.107082569E1
1.577575333E1,-2.374063110E-1,8.872050476E0,2.535876617E0,9.230401488E0
1.578575633E1,-7.249424744E-1,7.564070435E0,2.356399841E0,7.955710109E0
1.579575933E1,-1.387464752E0,7.392377472E0,2.456391907E0,7.912405723E0
1.580576333E1,-1.743125153E0,8.153544617E0,2.721640320E0,8.770752599E0
1.581576633E1,-1.971400452E0,9.526339874E0,3.382815399E0,1.029956364E1
1.582576933E1,-2.129621429E0,1.121168518E1,4.255650330E0,1.217980836E1
1.583577233E1,-2.289938049E0,1.293370422E1,5.198689270E0,1.412624831E1
1.584577533E1,-2.614463196E0,1.388362885E1,5.994883575E0,1.534696051E1
1.585577833E1,-3.148103485E0,1.340148148E1,6.340065765E0,1.515607783E1
1.586578133E1,-3.365002441E0,1.172736282E1,5.791755981E0,1.350550694E1
1.587578433E1,-3.141217804E0,1.018916153E1,4.669689331E0,1.164011428E1
1.588578733E1,-2.699785767E0,9.184151459E0,3.583547974E0,1.022151150E1
1.589579033E1,-2.105072479E0,8.550070038E0,2.751727753E0,9.225347333E0
1.590579333E1,-1.517843628E0,8.216862946E0,2.252366180E0,8.654122680E0
1.591579633E1,-1.050665131E0,7.931107178E0,1.970202942E0,8.239420970E0
1.592579933E1,-6.957531738E-1,7.761958923E0,1.737137604E0,7.984342544E0
1.593580233E1,-4.349954224E-1,7.423512726E0,1.687590637E0,7.625334377E0
1.594580533E1,-1.188528442E-1,7.052883453E0,1.532064056E0,7.218345467E0
1.595580846E1,2.398013306E-1,6.680008850E0,1.386865997E0,6.826669774E0
1.596581146E1,6.442602539E-1,6.294560394E0,1.324296112E0,6.464543451E0
1.597581446E1,1.017583923E0,5.940396881E0,1.249751129E0,6.155133632E0
1.598581746E1,1.314266968E0,5.632337494E0,1.231040039E0,5.913204113E0
1.599582046E1,1.665436707E0,5.451663208E0,1.206640778E0,5.826688006E0
1.600582346E1,2.008373566E0,5.402265930E0,1.215622101E0,5.890312271E0
1.601582646E1,2.275418243E0,5.499264221E0,1.171164551E0,6.065563582E0
1.602582946E1,2.571951599E0,5.772446136E0,1.018781433E0,6.401092488E0
1.603583246E1,2.803220673E0,6.076164551E0,8.192463684E-1,6.741586341E0
1.604583546E1,2.981050873E0,6.290369110E0,6.074368286E-1,6.987444980E0
1.605583846E1,3.103945312E0,6.457870789E0,3.781137085E-1,7.175063874E0
1.606584146E1,3.279230804E0,6.537804565E0,1.660047913E-1,7.315996227E0
1.607584446E1,3.501817932E0,6.608008575E0,-1.202000427E-1,7.479502270E0
1.608584746E1,3.735332336E0,6.720724182E0,-5.182223511E-1,7.706451557E0
1.609585046E1,3.898792419E0,6.899901581E0,-1.014440460E0,7.989888210E0
1.610585346E1,3.775149536E0,7.144642639E0,-1.469194794E0,8.213172700E0
1.611585646E1,3.286415863E0,7.421117706E0,-1.691781921E0,8.290696189E0
1.612586046E1,2.627785492E0,7.816595306E0,-1.571132813E0,8.394812511E0
1.613586346E1,2.101779327E0,8.403674469E0,-1.269360352E0,8.755026935E0
1.614586646E1,1.755549316E0,9.115294647E0,-9.370513916E-1,9.329984738E0
1.615586946E1,1.483265533E0,9.936337280E0,-6.848258972E-1,1.006974983E1
1.616587246E1,1.432221680E0,1.076456497E1,-3.444337463E-1,1.086488622E1
1.617587546E1,1.477427673E0,1.142080032E1,1.082249451E-1,1.151647451E1
1.618587846E1,1.562151489E0,1.205712708E1,6.818321228E-1,1.217700807E1
1.619588146E1,1.604812775E0,1.289194107E1,1.325493622E0,1.305888594E1
1.620588446E1,1.644629974E0,1.387045624E1,2.006726990E0,1.411103530E1
1.621588746E1,1.693129120E0,1.471724533E1,2.690205688E0,1.505659998E1
1.622589046E1,1.666783905E0,1.513457748E1,3.501069489E0,1.562341486E1
1.623589346E1,1.539249115E0,1.505269775E1,4.264781342E0,1.572073018E1
1.624589646E1,1.371747437E0,1.468835541E1,4.869673462E0,1.553522434E1
1.625589946E1,1.417103119E0,1.433299438E1,5.313500519E0,1.535174899E1
1.626590246E1,1.871558075E0,1.384111725E1,5.501509552E0,1.501152436E1
1.627590646E1,2.693349152E0,1.294014084E1,5.374723206E0,1.426846257E1
1.628590946E1,3.316503296E0,1.190639053E1,4.948409729E0,1.331345517E1
1.629591246E1,3.406017151E0,1.101334763E1,4.397704926E0,1.233833811E1
1.630591546E1,3.140918427E0,1.035082535E1,3.817062378E0,1.147061111E1
1.631591846E1,2.893632660E0,1.012225067E1,3.279829559E0,1.102680147E1
1.632592146E1,2.844385071E0,9.921368408E0,3.037932587E0,1.075886202E1
1.633592446E1,2.750230865E0,9.769434357E0,3.199147339E0,1.064143605E1
1.634592746E1,2.731968842E0,1.026759842E1,3.456761627E0,1.117302251E1
1.635593046E1,2.709515533E0,1.127425507E1,3.746109924E0,1.218538638E1
1.636593346E1,2.777174835E0,1.206760529E1,3.983067169E0,1.300786768E1
1.637593646E1,2.826572113E0,1.268267624E1,4.077969818E0,1.361872330E1
1.638593946E1,2.780617676E0,1.301169205E1,4.135300598E0,1.393329378E1
1.639594246E1,2.852617950E0,1.291783722E1,4.146227875E0,1.386359092E1
1.640594546E1,3.108286285E0,1.245574814E1,4.102967834E0,1.347744228E1
1.641594846E1,3.213517456E0,1.180669785E1,3.981719971E0,1.286774659E1
1.642595146E1,2.958597565E0,1.100227066E1,3.661236420E0,1.196695080E1
1.643595446E1,2.404150543E0,1.019110748E1,3.244652710E0,1.096204282E1
1.644595846E1,1.874102783E0,9.547296295E0,2.796035614E0,1.012328716E1
1.645596146E1,1.467398529E0,8.971743164E0,2.403851166E0,9.403400144E0
1.646596446E1,1.244661713E0,8.328081665E0,2.108215942E0,8.680478181E0
1.647596746E1,1.200503540E0,7.699389038E0,1.888921967E0,8.018093695E0
1.648597046E1,1.181942139E0,7.093898163E0,1.664987640E0,7.381907762E0
1.649597346E1,1.202000427E0,6.501130829E0,1.461710358E0,6.770975133E0
1.650597646E1,1.175206146E0,5.929469604E0,1.309177551E0,6.184954740E0
1.651597946E1,1.120869141E0,5.436844025E0,1.158740387E0,5.670828852E0
1.652598246E1,9.955796814E-1,5.097948761E0,1.006357269E0,5.290842601E0
1.653598546E1,8.988807678E-1,4.866679688E0,8.753796387E-1,5.025818075E0
1.654598846E1,7.903564453E-1,4.665947113E0,7.509883118E-1,4.791629078E0
1.655599146E1,7.542814636E-1,4.627626801E0,6.472540283E-1,4.733160478E0
1.656599446E1,6.095324707E-1,4.622687073E0,5.613327026E-1,4.696366682E0
1.657599746E1,4.114942932E-1,4.873864746E0,4.824467468E-1,4.914940486E0
1.658600046E1,2.228865051E-1,5.156027985E0,4.233197021E-1,5.178175600E0
1.659600446E1,1.170565796E-1,5.479505310E0,3.778143311E-1,5.493762313E0
1.660600746E1,9.265731812E-2,5.841901703E0,3.903881836E-1,5.855664251E0
1.661601046E1,1.188528442E-1,6.260281677E0,4.222718811E-1,6.275632735E0
1.662601346E1,1.996847534E-1,6.678062897E0,5.051994324E-1,6.700121232E0
1.663601646E1,2.706372070E-1,7.096592560E0,5.885760498E-1,7.126099370E0
1.664601946E1,3.429368591E-1,7.476053467E0,7.069798279E-1,7.517233640E0
1.665602246E1,4.939727783E-1,7.890541534E0,8.363108826E-1,7.950098786E0
1.666602546E1,7.906558228E-1,8.359366608E0,9.672885132E-1,8.452206444E0
1.667602846E1,1.217268677E0,8.849597168E0,1.102158051E0,9.000659167E0
1.668603146E1,1.703307953E0,9.315727844E0,1.187630310E0,9.544344346E0
1.669603446E1,2.211800537E0,9.725126495E0,1.290316772E0,1.005659308E1
1.670603746E1,2.726280670E0,1.015263748E1,1.458117828E0,1.061295255E1
1.671604046E1,3.193309479E0,1.060349991E1,1.681453400E0,1.120083574E1
1.672604346E1,3.528761902E0,1.104418350E1,1.996697845E0,1.176490340E1
1.673604646E1,3.763024750E0,1.156599838E1,2.369572449E0,1.239143040E1
1.674604946E1,3.946842499E0,1.217313583E1,2.776426392E0,1.309470676E1
1.675605246E1,4.137246552E0,1.276425659E1,3.159330139E0,1.378493461E1
1.676605646E1,4.140689392E0,1.317545151E1,3.454965363E0,1.423638356E1
1.677605946E1,3.734883270E0,1.329445404E1,3.401975555E0,1.422200053E1
1.678606246E1,2.887794800E0,1.324385925E1,3.017874298E0,1.388692666E1
1.679606546E1,2.012714539E0,1.344668747E1,2.787802734E0,1.387934681E1
1.680606846E1,1.298549652E0,1.392419449E1,2.888543243E0,1.427981461E1
1.681607146E1,6.963519287E-1,1.443238770E1,3.179687805E0,1.479490234E1
1.682607446E1,3.448828125E-1,1.463611404E1,3.594325562E0,1.507494460E1
1.683607746E1,3.101550293E-1,1.413765060E1,3.891906738E0,1.466684352E1
1.684608046E1,3.516188049E-1,1.258882141E1,3.729195099E0,1.313426650E1
1.685608346E1,4.028123474E-1,1.064810715E1,3.102149048E0,1.109809769E1
1.686608646E1,4.397854614E-1,8.858129425E0,2.543061676E0,9.226431100E0
1.687608946E1,2.986289978E-1,7.335495758E0,2.174977112E0,7.656970859E0
1.688609246E1,1.661544800E-2,6.248456268E0,1.942809906E0,6.543545839E0
1.689609546E1,-4.067042542E-1,6.336173859E0,2.107467499E0,6.689837575E0
1.690609846E1,-7.756869507E-1,8.298742676E0,2.506088562E0,8.703522283E0
