"Time (s)","Acceleration x (m/s^2)","Acceleration y (m/s^2)","Acceleration z (m/s^2)","Absolute acceleration (m/s^2)"
6.248416670E-3,1.357571915E1,-1.354398514E1,3.144960022E0,1.943271616E1
1.618841666E-2,1.181493073E1,-1.367810623E1,2.398162994E0,1.823278267E1
2.612841665E-2,1.039707916E1,-1.332289490E1,1.177750854E0,1.694065762E1
3.606741666E-2,9.930200043E0,-1.270363266E1,2.372566223E-1,1.612598668E1
4.600741665E-2,9.314230957E0,-1.202733902E1,-4.430786133E-2,1.521228929E1
5.594641666E-2,8.359965363E0,-1.121527771E1,1.645079041E-1,1.398922935E1
6.588641665E-2,7.525301056E0,-1.034768188E1,6.420149231E-1,1.281081026E1
7.582541666E-2,6.409072266E0,-8.978479156E0,9.342073059E-1,1.107077407E1
8.576541665E-2,5.009931793E0,-7.147037659E0,1.350791016E0,8.831998655E0
9.570541666E-2,3.608995056E0,-5.136568451E0,1.583706665E0,6.474357695E0
1.056444166E-1,2.206860809E0,-3.406765594E0,1.657353516E0,4.384416395E0
1.155844167E-1,8.265811157E-1,-2.056423645E0,1.763183441E0,2.832124714E0
1.255234167E-1,-2.002835083E-1,-9.020242310E-1,1.673968964E0,1.912049499E0
1.354634167E-1,-9.427395630E-1,6.421646118E-2,1.434017944E0,1.717349441E0
1.454024167E-1,-1.522633667E0,6.918612671E-1,1.282832336E0,2.107781796E0
1.553424167E-1,-2.118544464E0,1.180894318E0,1.210981750E0,2.710944270E0
1.652824167E-1,-2.511926422E0,1.434916077E0,9.304650879E-1,3.038835925E0
1.752214167E-1,-2.664010162E0,1.496138763E0,9.912387085E-1,3.212154343E0
1.851614167E-1,-3.152594147E0,1.337768097E0,1.800455933E0,3.869123273E0
1.951004167E-1,-3.673510895E0,9.584568787E-1,2.272424469E0,4.424616916E0
2.050404167E-1,-3.497027893E0,5.852828979E-1,1.320254517E0,3.783494700E0
2.149794167E-1,-2.820285187E0,4.843927002E-1,-2.948867798E-2,2.861732763E0
2.249194167E-1,-2.284848633E0,5.146298218E-1,-5.792953491E-1,2.412666622E0
2.348594167E-1,-1.743574219E0,4.885839844E-1,-5.167254639E-1,1.883021660E0
2.447984167E-1,-1.036594391E0,2.761756897E-1,-3.505709839E-1,1.128583607E0
2.547384167E-1,-7.502398682E-1,9.385482788E-2,-4.598437500E-1,8.849434236E-1
2.646774166E-1,-7.340734863E-1,2.005828857E-2,-5.766009521E-1,9.336674335E-1
2.746174167E-1,-7.640112305E-1,1.796264648E-3,-6.056405640E-1,9.749445520E-1
2.845564166E-1,-7.589218140E-1,4.490661621E-4,-6.099815369E-1,9.736734549E-1
2.944964167E-1,-6.872209167E-1,1.975891113E-2,-6.288423157E-1,9.317218796E-1
3.044354166E-1,-5.294490051E-1,4.969665527E-2,-6.474037170E-1,8.378052157E-1
3.143754167E-1,-4.135899353E-1,8.083190918E-2,-7.259902954E-1,8.394357278E-1
3.243154167E-1,-3.906875610E-1,8.756790161E-2,-7.673043823E-1,8.654830575E-1
3.342544167E-1,-3.225791931E-1,-4.745132446E-2,-7.277865601E-1,7.974849472E-1
3.441944167E-1,-2.683918762E-1,-4.185296631E-1,-5.114863586E-1,7.133159000E-1
3.541334167E-1,-5.563929749E-1,-1.454225922E0,2.747835846E0,3.158314109E0
3.640734167E-1,-4.799020386E-1,-2.962489471E0,8.001311188E0,8.545620548E0
3.740124167E-1,-4.355941772E-2,-2.727478180E0,2.037862244E0,3.404984166E0
3.839524167E-1,1.608105927E0,-3.980672150E0,-5.821394348E-1,4.332509868E0
3.938924167E-1,6.505322113E0,-9.229207764E0,3.806135101E0,1.191571048E1
4.038314167E-1,1.008991791E1,-1.504371643E1,1.717737946E1,2.496361777E1
4.137714167E-1,1.052655991E1,-1.670795563E1,6.624324646E0,2.082896833E1
4.237104167E-1,1.267743713E1,-1.921599014E1,-4.224814453E0,2.340557085E1
4.336504167E-1,2.073233688E1,-2.804672653E1,-2.138752441E0,3.494313844E1
4.435904167E-1,2.900503372E1,-3.828483627E1,3.740721130E0,4.817689970E1
4.535294167E-1,3.097239258E1,-4.322576157E1,7.338040466E0,5.368055889E1
4.634694167E-1,2.555770248E1,-4.099465118E1,6.149512024E0,4.869880984E1
4.734084167E-1,1.833791611E1,-3.355706772E1,6.302942963E0,3.875671621E1
4.833484167E-1,1.524609558E1,-2.227098724E1,3.483705597E0,2.721353538E1
4.932874167E-1,1.612042740E1,-1.545101944E1,2.118843842E0,2.242970531E1
5.032274167E-1,1.591565323E1,-1.257954071E1,1.944306793E0,2.037972500E1
5.131664167E-1,1.452190155E1,-1.232731522E1,1.416204987E0,1.910115079E1
5.231064167E-1,1.278416519E1,-1.371118744E1,1.006806335E0,1.877352390E1
5.330464166E-1,1.132649643E1,-1.542227921E1,9.240284729E-1,1.915698426E1
5.429852083E-1,1.022583527E1,-1.587448883E1,1.477277985E0,1.894068248E1
5.529252083E-1,9.030421143E0,-1.476514572E1,2.571801910E0,1.749777698E1
5.628642083E-1,8.251590729E0,-1.243254639E1,4.106560364E0,1.547645945E1
5.728042083E-1,7.884254608E0,-9.561666412E0,5.214256897E0,1.344527465E1
5.827432083E-1,7.319029999E0,-6.969806213E0,5.021607513E0,1.128551908E1
5.926832083E-1,6.202501831E0,-5.068909149E0,3.749702454E0,8.844497579E0
6.026232083E-1,4.521198120E0,-4.058210907E0,2.439926147E0,6.547025875E0
6.125622083E-1,2.966381378E0,-3.393143921E0,1.493144989E0,4.747875957E0
6.225022083E-1,1.578018494E0,-2.750530243E0,6.721023560E-1,3.241493569E0
6.324412083E-1,2.119592285E-1,-2.179018707E0,-1.447489929E-1,2.194083297E0
6.423812083E-1,-9.957293701E-1,-1.555714874E0,-9.240284729E-1,2.065321856E0
6.523212083E-1,-1.940414886E0,-7.595205688E-1,-1.550924835E0,2.597585277E0
6.622602083E-1,-2.651735687E0,-7.155120850E-2,-1.730551300E0,3.167274780E0
6.722002083E-1,-3.040926361E0,4.531077576E-1,-1.327289886E0,3.348766671E0
6.821392083E-1,-3.020568695E0,7.562274170E-1,-5.752537537E-1,3.166485754E0
6.920792083E-1,-2.597099304E0,8.376580811E-1,1.034349060E-1,2.730804760E0
7.020182083E-1,-2.190844116E0,7.644602966E-1,4.179309082E-1,2.357724269E0
7.119582083E-1,-1.900148621E0,6.253994751E-1,-4.236190796E-2,2.000870764E0
7.218982083E-1,-1.670526123E0,4.975653076E-1,-9.765692139E-1,1.997978026E0
7.318372083E-1,-1.464853821E0,4.216731262E-1,-1.252295837E0,1.972777181E0
7.417772083E-1,-1.179696808E0,3.525169373E-1,-7.321275330E-1,1.432467617E0
7.517162083E-1,-8.777746582E-1,2.877017212E-1,-3.754193115E-1,9.970959284E-1
7.616562083E-1,-6.798861694E-1,2.974314880E-1,-2.495310974E-1,7.829281334E-1
7.715952083E-1,-4.760101318E-1,3.183879089E-1,-2.173480225E-1,6.125329942E-1
7.815352083E-1,-2.812651062E-1,2.993774414E-1,-2.195933533E-1,4.657876696E-1
7.914742083E-1,-1.835183716E-1,3.023712158E-1,-1.422042847E-1,3.812209378E-1
8.014142083E-1,-1.396595764E-1,3.502716064E-1,-4.715194702E-2,3.800240804E-1
8.113542083E-1,-1.073268127E-1,4.093986511E-1,5.867797852E-2,4.272814125E-1
8.212932083E-1,-1.089733887E-1,4.827461243E-1,2.246827698E-1,5.435083872E-1
8.312332083E-1,-7.439529419E-2,6.340814209E-1,9.445358276E-1,1.140062208E0
8.411722083E-1,2.344125366E-1,1.257235565E0,6.256988525E0,6.386352317E0
8.511122083E-1,7.667056274E-1,8.310717773E-1,1.146840134E1,1.152400742E1
8.610512083E-1,4.207749939E-1,-1.259480896E0,1.008452911E0,1.667429458E0
8.709912083E-1,1.150357819E0,-3.228486328E0,-2.380050659E0,4.172659610E0
8.809312083E-1,6.527925110E-1,-1.990560608E0,-7.806266785E-1,2.235586636E0
8.908702083E-1,6.158193970E-1,-1.782792664E0,2.100132751E0,2.822789540E0
9.008102083E-1,1.795665894E0,-3.736080780E0,6.873256989E0,8.026479753E0
9.107492083E-1,3.074456635E0,-6.015091553E0,-1.190025330E-1,6.756313461E0
9.206892083E-1,8.495134277E0,-1.572988953E1,3.280278625E0,1.817572444E1
9.306282083E-1,1.442310699E1,-3.203892471E1,6.408623199E0,3.571539113E1
9.405682083E-1,2.066767136E1,-3.905767914E1,1.133592682E0,4.420339321E1
9.505082083E-1,2.706252319E1,-5.389901642E1,6.834786987E-1,6.031543149E1
9.604472083E-1,2.574301712E1,-6.263889175E1,1.394949188E0,6.773684060E1
9.703872083E-1,1.511152542E1,-5.163272919E1,4.339326324E0,5.397338860E1
9.803262083E-1,1.079510147E1,-3.475697250E1,6.843169556E0,3.703255761E1
9.902662083E-1,1.067415298E1,-2.111973129E1,6.648424530E0,2.458011677E1
1.000205208E0,1.165566193E1,-1.547032928E1,4.828059998E0,1.996235724E1
1.010145208E0,1.166614014E1,-1.238778946E1,4.175117798E0,1.752106623E1
1.020085208E0,1.053434372E1,-1.073402847E1,3.168910217E0,1.536989775E1
1.030024208E0,1.014380585E1,-1.021400986E1,1.808688812E0,1.450841651E1
1.039964208E0,9.994865570E0,-1.003977219E1,8.890013123E-1,1.419453017E1
1.049903208E0,9.124874725E0,-9.687554626E0,1.945953369E-2,1.330835948E1
1.059843208E0,7.920628967E0,-9.041498108E0,-4.608915710E-1,1.202902624E1
1.069782208E0,6.440806274E0,-8.295449524E0,-4.643344116E-1,1.051256747E1
1.079722208E0,4.919968872E0,-7.496710510E0,-1.972897339E-1,8.969151878E0
1.089662208E0,3.312761078E0,-6.596781921E0,2.395019531E-2,7.381902959E0
1.099601208E0,1.739532623E0,-5.531596985E0,2.359094238E-1,5.803463811E0
1.109541208E0,4.957690430E-1,-4.387077026E0,1.598675537E-1,4.417894228E0
1.119480208E0,-5.516029358E-1,-3.133134613E0,5.688171387E-3,3.181325299E0
1.129420208E0,-1.539548492E0,-1.731748810E0,1.137634277E-2,2.317173477E0
1.139359208E0,-2.446662140E0,-2.546205139E-1,6.854246521E-1,2.553584576E0
1.149299208E0,-3.318000183E0,1.258133698E0,2.489024048E0,4.334428028E0
1.159239208E0,-3.881578217E0,2.324067078E0,4.449048157E0,6.345231811E0
1.169178208E0,-3.890858917E0,2.509830780E0,4.780608673E0,6.655242516E0
1.179118208E0,-3.741469574E0,1.879790955E0,3.219804382E0,5.281983422E0
1.189057208E0,-3.130739594E0,1.065484314E0,8.336164856E-1,3.410528357E0
1.198997208E0,-2.404449921E0,4.490661621E-1,-8.972341919E-1,2.605392299E0
1.208936208E0,-2.027982788E0,1.112187195E-1,-1.354682922E0,2.441362245E0
1.218876208E0,-1.578916626E0,-1.664538574E-1,-1.102906494E0,1.933154762E0
1.228816208E0,-9.934840393E-1,-3.363505554E-1,-9.211843872E-1,1.395966657E0
1.238755208E0,-7.228468323E-1,-3.538641357E-1,-8.267308044E-1,1.153781259E0
1.248695208E0,-5.349874878E-1,-3.209326172E-1,-7.312294006E-1,9.612001837E-1
1.258634208E0,-4.266128540E-1,-2.761756897E-1,-7.370672607E-1,8.952874877E-1
1.268574208E0,-4.664300537E-1,-2.393522644E-1,-7.048841858E-1,8.784692464E-1
1.278513208E0,-6.529421997E-1,-2.282752991E-1,-4.520599365E-1,8.263179258E-1
1.288453208E0,-9.839039612E-1,-1.812730408E-1,3.302133179E-1,1.053550073E0
1.298393208E0,-1.288221130E0,-2.155517578E-1,1.298100586E0,1.841478040E0
1.308332208E0,-1.665436707E0,-5.066963196E-1,1.730251923E0,2.454423007E0
1.318272208E0,-1.713337097E0,-1.120719452E0,1.581461334E0,2.586997497E0
1.328211208E0,-1.488654327E0,-2.326911163E0,1.557062073E0,3.170969815E0
1.338151208E0,-1.245709534E0,-4.646337891E0,3.038231964E0,5.689560748E0
1.348090208E0,-5.134323120E-1,-5.127287750E0,2.887345734E0,5.906729873E0
1.358030208E0,1.777254181E0,-5.328020325E0,1.808539124E0,5.900614101E0
1.367970208E0,4.878056030E0,-6.896758118E0,3.349135437E0,9.087211417E0
1.377909208E0,8.189020844E0,-9.868378601E0,7.949069824E0,1.508750044E1
1.387849208E0,1.039737854E1,-1.307635757E1,6.264023895E0,1.784193384E1
1.397788208E0,1.151151169E1,-1.496004044E1,3.225193176E0,1.914992382E1
1.407728208E0,1.318592972E1,-1.682845505E1,3.953728180E0,2.174161007E1
1.417667208E0,1.596115860E1,-1.968541397E1,4.370611267E0,2.571723838E1
1.427607208E0,1.888517807E1,-2.300461166E1,4.159400482E0,3.005266579E1
1.437547208E0,1.916659286E1,-2.477977020E1,4.852908325E-1,3.133098786E1
1.447486208E0,1.849778366E1,-2.677556992E1,-9.282197571E-1,3.255703820E1
1.457426208E0,1.745205826E1,-2.984688309E1,8.970845032E-1,3.458634887E1
1.467365208E0,1.617296814E1,-3.018053925E1,9.092092896E-1,3.425283213E1
1.477305208E0,1.615650238E1,-2.974569351E1,1.451980591E-1,3.385055294E1
1.487244208E0,1.490390717E1,-2.749123169E1,1.409019928E0,3.130302870E1
1.497184208E0,1.250978577E1,-2.117691238E1,2.711162109E0,2.474483296E1
1.507124208E0,1.126198059E1,-1.589364899E1,4.282294922E0,1.994438103E1
1.517063208E0,1.047027695E1,-1.283446060E1,5.953270111E0,1.760089496E1
1.527003208E0,1.030457153E1,-1.123114471E1,6.591393127E0,1.660630210E1
1.536942208E0,1.116138977E1,-1.054886353E1,5.991740112E0,1.648502632E1
1.546881417E0,1.220696548E1,-1.004531067E1,4.733007660E0,1.650211000E1
1.556820417E0,1.205817490E1,-8.987610168E0,3.632795563E0,1.547171361E1
1.566760417E0,1.096439941E1,-7.475005646E0,2.669249268E0,1.353582859E1
1.576700417E0,9.529782715E0,-5.825585632E0,2.093396759E0,1.136382491E1
1.586639417E0,7.763306122E0,-4.384682007E0,1.669328613E0,9.070888394E0
1.596579417E0,5.429658966E0,-3.213367767E0,1.355281677E0,6.453194350E0
1.606518417E0,3.060535583E0,-2.565814362E0,1.049617310E0,4.129404060E0
1.616458417E0,9.595046997E-1,-2.281854858E0,4.951702881E-1,2.524421613E0
1.626397417E0,-9.517208862E-1,-1.970502319E0,1.028361511E-1,2.190713881E0
1.636337417E0,-2.627336426E0,-1.561403046E0,-1.902543640E-1,3.062200661E0
1.646277417E0,-3.932322693E0,-1.146615601E0,-5.968089294E-1,4.139332071E0
1.656216417E0,-4.860542450E0,-8.002359009E-1,-7.508386230E-1,4.982871566E0
1.666156417E0,-5.577252045E0,-5.492079163E-1,-9.075627136E-1,5.677238746E0
1.676095417E0,-5.718258820E0,-5.626799011E-1,-9.921368408E-1,5.830902855E0
1.686035417E0,-5.578748932E0,-9.409432983E-1,-6.988966370E-1,5.700550012E0
1.695974417E0,-5.424719238E0,-1.394051056E0,-1.200503540E-1,5.602264654E0
1.705914417E0,-4.647086334E0,-1.806742859E0,2.880010986E-1,4.994264289E0
1.715854417E0,-3.247646484E0,-2.051184540E0,1.736389160E-1,3.845089879E0
1.725793417E0,-1.921554108E0,-2.093546448E0,-1.182540894E-2,2.841733055E0
1.735733417E0,-9.481283569E-1,-1.960772552E0,-4.954696655E-2,2.178538796E0
1.745672417E0,-4.914280701E-1,-1.555116119E0,1.826202393E-1,1.641108724E0
1.755612417E0,-3.993695068E-1,-8.412506104E-1,6.267466736E-1,1.122501664E0
1.765551417E0,-2.871029663E-1,-1.537303162E-1,9.861492920E-1,1.038533365E0
1.775491417E0,-6.047424316E-2,3.842509460E-1,9.966275024E-1,1.069846859E0
1.785431417E0,1.634600830E-1,7.120692444E-1,7.147636414E-1,1.022080658E0
1.795370417E0,3.459306335E-1,9.110055542E-1,3.043171692E-1,1.020885920E0
1.805310417E0,6.360273743E-1,9.684860229E-1,1.655557251E-1,1.170429278E0
1.815249417E0,1.268462219E0,9.110055542E-1,9.868977356E-1,1.847402139E0
1.825189417E0,2.033371582E0,1.472937012E-1,3.240311737E0,3.828304531E0
1.835128417E0,2.141596527E0,-1.324445801E0,4.159250793E0,4.862094150E0
1.845068417E0,1.752106476E0,-2.131118317E0,1.279838562E0,3.041303853E0
1.855007417E0,2.036215668E0,-2.822979584E0,-4.372407532E-1,3.508071757E0
1.864947417E0,3.911665649E0,-4.626578979E0,9.282197571E-1,6.129270195E0
1.874887417E0,6.849755859E0,-7.925419006E0,3.108136597E0,1.092666165E1
1.884826417E0,9.589807892E0,-1.182331329E1,2.999612274E0,1.551621173E1
1.894766417E0,1.241997253E1,-1.664194290E1,3.302432556E0,2.102655564E1
1.904705417E0,1.474838058E1,-2.045795746E1,1.630708923E0,2.527255359E1
1.914645417E0,1.718621109E1,-2.437516159E1,9.351054382E-1,2.983938298E1
1.924584417E0,1.953018677E1,-2.787548264E1,-1.067280579E-1,3.403648217E1
1.934524417E0,2.123199783E1,-3.065894440E1,-3.852987671E-1,3.729500045E1
1.944464417E0,2.097109039E1,-3.338372818E1,2.857407990E0,3.952751851E1
1.954403417E0,2.017429733E1,-3.231734573E1,3.101849670E0,3.822348204E1
1.964343417E0,2.113559830E1,-2.751039185E1,1.666783905E0,3.473202187E1
1.974282417E0,2.168660248E1,-2.074835358E1,1.129700775E0,3.003463213E1
1.984222417E0,1.965128494E1,-1.607731705E1,1.772164764E0,2.545179151E1
1.994161417E0,1.741912674E1,-1.334534821E1,3.948788452E0,2.229612579E1
2.004101417E0,1.615156265E1,-1.253687943E1,5.649252319E0,2.121226941E1
2.014041417E0,1.544637909E1,-1.244272522E1,5.393284607E0,2.055479401E1
2.023980417E0,1.430380508E1,-1.204245758E1,4.512516174E0,1.923492726E1
2.033920417E0,1.285646484E1,-1.141870468E1,3.455564117E0,1.753899736E1
2.043859417E0,1.129730713E1,-1.036564453E1,2.341131592E0,1.550988820E1
2.053799417E0,9.639354858E0,-9.009614410E0,1.468596039E0,1.327580838E1
2.063739417E0,7.794441376E0,-7.646399231E0,6.912625122E-1,1.094068469E1
2.073678417E0,6.248605957E0,-6.418652344E0,7.349716187E-2,8.958212776E0
2.083618417E0,4.594695282E0,-5.331014099E0,-3.100053406E-1,7.044646149E0
2.093557417E0,2.620450745E0,-4.344415741E0,-5.725593567E-1,5.105735447E0
2.103497417E0,1.013242950E0,-3.364852753E0,-8.931925964E-1,3.625836226E0
2.113436417E0,-1.459465027E-1,-2.560575256E0,-1.204395447E0,2.833445679E0
2.123376417E0,-1.093326416E0,-1.681004333E0,-1.384470978E0,2.436780275E0
2.133315417E0,-1.915566559E0,-7.429051208E-1,-1.294508057E0,2.428385136E0
2.143255417E0,-2.657124481E0,3.308120728E-2,-7.887098694E-1,2.771906949E0
2.153195417E0,-2.982398071E0,5.292993164E-1,-1.384620667E-1,3.032165524E0
2.163134417E0,-2.736609192E0,7.743397522E-1,1.877096558E-1,2.850239786E0
2.173074417E0,-2.707419891E0,7.080276489E-1,6.002517700E-2,2.799112117E0
2.183013417E0,-2.910547485E0,4.174818420E-1,2.215393066E-2,2.940419791E0
2.192953417E0,-3.433110809E0,3.832031250E-2,4.152365112E-1,3.458343481E0
2.202892417E0,-3.884122925E0,-3.373983765E-1,8.021818542E-1,3.980420114E0
2.212832417E0,-4.059857483E0,-5.786965942E-1,8.644523621E-1,4.191015440E0
2.222772417E0,-4.105811920E0,-7.286846924E-1,8.458909607E-1,4.254903574E0
2.232711417E0,-3.609893188E0,-7.801776123E-1,1.021775208E0,3.831974754E0
2.242651417E0,-2.627935181E0,-6.447093201E-1,1.237177277E0,2.975281673E0
2.252590417E0,-1.695673828E0,-3.356021118E-1,1.287921753E0,2.155616142E0
2.262530417E0,-1.101409607E0,1.175056458E-1,1.291813660E0,1.701673656E0
2.272469417E0,-7.933502197E-1,5.728587341E-1,1.322050781E0,1.644806970E0
2.282409417E0,-5.948629761E-1,8.985813904E-1,1.448537750E0,1.805428506E0
2.292349417E0,-3.917353821E-1,1.018631744E0,1.556912384E0,1.901326750E0
2.302288417E0,2.065704346E-2,6.571334839E-1,1.688039703E0,1.811554352E0
2.312228417E0,1.017883301E-1,-7.711962891E-1,2.356699219E0,2.481760623E0
2.322167417E0,-2.640509033E-1,-2.516117706E0,4.464017029E0,5.131083631E0
2.332107417E0,-2.655477905E-1,-3.951931915E0,6.083648987E0,7.259412269E0
2.342046417E0,9.864486694E-2,-4.003724213E0,2.693947906E0,4.826685582E0
2.351986417E0,6.239025879E-1,-3.650758209E0,-7.554789734E-1,3.779952172E0
2.361926417E0,2.216141510E0,-4.776716766E0,2.276765442E-1,5.270687134E0
2.371865417E0,5.458249512E0,-8.081394653E0,5.507946167E0,1.119995081E1
2.381805417E0,8.562943268E0,-1.231848358E1,5.776787109E0,1.607607864E1
2.391744417E0,1.096664474E1,-1.517993317E1,2.022444305E0,1.883581559E1
2.401684417E0,1.490330841E1,-1.924907135E1,4.740492096E0,2.480136316E1
2.411623417E0,1.971550140E1,-2.440000992E1,3.647315369E0,3.158107644E1
2.421563417E0,2.397549271E1,-2.949735992E1,4.236190796E-1,3.801444391E1
2.431503417E0,2.844190475E1,-3.518792633E1,6.993457031E-1,4.525064850E1
2.441442417E0,2.979030075E1,-3.715603363E1,1.544637909E0,4.764891143E1
2.451382417E0,2.535352707E1,-3.365676041E1,2.207459564E0,4.219539944E1
2.461321417E0,2.033536240E1,-2.655358154E1,1.953288116E0,3.350276095E1
2.471261417E0,1.743454468E1,-1.834300552E1,1.264869690E0,2.533829306E1
2.481200417E0,1.706047256E1,-1.321511902E1,1.297352142E0,2.161902443E1
2.491140417E0,1.652788010E1,-1.038555313E1,2.578837280E0,1.968961493E1
2.501079417E0,1.491064316E1,-9.587412872E0,3.689976654E0,1.810695150E1
2.511019417E0,1.288355850E1,-1.010922775E1,4.041296082E0,1.686756175E1
2.520959417E0,1.137260056E1,-1.068912186E1,3.954925690E0,1.610077038E1
2.530898417E0,1.033121613E1,-1.101050354E1,3.648363190E0,1.553305407E1
2.540838792E0,9.038803711E0,-1.070424042E1,3.406915283E0,1.441831499E1
2.550777792E0,7.535928955E0,-9.697883148E0,3.384162598E0,1.273937672E1
2.560717792E0,5.965993652E0,-8.030051422E0,3.158581696E0,1.049054071E1
2.570656792E0,4.143832855E0,-6.260880432E0,2.575843506E0,7.937565388E0
2.580596792E0,2.310445404E0,-4.904101868E0,1.829345856E0,5.721440322E0
2.590536792E0,9.870474243E-1,-3.814667358E0,1.222507782E0,4.125587831E0
2.600475792E0,-1.901046753E-2,-2.953657837E0,9.375004578E-1,3.098929351E0
2.610415792E0,-9.470805359E-1,-2.056872711E0,7.909552002E-1,2.398603139E0
2.620354792E0,-1.864822083E0,-1.096469879E0,8.388555908E-1,2.320234104E0
2.630294792E0,-2.829565887E0,-2.715353394E-1,7.412585449E-1,2.937624684E0
2.640233792E0,-3.809577942E0,3.902384949E-1,6.830296326E-1,3.889948542E0
2.650173792E0,-4.671784973E0,8.912466431E-1,1.099014587E0,4.881365432E0
2.660113792E0,-4.934488678E0,1.079704742E0,1.788031769E0,5.358357813E0
2.670052792E0,-5.059778137E0,6.873706055E-1,1.733096008E0,5.392351521E0
2.679992792E0,-4.644841003E0,2.059716797E-1,8.723858643E-1,4.730542186E0
2.689931792E0,-3.275937653E0,-9.759704590E-2,-1.381626892E-1,3.280302062E0
2.699871792E0,-1.347048798E0,-2.742297363E-1,-6.668632507E-1,1.527890378E0
2.709810792E0,-3.110531616E-1,-3.026705933E-1,-7.241940308E-1,8.442870078E-1
2.719750792E0,1.966909790E-1,-2.685415649E-1,-6.285429382E-1,7.112440780E-1
2.729690792E0,5.533992004E-1,-1.537303162E-1,-5.287005615E-1,7.806458665E-1
2.739629792E0,7.129673767E-1,3.338058472E-2,-4.632865906E-1,8.509237385E-1
2.749569792E0,7.075785828E-1,2.734812927E-1,-5.255570984E-1,9.228595407E-1
2.759508792E0,6.107299805E-1,4.956193542E-1,-5.963598633E-1,9.870535648E-1
2.769448792E0,5.126838684E-1,6.249504089E-1,-6.559359741E-1,1.040989800E0
2.779387792E0,4.787045288E-1,7.104226685E-1,-8.062234497E-1,1.176373514E0
2.789327792E0,5.993536377E-1,7.292834473E-1,-1.051263885E0,1.412881767E0
2.799267792E0,7.997868347E-1,6.616241455E-1,-1.063238983E0,1.485894554E0
2.809206792E0,9.092092896E-1,1.827699280E-1,-6.562353516E-1,1.136094721E0
2.819146792E0,1.010099487E0,-8.765771484E-1,1.631008301E0,2.109236011E0
2.829085792E0,1.705702972E0,-2.383343811E0,6.250102844E0,6.903154056E0
2.839025792E0,1.967358856E0,-2.728975067E0,2.206860809E0,4.023436394E0
2.848964792E0,3.358865204E0,-3.675756226E0,-3.082090759E-1,4.988802674E0
2.858904792E0,6.944059753E0,-6.759643250E0,1.942809906E0,9.883686208E0
2.868844792E0,1.240305771E1,-1.315000443E1,1.085916824E1,2.108743682E1
2.878783792E0,1.328622116E1,-1.407987076E1,5.441035309E0,2.010898552E1
2.888723792E0,1.545685730E1,-1.595756607E1,-9.018745422E-1,2.223447166E1
2.898662792E0,2.222652969E1,-2.365905075E1,3.668571167E0,3.266845143E1
2.908602792E0,2.683140381E1,-2.817905136E1,2.246977386E0,3.897476200E1
2.918541792E0,2.805780350E1,-2.950065308E1,-7.497908020E-1,4.071966423E1
2.928481792E0,2.749407578E1,-3.129137924E1,7.509883118E-1,4.166099616E1
2.938421792E0,2.289563828E1,-2.960708176E1,4.459676056E0,3.769188577E1
2.948360792E0,1.902947800E1,-2.402249496E1,5.838758240E0,3.119763444E1
2.958300792E0,1.918395676E1,-1.808613968E1,4.867428131E0,2.681090267E1
2.968239792E0,1.814317108E1,-1.512140488E1,5.908213806E0,2.434622214E1
2.978179792E0,1.596834366E1,-1.374741211E1,6.716083832E0,2.211526895E1
2.988118792E0,1.497261429E1,-1.337543564E1,6.346203003E0,2.105601457E1
2.998058792E0,1.452250031E1,-1.319281540E1,5.329367523E0,2.033114732E1
3.007998792E0,1.365415604E1,-1.278132111E1,4.160148926E0,1.915998396E1
3.017937792E0,1.214978439E1,-1.196446976E1,3.281027069E0,1.736464615E1
3.027877792E0,9.843829651E0,-1.028690826E1,2.573448486E0,1.446872838E1
3.037816792E0,7.413633270E0,-8.487200775E0,1.814826050E0,1.141438254E1
3.047756792E0,5.326074371E0,-6.846013641E0,1.009800110E0,8.732391840E0
3.057695792E0,3.423081665E0,-5.415887604E0,2.207908630E-1,6.410778052E0
3.067635792E0,1.782942352E0,-4.287833405E0,-2.351609802E-1,4.649698853E0
3.077575792E0,3.375480652E-1,-3.520529022E0,-6.629713440E-1,3.598276573E0
3.087514792E0,-1.014141083E0,-2.975961456E0,-9.773176575E-1,3.292412266E0
3.097454792E0,-1.999541931E0,-2.354902954E0,-1.144519958E0,3.294489610E0
3.107393792E0,-2.802771606E0,-1.707499237E0,-1.350341949E0,3.548873864E0
3.117333792E0,-3.577859802E0,-1.027613068E0,-1.483265533E0,4.007136886E0
3.127272792E0,-4.213438110E0,-4.328997803E-1,-1.143621826E0,4.387292310E0
3.137212792E0,-7.554041290E0,-6.704557800E-1,-6.311774597E0,9.866688874E0
3.147151792E0,-1.838686432E1,-1.712888031E0,-1.999392242E1,2.721704794E1
3.157091792E0,-2.075134735E0,-1.829196167E-1,4.034410400E0,4.540496783E0
3.167031792E0,-3.227288818E0,-3.980223083E-1,1.141017242E1,1.186447848E1
3.176970792E0,-3.022215271E0,-1.832189941E-1,1.068942123E1,1.110995413E1
3.186910792E0,-1.568139038E0,-7.870632935E-1,6.995852051E0,7.212522068E0
3.196849792E0,1.275347900E-1,-7.304809570E-1,4.266128540E0,4.330094719E0
3.206789792E0,1.440005493E0,1.113684082E-1,1.310225372E0,1.950053658E0
3.216728792E0,2.115101624E0,3.971241760E-1,1.893562317E-1,2.160374567E0
3.226668792E0,1.999242554E0,5.523513794E-1,-2.874023438E-1,2.093958677E0
3.236608792E0,1.379082184E0,3.601510620E-1,-6.179150391E-1,1.553510686E0
3.246547792E0,5.043013000E-1,1.784289551E-1,-7.086264038E-1,8.878671485E-1
3.256487792E0,-5.658233643E-2,2.522254944E-1,-3.119512939E-1,4.051331517E-1
3.266426792E0,-5.343887329E-2,3.457809448E-1,8.322692871E-2,3.596482958E-1
3.276366792E0,5.631289673E-1,1.285826111E-1,3.752696228E-1,6.888214656E-1
3.286305792E0,1.255289612E0,-8.978329468E-1,1.153351593E0,1.926674832E0
3.296245792E0,1.390009460E0,-2.691552887E0,3.955374756E0,4.982125320E0
3.306185792E0,1.405876465E0,-4.309238892E0,4.731361084E0,6.552236730E0
3.316124792E0,1.695823517E0,-4.326752472E0,2.308200073E-1,4.652943394E0
3.326064792E0,2.900368652E0,-4.611610107E0,-1.586101685E0,5.674046586E0
3.336003792E0,5.834866333E0,-6.734196167E0,1.684147797E0,9.068153998E0
3.345943792E0,1.167676804E1,-1.154848480E1,1.399649414E1,2.157814314E1
3.355882792E0,1.394275589E1,-1.344698685E1,8.030949554E0,2.096945511E1
3.365822792E0,1.281036072E1,-1.272593628E1,-2.787353668E0,1.827085483E1
3.375762792E0,1.536539749E1,-1.619781647E1,-5.812413025E-1,2.233388770E1
3.385701792E0,2.002894958E1,-2.085238724E1,1.907333679E0,2.897617637E1
3.395641792E0,2.318977661E1,-2.245285904E1,-1.967358856E0,3.233832276E1
3.405580792E0,2.452814346E1,-2.445389786E1,-2.251018982E0,3.470864487E1
3.415520792E0,2.526176788E1,-2.817007004E1,-1.154249725E0,3.785554193E1
3.425459792E0,2.309981369E1,-2.992621811E1,9.973759460E-1,3.781765040E1
3.435399792E0,2.025303360E1,-2.932177505E1,3.125650177E0,3.577319599E1
3.445339792E0,1.810365326E1,-2.451991058E1,5.003794556E0,3.088699138E1
3.455278792E0,1.619527176E1,-1.795097076E1,6.438111877E0,2.501946169E1
3.465218792E0,1.464479599E1,-1.386117554E1,6.972051544E0,2.133569168E1
3.475157792E0,1.342752731E1,-1.139640106E1,7.202721863E0,1.902775996E1
3.485097792E0,1.249781067E1,-9.859696655E0,6.699019318E0,1.727095103E1
3.495036792E0,1.171119644E1,-8.820407867E0,5.361400909E0,1.561077630E1
3.504976792E0,1.111708191E1,-8.151448975E0,3.799249420E0,1.429929812E1
3.514916792E0,1.021221359E1,-7.407196655E0,2.468965759E0,1.285502472E1
3.524855792E0,9.154213715E0,-6.566395111E0,1.510808258E0,1.136660526E1
3.534795792E0,7.724237366E0,-5.722899170E0,8.207432556E-1,9.648266025E0
3.544734958E0,6.159241791E0,-4.973856812E0,3.004252625E-1,7.922484860E0
3.554674958E0,4.486769714E0,-4.184548187E0,-2.309696960E-1,6.139616682E0
3.564613958E0,2.741698608E0,-3.392395477E0,-7.267387390E-1,4.421923510E0
3.574553958E0,1.094523926E0,-2.719694366E0,-1.014141083E0,3.102128657E0
3.584492958E0,-4.186793518E-1,-2.362237701E0,-1.163081360E0,2.666124079E0
3.594432958E0,-1.795815582E0,-2.105072479E0,-1.222058716E0,3.024848964E0
3.604372958E0,-3.312312012E0,-1.758243713E0,-1.142124939E0,3.920112396E0
3.614311958E0,-4.900659027E0,-1.548380127E0,-8.993298340E-1,5.217540998E0
3.624251958E0,-6.317313080E0,-1.689985657E0,-5.014572144E-1,6.558655000E0
3.634190958E0,-6.676266632E0,-2.021995239E0,-6.780899048E-2,6.976073319E0
3.644130958E0,-6.283483429E0,-2.599045258E0,2.719844055E-1,6.805231500E0
3.654069958E0,-4.839885406E0,-3.119213562E0,6.911128235E-1,5.799277621E0
3.664009958E0,-3.118764496E0,-2.957549744E0,1.249302063E0,4.475996885E0
3.673949958E0,-1.782642975E0,-2.406096497E0,1.806593170E0,3.497269679E0
3.683888958E0,-7.267387390E-1,-1.608105927E0,2.167043610E0,2.794679207E0
3.693828958E0,9.580078125E-2,-6.414161682E-1,2.161505127E0,2.256700446E0
3.703767958E0,6.020480347E-1,2.273771667E-1,1.878294067E0,1.985485033E0
3.713707958E0,8.436456299E-1,8.511300659E-1,1.494043121E0,1.915287233E0
3.723646958E0,8.328680420E-1,1.260828094E0,1.045725403E0,1.837633880E0
3.733586958E0,7.378157043E-1,1.470092926E0,6.204597473E-1,1.757986212E0
3.743526958E0,7.372169495E-1,1.522483978E0,2.472857666E-1,1.709560337E0
3.753465958E0,6.216572571E-1,1.338815918E0,-2.387535095E-1,1.495288951E0
3.763405958E0,4.670288086E-1,1.030906219E0,-7.066804504E-1,1.334271637E0
3.773344958E0,6.069877625E-1,5.947132874E-1,-6.460565186E-1,1.067476961E0
3.783284958E0,1.167122955E0,-4.987628174E-1,1.139729919E0,1.705850119E0
3.793223958E0,1.874402161E0,-1.948947144E0,3.598666534E0,4.501353047E0
3.803163958E0,2.441872101E0,-2.835553436E0,1.689536591E0,4.105805224E0
3.813103958E0,3.695814514E0,-3.721560974E0,-6.941065979E-1,5.290637483E0
3.823042958E0,5.992937622E0,-5.498366089E0,2.203417969E-1,8.136085146E0
3.832982958E0,1.012075378E1,-9.496551819E0,6.065386963E0,1.514605799E1
3.842921958E0,1.330912354E1,-1.371897125E1,9.119036865E0,2.117781327E1
3.852861958E0,1.473700424E1,-1.564172287E1,2.479593658E0,2.163310364E1
3.862800958E0,1.879072449E1,-1.965532654E1,1.400936737E0,2.722840083E1
3.872740958E0,2.304038727E1,-2.239118729E1,-1.034349060E0,3.214489993E1
3.882680958E0,2.669982742E1,-2.520249115E1,-2.791245575E0,3.682169736E1
3.892619958E0,3.012829788E1,-2.866898254E1,-2.231409760E0,4.164857840E1
3.902559958E0,3.094305359E1,-3.028861450E1,3.354524231E-1,4.330110001E1
3.912498958E0,2.779030975E1,-2.782174438E1,3.493435364E0,3.947853679E1
3.922438958E0,2.438504105E1,-2.043206131E1,6.321803741E0,3.243554468E1
3.932377958E0,2.191158463E1,-1.419213730E1,8.610693970E0,2.748960444E1
3.942317958E0,1.903426804E1,-1.118114868E1,9.303303680E0,2.395564453E1
3.952257958E0,1.677800995E1,-1.072384964E1,8.378227386E0,2.160317715E1
3.962196958E0,1.490720032E1,-1.072175400E1,6.138884125E0,1.936147020E1
3.972136958E0,1.338621323E1,-1.068253555E1,4.134103088E0,1.761811791E1
3.982075958E0,1.157168655E1,-1.028930328E1,2.812501373E0,1.573797496E1
3.992015958E0,9.287586365E0,-9.583371277E0,1.875899048E0,1.347661911E1
4.001954958E0,7.268435211E0,-8.580756226E0,1.053209839E0,1.129463496E1
4.011894958E0,5.433999939E0,-7.247179413E0,2.420466614E-1,9.061376902E0
4.021834958E0,3.667223969E0,-5.836213531E0,-2.818638611E-1,6.898504712E0
4.031773958E0,2.049238586E0,-4.707261200E0,-5.984555054E-1,5.168736381E0
4.041713958E0,6.355783081E-1,-3.666774902E0,-7.985893250E-1,3.806171683E0
4.051652958E0,-7.081773376E-1,-2.889591064E0,-7.364685059E-1,3.064904162E0
4.061592958E0,-1.847607880E0,-2.118993530E0,-5.388793945E-1,2.862547722E0
4.071531958E0,-2.932252350E0,-1.515448608E0,-4.930746460E-1,3.337335904E0
4.081471958E0,-3.873045959E0,-9.948312378E-1,-5.233117676E-1,4.032868632E0
4.091411958E0,-4.472848663E0,-6.604266357E-1,-2.643502808E-1,4.529063874E0
4.101350958E0,-4.585115204E0,-4.405339050E-1,3.141966248E-1,4.616933081E0
4.111290958E0,-4.679119720E0,-4.480183411E-1,9.719288635E-1,4.799950782E0
4.121229958E0,-5.167104950E0,-7.834707642E-1,1.514700165E0,5.441242192E0
4.131169958E0,-5.651048584E0,-1.301244049E0,2.414778442E0,6.281619306E0
4.141108958E0,-5.682782593E0,-1.683998108E0,3.708987122E0,6.991884803E0
4.151048958E0,-4.715045013E0,-1.677112427E0,3.978875885E0,6.393419185E0
4.160987958E0,-2.915038147E0,-1.202748871E0,3.015030212E0,4.362849920E0
4.170927958E0,-9.954299927E-1,-5.749543762E-1,1.913620605E0,2.232352398E0
4.180867958E0,2.317181396E-1,-1.423539734E-1,1.161285095E0,1.192703242E0
4.190806958E0,6.885681152E-1,6.721023560E-2,6.092330933E-1,9.218504364E-1
4.200746958E0,8.599617004E-1,1.683998108E-1,2.299218750E-1,9.059562302E-1
4.210685958E0,8.768765259E-1,1.933978271E-1,1.496887207E-4,8.979505463E-1
4.220625958E0,8.084687805E-1,2.008822632E-1,-2.125579834E-2,8.333230236E-1
4.230564958E0,6.556365967E-1,2.380050659E-1,1.471440125E-1,7.128514002E-1
4.240504958E0,6.508465576E-1,2.124082947E-1,3.625460815E-1,7.746987714E-1
4.250444958E0,8.566685486E-1,-1.196012878E-1,3.128494263E-1,9.198153259E-1
4.260383958E0,1.134341125E0,-9.180409241E-1,1.682501221E-1,1.468957804E0
4.270323958E0,1.588796082E0,-2.227966919E0,1.565594330E0,3.152648916E0
4.280262958E0,2.431992645E0,-3.611090698E0,3.059338074E0,5.321100798E0
4.290202958E0,3.400029602E0,-4.072431335E0,1.150956573E0,5.428590914E0
4.300141958E0,4.940625916E0,-4.861739960E0,6.259982300E-1,6.959753850E0
4.310081958E0,7.657476196E0,-7.313341827E0,5.370531921E0,1.187284816E1
4.320021958E0,1.008422974E1,-1.004007156E1,5.948480072E0,1.542333108E1
4.329960958E0,1.128428421E1,-1.126721970E1,9.364526367E-1,1.597379896E1
4.339900958E0,1.455243805E1,-1.457938202E1,2.408042450E0,2.073958779E1
4.349839958E0,2.005155258E1,-1.890059601E1,8.882528687E-1,2.756966238E1
4.359779958E0,2.576756607E1,-2.340862152E1,-1.480720825E0,3.484427581E1
4.369718958E0,3.270369232E1,-2.972129425E1,-8.967851257E-1,4.420057745E1
4.379658958E0,3.766213120E1,-3.416585175E1,1.142873383E0,5.086302892E1
4.389598958E0,3.604594208E1,-3.321068802E1,3.901636505E0,4.916790118E1
4.399537958E0,2.919663528E1,-2.498274811E1,6.895710297E0,3.904013365E1
4.409477958E0,2.401890244E1,-1.474418930E1,7.648943939E0,2.920282753E1
4.419416958E0,2.193343918E1,-1.028017227E1,6.596332855E0,2.510516487E1
4.429356958E0,1.905702072E1,-8.075107727E0,6.088888092E0,2.157433572E1
4.439295958E0,1.629182098E1,-7.637268219E0,5.134323120E0,1.871129527E1
4.449235958E0,1.478714996E1,-8.220605164E0,3.179089050E0,1.721466702E1
4.459175958E0,1.378498398E1,-8.321944427E0,1.482966156E0,1.617033491E1
4.469114958E0,1.213840805E1,-8.264014893E0,2.474354553E-1,1.468659649E1
4.479054958E0,1.012838791E1,-8.027357025E0,-4.261637878E-1,1.293075087E1
4.488993958E0,7.985294495E0,-7.435487823E0,-6.201603699E-1,1.092867816E1
4.498933958E0,5.667963409E0,-6.688840485E0,-3.561094666E-1,8.774577494E0
4.508872958E0,3.363804932E0,-5.963898010E0,-9.669891357E-2,6.847818176E0
4.518812958E0,1.258582764E0,-5.020559692E0,-8.232879639E-3,5.175917115E0
4.528752958E0,-7.300318909E-1,-4.078718262E0,2.874023438E-2,4.143635508E0
4.538691958E0,-2.405497742E0,-2.989283752E0,2.155517578E-2,3.837017248E0
4.548632042E0,-3.728296967E0,-1.985022125E0,3.141966248E-1,4.235472893E0
4.558571042E0,-5.095703430E0,-1.223405914E0,6.909631348E-1,5.285862799E0
4.568511042E0,-6.297404480E0,-7.417076111E-1,8.566685486E-1,6.398540018E0
4.578450042E0,-6.819369049E0,-4.234693909E-1,8.596623230E-1,6.886373491E0
4.588390042E0,-6.939569092E0,-4.788542175E-1,1.167272644E0,7.053328715E0
4.598329042E0,-6.941515045E0,-9.874964905E-1,1.548829193E0,7.180435384E0
4.608269042E0,-6.319857788E0,-1.655108185E0,1.749412079E0,6.763167023E0
4.618209042E0,-4.815186768E0,-2.096839600E0,1.820364532E0,5.558460843E0
4.628148042E0,-3.110531616E0,-2.002236328E0,1.606609039E0,4.033057135E0
4.638088042E0,-1.766775970E0,-1.659898224E0,1.368304596E0,2.783705608E0
4.648027042E0,-8.125103760E-1,-1.210083618E0,1.433718567E0,2.044510798E0
4.657967042E0,-3.682342529E-2,-5.599855042E-1,1.416504364E0,1.523622113E0
4.667906042E0,4.662803650E-1,-5.134323120E-2,9.005273438E-1,1.015383180E0
4.677846042E0,5.535488892E-1,1.056802368E-1,2.727328491E-1,6.260733920E-1
4.687786042E0,4.185296631E-1,1.555265808E-1,-2.769241333E-2,4.473504957E-1
4.697725042E0,3.327580261E-1,2.130070496E-1,-1.082249451E-1,4.096492962E-1
4.707665042E0,3.543132019E-1,2.619552612E-1,-2.386038208E-1,5.010890013E-1
4.717604042E0,4.090992737E-1,2.017803955E-1,-5.647755432E-1,7.259813758E-1
4.727544042E0,3.113525391E-1,2.004331970E-1,-7.696994019E-1,8.541375997E-1
4.737483042E0,3.594026184E-1,1.082249451E-1,-6.783892822E-1,7.753031014E-1
4.747423042E0,7.385641479E-1,-3.552113342E-1,1.830693054E-1,8.397419027E-1
4.757363042E0,2.441872101E0,-1.634600830E0,7.873477020E0,8.403945479E0
4.767302042E0,3.768712921E0,-2.832859039E0,7.342531128E0,8.725883954E0
4.777242042E0,3.862567749E0,-3.214415588E0,-2.636018372E-1,5.032035683E0
4.787181042E0,4.588258667E0,-3.893253937E0,-4.796026611E-1,6.036519073E0
4.797121042E0,6.905140686E0,-5.933211823E0,3.140469360E0,9.630499376E0
4.807060042E0,1.107097778E1,-1.003468277E1,9.154363403E0,1.752323534E1
4.817000042E0,1.525747192E1,-1.418764664E1,6.374643860E0,2.178797492E1
4.826940042E0,1.826771210E1,-1.702529572E1,4.893324280E0,2.544630861E1
4.836879042E0,2.171459427E1,-1.922976151E1,8.822653198E-1,2.901871334E1
4.846819042E0,2.764256699E1,-2.372311752E1,-6.264472961E-1,3.643199488E1
4.856758042E0,3.291535217E1,-2.903332489E1,1.047521667E0,4.390275236E1
4.866698042E0,3.444307526E1,-3.204146942E1,2.915636902E0,4.713260161E1
4.876637042E0,3.052646988E1,-3.077585129E1,2.701432343E0,4.343174096E1
4.886577042E0,2.449685852E1,-2.606095596E1,2.487078094E0,3.585324338E1
4.896516042E0,2.099638779E1,-1.872770554E1,2.914439392E0,2.828549472E1
4.906456042E0,1.873653717E1,-1.412402893E1,3.621269531E0,2.374151662E1
4.916396042E0,1.592628113E1,-1.213885712E1,4.662653961E0,2.056060857E1
4.926335042E0,1.320718552E1,-1.150896698E1,5.310955811E0,1.830552708E1
4.936275042E0,1.168051025E1,-1.059736267E1,5.189707947E0,1.660335761E1
4.946214042E0,1.091290649E1,-9.199868774E0,4.559518433E0,1.498393546E1
4.956154042E0,1.015009277E1,-8.047565002E0,3.625760193E0,1.345116436E1
4.966093042E0,9.027277679E0,-7.008575592E0,2.452200623E0,1.168867666E1
4.976033042E0,7.664212189E0,-5.921685791E0,1.425335999E0,9.789693243E0
4.985973042E0,6.296356659E0,-4.849016418E0,7.280859375E-1,7.980424584E0
4.995912042E0,4.836292877E0,-3.931873627E0,3.817062378E-1,6.244602362E0
5.005852042E0,3.358715515E0,-3.076402588E0,2.068698120E-1,4.559387888E0
5.015791042E0,1.795815582E0,-2.443069611E0,3.353027344E-2,3.032270932E0
5.025731042E0,3.273692322E-1,-2.063908081E0,-2.454895020E-2,2.089854022E0
5.035670042E0,-9.598040771E-1,-1.576222229E0,-9.744735718E-2,1.848024991E0
5.045610042E0,-2.126927032E0,-1.050665131E0,-7.095245361E-2,2.373341541E0
5.055550042E0,-3.334465942E0,-5.607339478E-1,4.026626587E-2,3.381524368E0
5.065489042E0,-4.453987885E0,-2.683918762E-1,4.215234375E-1,4.481933097E0
5.075429042E0,-5.215155029E0,-2.483335876E-1,9.270222473E-1,5.302723998E0
5.085368042E0,-5.562432861E0,-4.355941772E-1,1.510059814E0,5.780197425E0
5.095308042E0,-5.790259094E0,-9.117539978E-1,2.255659332E0,6.280636493E0
5.105247042E0,-5.240901489E0,-1.451531525E0,2.398761749E0,5.943740415E0
5.115187042E0,-3.613635406E0,-1.627415771E0,1.495540009E0,4.235974842E0
5.125126042E0,-1.829196167E0,-1.410965881E0,3.713777161E-1,2.339808698E0
5.135066042E0,-5.233117676E-1,-1.152154083E0,-2.683918762E-1,1.293579699E0
5.145006042E0,1.212478638E-2,-9.285191345E-1,-3.827540588E-1,1.004388104E0
5.154945042E0,8.367599487E-2,-5.604345703E-1,-3.772155762E-1,6.807203322E-1
5.164885042E0,-5.658233643E-2,-1.288819885E-1,-2.697390747E-1,3.042553141E-1
5.174824042E0,-3.564088440E-1,2.386038208E-1,2.739303589E-2,4.297783450E-1
5.184764042E0,-5.956114197E-1,4.212240601E-1,2.746788025E-1,7.795069702E-1
5.194703042E0,-6.833290100E-1,4.364923096E-1,2.944377136E-1,8.626457207E-1
5.204643042E0,-7.328759766E-1,3.055146790E-1,1.221459961E-1,8.033467872E-1
5.214583042E0,-7.411088562E-1,-4.954696655E-2,-2.134561157E-1,7.728264695E-1
5.224522042E0,-7.381150818E-1,-8.442443848E-1,-1.149609375E-1,1.127288105E0
5.234462042E0,-6.893165588E-1,-2.355052643E0,1.929188232E0,3.121409538E0
5.244401042E0,-4.050576782E-1,-4.632267151E0,6.026018829E0,7.611496148E0
5.254341042E0,5.736071777E-1,-5.805677032E0,5.763913879E0,8.201073967E0
5.264280042E0,1.868414612E0,-5.633984070E0,2.227368164E0,6.339867396E0
5.274220042E0,3.978576508E0,-6.101461945E0,2.002086639E0,7.554155135E0
5.284160042E0,7.659122772E0,-8.690777435E0,7.614066467E0,1.386238732E1
5.294099042E0,1.098969681E1,-1.167572021E1,7.578290863E0,1.773489134E1
5.304039042E0,1.194471085E1,-1.245664627E1,4.082011414E-1,1.726298878E1
5.313978042E0,1.563573532E1,-1.550266205E1,7.726931763E-1,2.203192693E1
5.323918042E0,2.295775909E1,-2.103006775E1,1.929786987E0,3.119369375E1
5.333857042E0,2.879966080E1,-2.482482651E1,-3.577560425E-1,3.802394591E1
5.343797042E0,3.427542389E1,-3.067421265E1,2.221679993E0,4.605049257E1
5.353737042E0,3.623574738E1,-3.301594299E1,4.861141205E0,4.926167449E1
5.363676042E0,3.174074478E1,-2.926100143E1,5.100643158E0,4.347065268E1
5.373616042E0,2.640673691E1,-2.170561295E1,3.688629456E0,3.438103219E1
5.383555042E0,2.393537613E1,-1.438089478E1,2.879262543E0,2.807138254E1
5.393495042E0,2.100147720E1,-1.088880661E1,2.064806213E0,2.374640139E1
5.403434042E0,1.672636734E1,-9.010811920E0,1.898202667E0,1.909369711E1
5.413374042E0,1.339714050E1,-8.126001892E0,2.215393066E0,1.582476688E1
5.423313042E0,1.112756012E1,-7.692203979E0,2.176773376E0,1.370149403E1
5.433253042E0,9.866432648E0,-7.401807861E0,1.635948029E0,1.244224975E1
5.443193042E0,9.479187927E0,-6.927444305E0,9.119036865E-1,1.177607985E1
5.453132042E0,9.237590332E0,-6.306685181E0,4.941224670E-1,1.119604886E1
5.463072042E0,8.355325012E0,-5.479505310E0,6.563850403E-1,1.001335487E1
5.473011042E0,7.015610962E0,-4.446054382E0,8.369096375E-1,8.347850890E0
5.482951042E0,5.281018066E0,-3.425177307E0,8.602610779E-1,6.353033962E0
5.492890042E0,3.559597778E0,-2.524949341E0,1.184037781E0,4.521952121E0
5.502830042E0,2.199526062E0,-1.606159973E0,1.550026703E0,3.133727419E0
5.512770042E0,8.267308044E-1,-9.113049316E-1,1.745969238E0,2.135970291E0
5.522709042E0,-7.206015015E-1,-2.089654541E-1,1.927691345E0,2.068556745E0
5.532649042E0,-2.451452179E0,5.028044128E-1,2.184856567E0,3.322051818E0
5.542588042E0,-4.052522736E0,7.960446167E-1,2.570155334E0,4.864393693E0
5.552527833E0,-5.443580017E0,5.225633240E-1,3.010240173E0,6.242369881E0
5.562466833E0,-6.478976898E0,-3.484753418E-1,3.583248596E0,7.412033946E0
5.572406833E0,-6.728058929E0,-1.810335388E0,4.239184570E0,8.155659201E0
5.582345833E0,-5.885610809E0,-3.510799255E0,4.318519592E0,8.100354158E0
5.592285833E0,-4.754263458E0,-4.440216522E0,2.944826202E0,7.140766426E0
5.602225833E0,-3.033741302E0,-4.453838196E0,7.593708801E-1,5.442141591E0
5.612164833E0,-1.243763580E0,-3.810775452E0,-1.111588440E0,4.159878153E0
5.622104833E0,-2.510279846E-1,-3.249592438E0,-1.957030334E0,3.801688282E0
5.632043833E0,2.469863892E-2,-2.717748413E0,-2.038011932E0,3.397095685E0
5.641983833E0,-2.993774414E-4,-2.046095123E0,-1.933229828E0,2.814939237E0
5.651922833E0,-1.272354126E-2,-1.409918060E0,-1.736089783E0,2.236523767E0
5.661862833E0,4.819976807E-2,-7.948471069E-1,-1.571881256E0,1.762077133E0
5.671802833E0,4.879852295E-2,-2.694396973E-1,-1.415456543E0,1.441699092E0
5.681741833E0,8.292755127E-2,1.251397705E-1,-1.223854980E0,1.233027962E0
5.691681833E0,1.746867371E-1,4.189787292E-1,-1.098415833E0,1.188518394E0
5.701620833E0,2.236349487E-1,6.228547668E-1,-9.575587463E-1,1.163992871E0
5.711560833E0,4.915777588E-1,7.517367554E-1,-5.983058167E-1,1.079225043E0
5.721499833E0,1.873054962E0,1.154100037E0,1.990560608E0,2.966919837E0
5.731439833E0,3.387904816E0,5.318440247E-1,5.696553955E0,6.649171683E0
5.741379833E0,2.389930115E0,-9.726773071E-1,2.199975128E0,3.390834361E0
5.751318833E0,2.611170044E0,-2.142644348E0,-3.906875610E-1,3.400260368E0
5.761258833E0,5.435945892E0,-4.123325500E0,1.432970123E0,6.971708851E0
5.771197833E0,9.389973450E0,-8.042625275E0,1.107352249E1,1.659753967E1
5.781137833E0,1.274165359E1,-1.080812439E1,7.682923279E0,1.839001357E1
5.791076833E0,1.711944992E1,-1.410681473E1,3.214714966E0,2.241455285E1
5.801016833E0,2.170022415E1,-1.749726425E1,7.165599060E-1,2.788489632E1
5.810956833E0,2.931548813E1,-2.365680542E1,1.063238983E0,3.768517963E1
5.820895833E0,3.775239349E1,-3.266731796E1,6.296356659E0,5.031938975E1
5.830835833E0,3.909255661E1,-3.647794373E1,7.720345459E0,5.402288492E1
5.840774833E0,3.187306961E1,-3.182516922E1,3.779640198E0,4.519977480E1
5.850714833E0,2.248803589E1,-2.275508057E1,2.982996826E0,3.213103982E1
5.860653833E0,1.964844086E1,-1.537363037E1,2.761158142E0,2.510047277E1
5.870593833E0,1.852248230E1,-1.287727158E1,2.601589966E0,2.270847296E1
5.880533833E0,1.551089493E1,-1.179562088E1,2.686164093E0,1.967079081E1
5.890472833E0,1.269869293E1,-1.223660385E1,2.370470581E0,1.779354958E1
5.900412833E0,1.173918823E1,-1.283071838E1,2.014660492E0,1.750699093E1
5.910351833E0,1.151734955E1,-1.264600250E1,1.665586395E0,1.718560147E1
5.920291833E0,1.087323898E1,-1.168604874E1,1.305585022E0,1.601548043E1
5.930230833E0,1.004635849E1,-1.028990204E1,8.866062927E-1,1.440824325E1
5.940170833E0,8.778944092E0,-8.682245178E0,6.942562866E-1,1.236661767E1
5.950109833E0,7.211553497E0,-6.915469208E0,1.246607666E0,1.006897457E1
5.960049833E0,5.363795929E0,-4.871170349E0,2.000140686E0,7.516592985E0
5.969989833E0,3.331322479E0,-3.007994843E0,2.617007904E0,5.195620541E0
5.979928833E0,1.705403595E0,-1.773362274E0,2.629432068E0,3.600989888E0
5.989868833E0,4.968168640E-1,-1.220262451E0,2.103575592E0,2.482115573E0
5.999807833E0,-7.032376099E-1,-8.539741516E-1,1.550775146E0,1.904919563E0
6.009747833E0,-2.114502869E0,-3.007246399E-1,1.282233582E0,2.491120360E0
6.019686833E0,-3.764222260E0,1.368154907E-1,1.653012543E0,4.113458176E0
6.029626833E0,-5.263654175E0,2.830613708E-1,2.699336700E0,5.922212225E0
6.039566833E0,-6.475683746E0,-1.856140137E-1,4.431833954E0,7.849209179E0
6.049505833E0,-7.275470581E0,-1.470092926E0,6.099515991E0,9.607171317E0
6.059445833E0,-6.888225861E0,-3.201692047E0,6.418652344E0,9.944726511E0
6.069384833E0,-5.247038727E0,-4.350403290E0,4.622836761E0,8.235778282E0
6.079324833E0,-3.291654968E0,-4.230502625E0,1.861528931E0,5.674278355E0
6.089263833E0,-1.061592407E0,-3.405717773E0,-1.850152588E-1,3.572131386E0
6.099203833E0,4.451742554E-1,-2.572550354E0,-1.193318481E0,2.870575629E0
6.109142833E0,7.155120850E-1,-1.895208893E0,-1.361418915E0,2.440744918E0
6.119082833E0,6.906637573E-1,-1.232087860E0,-1.298250275E0,1.918465714E0
6.129022833E0,6.068380737E-1,-6.887178040E-1,-1.446442108E0,1.713119795E0
6.138961833E0,3.927832031E-1,-2.658471680E-1,-1.658551025E0,1.725034743E0
6.148901833E0,2.517764282E-1,6.511459351E-2,-1.772613831E0,1.791588980E0
6.158840833E0,2.212399292E-1,3.282673645E-1,-1.838027802E0,1.880173600E0
6.168780833E0,2.357597351E-1,5.523513794E-1,-1.852098541E0,1.947034593E0
6.178719833E0,2.630030823E-1,7.259902954E-1,-1.928140411E0,2.077006976E0
6.188659833E0,3.823049927E-1,7.813751221E-1,-1.948797455E0,2.134131137E0
6.198599833E0,9.087602234E-1,5.319937134E-1,-1.691632233E0,1.992606852E0
6.208538833E0,1.342408447E0,-2.700384521E-1,-1.189725952E0,1.813953981E0
6.218478833E0,1.486708374E0,-1.272204437E0,-7.761360168E-1,2.105039913E0
6.228417833E0,2.065255280E0,-2.189197540E0,-3.333567810E-1,3.028034343E0
6.238357833E0,3.903133392E0,-4.184847565E0,4.160448303E0,7.075078056E0
6.248296833E0,6.545588379E0,-5.882018280E0,7.038513336E0,1.126869719E1
6.258236833E0,8.283474426E0,-7.478298798E0,6.366111603E0,1.284789004E1
6.268176833E0,1.402463562E1,-1.247984802E1,1.108415039E1,2.180127062E1
6.278115833E0,1.573707458E1,-1.370849304E1,4.825066223E0,2.142100749E1
6.288055833E0,1.672322388E1,-1.463282089E1,2.383343811E0,2.234873580E1
6.297994833E0,2.095821716E1,-1.761656616E1,2.543211365E-1,2.737982741E1
6.307934833E0,2.602293503E1,-2.211650848E1,-7.153623962E-1,3.415911062E1
6.317873833E0,2.841930176E1,-2.564122879E1,2.111060028E0,3.833517837E1
6.327813833E0,2.783641388E1,-2.655223434E1,3.926634521E0,3.866918082E1
6.337752833E0,2.486105118E1,-2.479533783E1,2.994373169E0,3.523984839E1
6.347692833E0,2.200528976E1,-2.177731384E1,2.987936554E0,3.110324647E1
6.357632833E0,2.132061356E1,-1.834240677E1,2.569706268E0,2.824209339E1
6.367571833E0,2.036934174E1,-1.594035187E1,2.164798279E0,2.595556303E1
6.377511833E0,1.750175491E1,-1.416489395E1,3.132835236E0,2.273258239E1
6.387450833E0,1.508293488E1,-1.292741730E1,4.085903320E0,2.028072110E1
6.397390833E0,1.393257706E1,-1.157767410E1,4.323459320E0,1.862395075E1
6.407329833E0,1.307156754E1,-1.039663010E1,4.165837097E0,1.721365719E1
6.417269833E0,1.218885315E1,-9.409732361E0,3.823199615E0,1.586594023E1
6.427209833E0,1.097936829E1,-8.270002441E0,3.390000458E0,1.415738576E1
6.437148833E0,9.605525208E0,-7.046746216E0,2.791844330E0,1.223589562E1
6.447088833E0,7.966134338E0,-5.884413300E0,2.070494385E0,1.011793275E1
6.457027833E0,6.166726227E0,-4.796475677E0,1.505120087E0,7.956134599E0
6.466967833E0,4.402045898E0,-3.841910706E0,1.187630310E0,5.962277393E0
6.476906833E0,2.779120789E0,-3.147205353E0,7.752378845E-1,4.269591042E0
6.486846833E0,1.289867706E0,-2.623444519E0,2.342628479E-1,2.932763019E0
6.496786833E0,6.795867920E-2,-2.196232910E0,-3.126997375E-1,2.219423011E0
6.506725833E0,-9.208850098E-1,-1.842668152E0,-6.248007202E-1,2.152633517E0
6.516665833E0,-1.917662201E0,-1.464554443E0,-7.599696350E-1,2.529802736E0
6.526604833E0,-2.832409973E0,-1.137933655E0,-7.541317749E-1,3.144225500E0
6.536544833E0,-3.690874786E0,-8.655001831E-1,-4.617897034E-1,3.819017804E0
6.546484042E0,-4.548890533E0,-7.991880798E-1,1.944456482E-1,4.622652462E0
6.556424042E0,-5.399721222E0,-1.061442719E0,1.241218872E0,5.641300755E0
6.566363042E0,-6.185587006E0,-1.759441223E0,2.319576416E0,6.836487020E0
6.576303042E0,-6.626270599E0,-2.817291412E0,3.031645660E0,7.812519976E0
6.586243042E0,-6.006858673E0,-3.650758209E0,3.584446106E0,7.890414470E0
6.596182042E0,-4.481979675E0,-3.700155487E0,3.058439941E0,6.567598291E0
6.606122042E0,-2.444716187E0,-3.081042938E0,1.539398804E0,4.223649074E0
6.616061042E0,-4.969665527E-1,-2.122136993E0,1.438508606E-1,2.184292619E0
6.626001042E0,6.432124329E-1,-1.466350708E0,-4.816983032E-1,1.672106422E0
6.635940042E0,1.063388672E0,-8.285270691E-1,-6.081852722E-1,1.478898880E0
6.645880042E0,1.196162567E0,-2.318678284E-1,-6.858737183E-1,1.398209689E0
6.655820042E0,1.063238983E0,2.460882568E-1,-6.373745728E-1,1.263836584E0
6.665759042E0,1.006057892E0,5.592370605E-1,-6.206094360E-1,1.307690576E0
6.675699042E0,9.629475403E-1,6.744973755E-1,-7.801776123E-1,1.410989646E0
6.685638042E0,9.791139221E-1,7.602690125E-1,-8.966354370E-1,1.529911158E0
6.695578042E0,1.065035248E0,7.176077271E-1,-8.307723999E-1,1.529524014E0
6.705517042E0,1.297801208E0,1.315763855E-1,-3.463796997E-1,1.349658927E0
6.715457042E0,2.548151093E0,-8.183482361E-1,4.551734619E0,5.280251497E0
6.725396042E0,4.711153107E0,-2.151176605E0,1.212373856E1,1.318360956E1
6.735336042E0,4.787494354E0,-3.240311737E0,5.135370941E0,7.732512984E0
6.745276042E0,7.248526611E0,-5.102439423E0,1.403780823E0,8.974777250E0
6.755215042E0,7.229516144E0,-6.270161133E0,1.601519623E0,9.702870163E0
6.765155042E0,1.120779327E1,-1.143367355E1,8.092471619E0,1.793966605E1
6.775094042E0,1.638253235E1,-1.607028168E1,2.866239624E0,2.312696800E1
6.785034042E0,2.150682632E1,-1.980830841E1,-7.274871826E-2,2.923898003E1
6.794973042E0,2.665057983E1,-2.403417068E1,-4.995112610E-1,3.589072690E1
6.804913042E0,3.167054077E1,-2.812291809E1,-2.139201508E0,4.240870026E1
6.814853042E0,3.297552704E1,-3.203772720E1,-8.767268372E-1,4.598445387E1
6.824792042E0,2.864727768E1,-3.297088669E1,4.384382629E0,4.389725161E1
6.834732042E0,2.342089600E1,-2.874247971E1,6.968309326E0,3.772566558E1
6.844671042E0,2.215168533E1,-1.935235657E1,7.198081512E0,3.028239167E1
6.854611042E0,2.210647934E1,-1.292247757E1,7.170987854E0,2.659153854E1
6.864550042E0,1.963197510E1,-9.886490936E0,5.806874542E0,2.273492778E1
6.874490042E0,1.648252441E1,-8.214467926E0,4.902305603E0,1.905737901E1
6.884430042E0,1.402298904E1,-7.562423859E0,3.982618103E0,1.642241527E1
6.894369042E0,1.272279282E1,-7.769293671E0,2.846331024E0,1.517672499E1
6.904309042E0,1.172107590E1,-8.139922943E0,2.060914307E0,1.441836792E1
6.914248042E0,1.030487091E1,-8.251291351E0,1.386267242E0,1.327388076E1
6.924188042E0,8.760682068E0,-7.909252625E0,5.484594727E-1,1.181552518E1
6.934127042E0,7.114255829E0,-7.175628204E0,-6.676116943E-2,1.010478764E1
6.944067042E0,5.335953827E0,-6.168821869E0,-1.658551025E-1,8.158080314E0
6.954006042E0,3.422782288E0,-5.047803040E0,-2.338137817E-1,6.103312461E0
6.963946042E0,1.608704681E0,-4.046235809E0,-2.938389587E-1,4.364206263E0
6.973886042E0,1.695973206E-1,-3.374732208E0,-2.540217590E-1,3.388525901E0
6.983825042E0,-9.821076965E-1,-2.631527710E0,-5.125341797E-1,2.855199625E0
6.993765042E0,-2.096540222E0,-1.784888306E0,-7.358697510E-1,2.850054641E0
7.003704042E0,-3.156036987E0,-9.743238831E-1,-4.947212219E-1,3.339854126E0
7.013644042E0,-4.183200989E0,-1.969903564E-1,4.373904419E-1,4.210615883E0
7.023583042E0,-4.899162140E0,4.957690430E-1,1.969604187E0,5.303481618E0
7.033523042E0,-5.396877136E0,6.667135620E-1,3.534001007E0,6.485364517E0
7.043463042E0,-6.064638519E0,-5.388793945E-2,4.189038849E0,7.370942325E0
7.053402042E0,-6.193370819E0,-1.271455994E0,4.035607910E0,7.500704877E0
7.063342042E0,-5.178032227E0,-2.221829681E0,3.241658936E0,6.500530557E0
7.073281042E0,-3.315156097E0,-2.406395874E0,2.011517029E0,4.563682922E0
7.083221042E0,-1.259331207E0,-2.087109833E0,7.424560547E-1,2.548172588E0
7.093160042E0,4.417314148E-1,-1.518741760E0,1.901046753E-2,1.581791571E0
7.103100042E0,1.188229065E0,-9.672885132E-1,-1.059796143E-1,1.535827808E0
7.113040042E0,1.374142456E0,-3.360511780E-1,-5.284011841E-2,1.415623524E0
7.122979042E0,1.193168793E0,1.878593445E-1,-2.148033142E-1,1.226818391E0
7.132919042E0,7.813751221E-1,5.195695496E-1,-4.742138672E-1,1.051369768E0
7.142858042E0,6.120771790E-1,7.390132141E-1,-7.110214233E-1,1.194290780E0
7.152798042E0,5.185217285E-1,8.476872253E-1,-8.939410400E-1,1.336625975E0
7.162737042E0,4.031117249E-1,8.915460205E-1,-1.005159760E0,1.402747130E0
7.172677042E0,2.832110596E-1,7.824229431E-1,-9.786648560E-1,1.284592958E0
7.182616042E0,9.460327148E-2,1.745370483E-1,-5.751040649E-1,6.084058232E-1
7.192556042E0,1.170565796E-1,-7.408094788E-1,1.086740112E-1,7.578330735E-1
7.202496042E0,1.757345581E-1,-2.952011261E0,7.419620819E0,7.987241465E0
7.212435042E0,1.399290161E0,-4.945116577E0,8.710835724E0,1.011389391E1
7.222375042E0,4.974455566E0,-6.234235840E0,2.429148560E0,8.337365736E0
7.232314042E0,6.666836243E0,-6.793173523E0,2.492915955E0,9.839133191E0
7.242254042E0,9.256900177E0,-9.692194977E0,9.308692474E0,1.631810651E1
7.252193042E0,1.082593735E1,-1.176328812E1,4.204007721E0,1.653026157E1
7.262133042E0,1.345087875E1,-1.381522110E1,-1.732347565E0,1.935942926E1
7.272073042E0,1.945728836E1,-1.997072067E1,7.875123596E-1,2.789329544E1
7.282012042E0,2.434267914E1,-2.283261932E1,-5.695655823E-1,3.337991818E1
7.291952042E0,2.878813477E1,-2.590527969E1,-1.517693939E0,3.875749752E1
7.301891042E0,3.147579575E1,-3.001528290E1,1.472787323E0,4.351795064E1
7.311831042E0,2.975901581E1,-2.989388535E1,5.424868927E0,4.252849169E1
7.321770042E0,2.676718735E1,-2.554842178E1,5.912405090E0,3.747213242E1
7.331710042E0,2.577355362E1,-1.905627228E1,5.405259705E0,3.250591349E1
7.341649042E0,2.392774200E1,-1.468910385E1,4.006268921E0,2.836118474E1
7.351589042E0,1.996652939E1,-1.177960419E1,4.052373047E0,2.353387129E1
7.361529042E0,1.598585724E1,-1.024589355E1,4.539160767E0,1.952254970E1
7.371468042E0,1.328382614E1,-9.860744476E0,3.796704712E0,1.697378229E1
7.381408042E0,1.185504730E1,-9.166039124E0,3.029250641E0,1.528838707E1
7.391347042E0,1.079061081E1,-8.500074005E0,2.306403809E0,1.392867683E1
7.401287042E0,9.799521790E0,-7.783963165E0,1.782792664E0,1.264116528E1
7.411226042E0,8.753796387E0,-6.884034576E0,1.339714050E0,1.121667139E1
7.421166042E0,7.669301605E0,-5.811215515E0,6.444099426E-1,9.643841405E0
7.431106042E0,6.358477478E0,-4.727768555E0,3.095562744E-1,7.929555879E0
7.441045042E0,4.998705139E0,-3.615132294E0,3.577560425E-1,6.179338472E0
7.450985042E0,3.318299561E0,-2.615810394E0,2.865042114E-1,4.235051435E0
7.460924042E0,1.455273743E0,-1.897903290E0,5.987548828E-2,2.392371969E0
7.470864042E0,-1.992356873E-1,-1.307381287E0,-1.017883301E-1,1.326386652E0
7.480803042E0,-1.419947205E0,-7.924520874E-1,-5.104385376E-2,1.626909908E0
7.490743042E0,-2.450853424E0,-3.835025024E-1,3.263214111E-2,2.480891278E0
7.500683042E0,-3.501668243E0,-5.628295898E-2,2.613565063E-1,3.511859263E0
7.510622042E0,-4.281546478E0,2.210902405E-1,6.153703308E-1,4.331189419E0
7.520562042E0,-4.821324005E0,1.917512512E-1,1.252595215E0,4.985070559E0
7.530501042E0,-5.398972778E0,-4.763095093E-1,2.117646332E0,5.818952122E0
7.540441042E0,-5.639223175E0,-1.746268616E0,2.867137756E0,6.562832545E0
7.550379542E0,-4.942721558E0,-3.186723175E0,3.335513763E0,6.761017161E0
7.560319542E0,-3.647015991E0,-3.946842499E0,2.986739044E0,6.148081121E0
7.570258542E0,-2.093396759E0,-3.862118683E0,1.884431305E0,4.780099586E0
7.580198542E0,-4.884342957E-1,-3.067570953E0,7.837701416E-1,3.203569142E0
7.590138542E0,5.972579956E-1,-2.250270538E0,5.149291992E-2,2.328752054E0
7.600077542E0,9.446855164E-1,-1.640438690E0,-2.983296204E-1,1.916369062E0
7.610017542E0,1.009051666E0,-9.846524048E-1,-4.093986511E-1,1.468105200E0
7.619956542E0,9.803114319E-1,-3.390449524E-1,-3.269201660E-1,1.087583918E0
7.629896542E0,8.237370300E-1,2.201921082E-1,-1.883084106E-1,8.732051973E-1
7.639835542E0,7.170089722E-1,5.572911072E-1,-2.655477905E-1,9.461452708E-1
7.649775542E0,5.891748047E-1,6.271957397E-1,-6.379733276E-1,1.071219591E0
7.659714542E0,4.429289246E-1,6.623725891E-1,-9.111552429E-1,1.210424453E0
7.669654542E0,4.053570557E-1,6.863227844E-1,-8.132588196E-1,1.138746335E0
7.679594542E0,5.843847656E-1,3.369493103E-1,-2.978805542E-1,7.374098023E-1
7.689533542E0,1.281485138E0,-7.249424744E-1,5.360652466E0,5.559167259E0
7.699473542E0,2.386187897E0,-2.910996552E0,1.029963181E1,1.096586563E1
7.709412542E0,2.972069550E0,-3.110980682E0,1.265318756E0,4.484688369E0
7.719352542E0,3.774101715E0,-3.279979248E0,-1.174906769E0,5.136391101E0
7.729291542E0,6.447542267E0,-5.509742432E0,2.941533051E0,8.976674197E0
7.739231542E0,1.314581314E1,-1.096604599E1,1.462668365E1,2.251680356E1
7.749171542E0,1.554622147E1,-1.309506866E1,3.547472992E0,2.063371973E1
7.759110542E0,1.882455414E1,-1.632744690E1,-2.131567383E-1,2.491976718E1
7.769050542E0,2.480806137E1,-2.082439545E1,-2.453547821E0,3.248253764E1
7.778989542E0,3.095472931E1,-2.580379074E1,-4.668042755E0,4.056872572E1
7.788929542E0,3.607183823E1,-3.245296371E1,-3.725752258E0,4.866470586E1
7.798868542E0,3.475936752E1,-3.570809464E1,-3.254232788E-1,4.983359864E1
7.808808542E0,2.678170715E1,-3.315051315E1,1.963317261E0,4.266228985E1
7.818747542E0,1.958467346E1,-2.631093613E1,5.620512085E0,3.327784474E1
7.828687542E0,1.892334869E1,-1.680106201E1,1.022164398E1,2.729195516E1
7.838627542E0,2.017729111E1,-1.123563538E1,1.075154205E1,2.547465869E1
7.848566542E0,1.974124786E1,-8.081544342E0,1.006162674E1,2.358526147E1
7.858506542E0,1.777748154E1,-6.585106201E0,8.612190857E0,2.082239911E1
7.868445542E0,1.576521606E1,-6.048172760E0,6.651717682E0,1.814849248E1
7.878385542E0,1.454181015E1,-6.240373077E0,4.140240326E0,1.635689728E1
7.888324542E0,1.322020844E1,-6.550827484E0,2.108964386E0,1.490419346E1
7.898264542E0,1.112785950E1,-6.643035736E0,1.131646729E0,1.300922000E1
7.908204542E0,8.752299500E0,-6.486760712E0,6.149212646E-1,1.091141325E1
7.918143542E0,5.901178436E0,-5.708079987E0,3.704795837E-1,8.218475479E0
7.928083542E0,3.326233063E0,-4.678371277E0,3.643423462E-1,5.751845750E0
7.938022542E0,1.498833160E0,-3.885470123E0,1.945953369E-1,4.169082185E0
7.947962542E0,-1.103205872E-1,-3.210373993E0,-3.433859253E-1,3.230570491E0
7.957901542E0,-1.705253906E0,-2.775228882E0,-6.092330933E-1,3.313751830E0
7.967841542E0,-2.971620483E0,-2.120340729E0,-4.575984192E-1,3.679098995E0
7.977780542E0,-4.280348969E0,-1.370250549E0,-2.630030823E-1,4.502015602E0
7.987720542E0,-5.695206757E0,-8.928932190E-1,-1.197509766E-2,5.764788088E0
7.997660542E0,-6.761589203E0,-7.138655090E-1,3.608995056E-1,6.808740043E0
8.007599542E0,-7.073690186E0,-8.086184692E-1,6.837780762E-1,7.152517678E0
8.017539542E0,-7.205266571E0,-1.394350433E0,1.015937347E0,7.408927600E0
8.027478542E0,-7.121889954E0,-2.270777893E0,1.481768646E0,7.620589680E0
8.037418542E0,-5.775739288E0,-2.886896667E0,1.697769470E0,6.676507910E0
8.047357542E0,-3.914958801E0,-3.042423248E0,1.187181244E0,5.098297848E0
8.057297542E0,-2.094594269E0,-2.830913086E0,7.866142273E-1,3.608345326E0
8.067237542E0,-5.905220032E-1,-2.486928406E0,6.890171814E-1,2.647314452E0
8.077176542E0,4.758604431E-1,-1.967059479E0,6.571334839E-1,2.127813566E0
8.087116542E0,1.124761047E0,-1.337319031E0,4.456233215E-1,1.803355137E0
8.097055542E0,1.399888916E0,-7.753875732E-1,1.411564636E-1,1.606499304E0
8.106995542E0,1.405427399E0,-3.447331238E-1,-1.083746338E-1,1.451141675E0
8.116934542E0,1.157692566E0,-6.496490479E-2,-3.022215271E-1,1.198253048E0
8.126874542E0,8.322692871E-1,1.857637024E-1,-3.873944092E-1,9.366187846E-1
8.136813542E0,6.670129395E-1,4.257147217E-1,-4.550537109E-1,9.128051082E-1
8.146753542E0,6.417155457E-1,5.533992004E-1,-6.020480347E-1,1.039476480E0
8.156693542E0,7.342231750E-1,5.972579956E-1,-6.233038330E-1,1.133273335E0
8.166632542E0,1.808539124E0,8.798703003E-1,3.808679810E0,4.307090363E0
8.176572542E0,4.121229858E0,1.023272095E0,1.240350677E1,1.311024796E1
8.186511542E0,3.730392609E0,-8.502319336E-2,5.779481506E0,6.879350583E0
8.196451542E0,2.431094513E0,-1.081201630E0,-1.054107971E0,2.861880695E0
8.206390542E0,2.905458069E0,-1.955982513E0,-6.360273743E-1,3.559787213E0
8.216330542E0,6.177054749E0,-3.968397675E0,5.973927155E0,9.465304597E0
8.226270542E0,1.074031540E1,-7.394772491E0,1.001507355E1,1.644198082E1
8.236209542E0,1.575967758E1,-1.269779480E1,7.731721802E0,2.166520141E1
8.246149542E0,1.832848572E1,-1.617895569E1,6.198609924E0,2.522131561E1
8.256088542E0,2.201367233E1,-1.957075241E1,4.939727783E-3,2.945532454E1
8.266028542E0,2.937222015E1,-2.552192688E1,-3.961511993E0,3.911252543E1
8.275967542E0,3.665188202E1,-3.393188828E1,-3.634891205E0,5.007939628E1
8.285907542E0,3.533237595E1,-3.737951889E1,-4.373904419E-1,5.143730682E1
8.295847542E0,2.605781250E1,-3.512475769E1,2.188149719E0,4.378979555E1
8.305786542E0,1.780442551E1,-2.973551468E1,1.719324646E0,3.470092907E1
8.315726542E0,1.517993317E1,-2.216919891E1,2.296075287E0,2.696619575E1
8.325665542E0,1.628867752E1,-1.577060486E1,4.425547028E0,2.310018310E1
8.335605542E0,1.664793045E1,-1.207314377E1,6.894213409E0,2.168973414E1
8.345544542E0,1.573378143E1,-9.603878632E0,8.535550232E0,2.031359103E1
8.355484542E0,1.488579483E1,-7.975115662E0,9.433832245E0,1.934390210E1
8.365423542E0,1.460228439E1,-6.947652283E0,9.024882660E0,1.851877665E1
8.375363542E0,1.393197830E1,-6.212381287E0,7.073839874E0,1.681466358E1
8.385303542E0,1.247700394E1,-5.776487732E0,4.724924469E0,1.453851261E1
8.395242542E0,1.069660629E1,-5.286556549E0,2.689157867E0,1.223097038E1
8.405182542E0,8.585695953E0,-4.752317505E0,1.492845612E0,9.926091108E0
8.415121542E0,6.163732452E0,-4.296515350E0,7.743397522E-1,7.553227387E0
8.425061542E0,3.798051910E0,-3.713777161E0,1.061293030E-1,5.313059622E0
8.435000542E0,1.635948029E0,-3.305426331E0,-3.311114502E-1,3.702945310E0
8.444940542E0,-3.103047180E-1,-3.140319672E0,-5.463638306E-1,3.202563051E0
8.454880542E0,-2.053280182E0,-2.714754639E0,-7.644602966E-1,3.488588798E0
8.464819542E0,-3.789669342E0,-2.342179413E0,-1.163380737E0,4.604438387E0
8.474759542E0,-5.178181915E0,-1.963916016E0,-1.357227631E0,5.701982191E0
8.484698542E0,-6.131998444E0,-1.641336823E0,-1.029109955E0,6.430743252E0
8.494638542E0,-6.623127136E0,-1.357826385E0,-1.612147522E-1,6.762802359E0
8.504577542E0,-6.846762085E0,-1.257385254E0,1.156045990E0,7.056600531E0
8.514517542E0,-6.995402985E0,-1.576072540E0,2.222877502E0,7.507386493E0
8.524456542E0,-6.261329498E0,-2.140698395E0,2.519710236E0,7.080662142E0
8.534396542E0,-4.420158234E0,-2.353855133E0,1.879790955E0,5.349022979E0
8.544336542E0,-2.588417358E0,-2.122286682E0,7.463479614E-1,3.429437339E0
8.554275542E0,-1.088985443E0,-1.824555817E0,1.815724182E-1,2.132571632E0
8.564215542E0,-1.682501221E-1,-1.526076508E0,3.230282593E-1,1.568937496E0
8.574154542E0,3.192860413E-1,-9.129515076E-1,1.001417542E0,1.392214468E0
8.584094542E0,7.704478455E-1,-3.502716064E-2,1.915267181E0,2.064719148E0
8.594033542E0,1.071920929E0,6.047424316E-1,2.002685394E0,2.350633250E0
8.603973542E0,9.244775391E-1,7.966433716E-1,1.132245483E0,1.664715957E0
8.613913542E0,5.348377991E-1,7.381150818E-1,1.389111328E-1,9.220421076E-1
8.623852542E0,3.552113342E-1,7.517367554E-1,-3.733236694E-1,9.114021086E-1
8.633792542E0,3.388952637E-1,9.304650879E-1,-5.972579956E-1,1.156430885E0
8.643731542E0,2.591111755E-1,1.054557037E0,-8.487350464E-1,1.378252635E0
8.653671542E0,2.730322266E-1,9.532177734E-1,-9.865983582E-1,1.398766257E0
8.663610542E0,2.667453003E-1,2.682421875E-1,-6.475534058E-1,7.499548918E-1
8.673550542E0,4.956193542E-1,-1.165177002E0,3.655248871E0,3.868348523E0
8.683489542E0,1.866468658E0,-3.645070038E0,1.073298065E1,1.148769405E1
8.693429542E0,2.523452454E0,-3.950734406E0,5.034331055E0,6.878997296E0
8.703369542E0,3.813020782E0,-4.137396240E0,2.437980194E0,6.131959113E0
8.713308542E0,7.054829407E0,-6.301895142E0,5.211712189E0,1.080029834E1
8.723248542E0,1.121827148E1,-1.003423370E1,8.863667908E0,1.746711395E1
8.733187542E0,1.410726379E1,-1.301229080E1,5.638923798E0,2.000330136E1
8.743127542E0,1.745804581E1,-1.722992020E1,4.808450775E0,2.499549384E1
8.753066542E0,2.303544754E1,-2.252276367E1,1.055904236E0,3.223385892E1
8.763006542E0,2.823668152E1,-2.575469284E1,-3.400328979E0,3.836895390E1
8.772946542E0,3.364613251E1,-3.086162292E1,-3.921245728E0,4.582442766E1
8.782885542E0,3.605806686E1,-3.640998505E1,-1.457818451E0,5.126398767E1
8.792825542E0,3.132086792E1,-3.752651321E1,3.567082214E0,4.900979531E1
8.802764542E0,2.441542786E1,-3.200509506E1,5.942642212E0,4.069095998E1
8.812704542E0,2.018163208E1,-2.096210907E1,9.156309357E0,3.050485684E1
8.822643542E0,1.910387329E1,-1.295061905E1,1.211879883E1,2.606802243E1
8.832583542E0,1.743409561E1,-8.499026184E0,1.232581833E1,2.298057731E1
8.842522542E0,1.469658829E1,-6.433471527E0,1.028735733E1,1.905804250E1
8.852462542E0,1.255274643E1,-5.989345093E0,7.481442261E0,1.579289954E1
8.862402542E0,1.152258865E1,-5.995033264E0,4.602778473E0,1.378027731E1
8.872341542E0,1.171538773E1,-6.326144714E0,2.251168671E0,1.350326542E1
8.882281542E0,1.078447357E1,-6.316414948E0,5.343887329E-1,1.250949796E1
8.892220542E0,9.064550171E0,-6.009403381E0,-5.766009521E-1,1.089088920E1
8.902160542E0,7.123985596E0,-5.351820831E0,-1.180295563E0,8.988117411E0
8.912099542E0,5.187462616E0,-4.499343567E0,-1.238225098E0,6.977611505E0
8.922039542E0,3.502716064E0,-3.565435638E0,-8.756790161E-1,5.074264958E0
8.931979542E0,1.754202118E0,-2.799777832E0,-6.119274902E-1,3.360124437E0
8.941918542E0,-1.990859985E-2,-2.062111816E0,-5.483097839E-1,2.133856864E0
8.951858542E0,-1.736688538E0,-1.381028137E0,-6.954537964E-1,2.325291761E0
8.961797542E0,-3.201991425E0,-7.765850830E-1,-9.376501465E-1,3.425641731E0
8.971737542E0,-4.205504608E0,-4.010160828E-1,-7.283853149E-1,4.286913584E0
8.981676542E0,-4.554129639E0,-2.007325745E-1,-4.345463562E-1,4.579216185E0
8.991616542E0,-4.714745636E0,-2.177970886E-1,-2.817141724E-1,4.728173522E0
9.001555542E0,-5.001249847E0,-4.432283020E-1,9.400451660E-2,5.021731595E0
9.011495542E0,-5.304818573E0,-7.872129822E-1,7.388635254E-1,5.413568479E0
9.021435542E0,-5.395380249E0,-1.152603149E0,1.158441010E0,5.637429168E0
9.031374542E0,-4.885091400E0,-1.518741760E0,1.001716919E0,5.212881287E0
9.041314542E0,-3.451372833E0,-1.569486237E0,5.921685791E-1,3.837437310E0
9.051253542E0,-2.142644348E0,-1.440903625E0,5.140310669E-1,2.632746854E0
9.061193542E0,-1.360820160E0,-1.287173309E0,5.954617310E-1,1.965507901E0
9.071132542E0,-8.973838806E-1,-9.943821716E-1,8.339158630E-1,1.577817923E0
9.081072542E0,-6.655160522E-1,-4.969665527E-1,1.100810852E0,1.379011205E0
9.091011542E0,-4.839436340E-1,1.100212097E-1,1.210083618E0,1.307902317E0
9.100951542E0,-2.680924988E-1,6.126759338E-1,1.118324432E0,1.303032971E0
9.110891542E0,-1.170565796E-1,1.001118164E0,9.719288635E-1,1.400209105E0
9.120830542E0,6.242019653E-2,1.324894867E0,9.708810425E-1,1.643731331E0
9.130770542E0,3.617976379E-1,1.540746002E0,1.135388947E0,1.947794608E0
9.140709542E0,8.199948120E-1,1.563498688E0,1.601819000E0,2.383850614E0
9.150649542E0,1.489851837E0,1.006806335E0,2.603086853E0,3.163760209E0
9.160588542E0,1.329834595E0,-7.735913086E-1,3.348386993E0,3.684915063E0
9.170528542E0,7.485932922E-1,-2.036515045E0,2.402204590E0,3.237031408E0
9.180468542E0,5.098397827E-1,-2.239043884E0,-2.850073242E-1,2.313975647E0
9.190407542E0,1.243913269E0,-3.028651886E0,1.681752777E0,3.680807638E0
9.200347542E0,4.596790924E0,-5.716462555E0,1.013527359E1,1.251128298E1
9.210286542E0,7.854466553E0,-8.110134888E0,6.553222504E0,1.305418163E1
9.220226542E0,8.692424011E0,-9.508676605E0,-4.248165894E-1,1.289005955E1
9.230165542E0,1.142095001E1,-1.265558258E1,1.414558411E-1,1.704763560E1
9.240105542E0,1.987432114E1,-2.068832840E1,6.214476929E0,2.935328425E1
9.250045542E0,2.865670807E1,-2.900563248E1,7.829169159E0,4.151902603E1
9.259984542E0,3.494647842E1,-3.483675659E1,1.540296936E0,4.936829427E1
9.269924542E0,3.916066498E1,-3.904061462E1,9.812095642E-1,5.530542509E1
9.279863542E0,3.380375473E1,-3.623769333E1,2.668650513E0,4.962847920E1
9.289803542E0,2.739617935E1,-2.866643784E1,1.170266418E0,3.966969655E1
9.299742542E0,2.467723343E1,-1.967598358E1,-3.981719971E-1,3.156372476E1
9.309682542E0,2.414973038E1,-1.395188690E1,3.203338623E-1,2.789206409E1
9.319621542E0,2.105506577E1,-1.022568558E1,1.636696472E0,2.346399828E1
9.329561542E0,1.711001953E1,-8.378676453E0,2.474653931E0,1.921142628E1
9.339501542E0,1.357706635E1,-7.224426727E0,3.009342041E0,1.567115859E1
9.349440542E0,1.075184143E1,-6.527625732E0,3.513493652E0,1.305973313E1
9.359380542E0,9.464967499E0,-6.038742371E0,3.774700470E0,1.184484626E1
9.369319542E0,9.209448853E0,-6.148613892E0,3.592080231E0,1.164141062E1
9.379259542E0,9.294022980E0,-6.396498413E0,3.565585327E0,1.183247454E1
9.389198542E0,8.891510010E0,-5.994434509E0,3.500620422E0,1.128036075E1
9.399138542E0,7.709867249E0,-5.083279266E0,3.049757996E0,9.725369141E0
9.409077542E0,5.689368896E0,-4.273313599E0,2.172881470E0,7.439861654E0
9.419017542E0,3.382516022E0,-3.736230469E0,1.279389496E0,5.199775979E0
9.428957542E0,1.362616425E0,-3.029550018E0,7.484436035E-1,3.405152663E0
9.438896542E0,-2.094145203E-1,-2.363584900E0,4.767585754E-1,2.420265845E0
9.448836542E0,-1.686243439E0,-1.549427948E0,4.885839844E-1,2.341550386E0
9.458775542E0,-3.217559052E0,-7.723937988E-1,4.974156189E-1,3.346147147E0
9.468715542E0,-4.552483063E0,-2.845582581E-1,6.394702148E-1,4.605974120E0
9.478654542E0,-5.534141693E0,-6.346801758E-2,1.146465912E0,5.652002880E0
9.488594542E0,-6.005212097E0,-3.254232788E-1,1.808539124E0,6.280070573E0
9.498534542E0,-6.238876190E0,-1.094972992E0,2.321372681E0,6.746207312E0
9.508473542E0,-6.262676697E0,-1.989363098E0,2.780767365E0,7.135219133E0
9.518413542E0,-4.953050079E0,-2.710114288E0,2.744991760E0,6.277929938E0
9.528352542E0,-3.258723450E0,-3.065924377E0,1.970502319E0,4.888972305E0
9.538292542E0,-1.734592896E0,-3.075055389E0,5.697152710E-1,3.576220582E0
9.548231792E0,-3.140469360E-1,-2.702330475E0,-7.545808411E-1,2.823226473E0
9.558171792E0,3.573069763E-1,-2.274071045E0,-1.458267517E0,2.724997531E0
9.568110792E0,1.785786438E-1,-1.891316986E0,-1.575473785E0,2.468012950E0
9.578050792E0,-2.531236267E-1,-1.421743469E0,-1.324296112E0,1.959384152E0
9.587990792E0,-5.716612244E-1,-8.788224792E-1,-6.743476868E-1,1.246543344E0
9.597929792E0,-6.741979980E-1,-2.633024597E-1,5.613327026E-2,7.259628571E-1
9.607869792E0,-5.177732849E-1,2.236349487E-1,2.951861572E-1,6.365819918E-1
9.617808792E0,-3.179388428E-1,5.191204834E-1,1.610650635E-1,6.296928924E-1
9.627748792E0,-2.927911377E-1,6.251000977E-1,-5.927673340E-2,6.928134767E-1
9.637687792E0,-2.891986084E-1,5.712121582E-1,-2.098635864E-1,6.737669402E-1
9.647627792E0,-2.664459229E-2,5.448669434E-1,2.880010986E-1,6.168748277E-1
9.657567792E0,8.283773804E-1,-8.487350464E-2,3.151246948E0,3.259412512E0
9.667506792E0,1.639839935E0,-2.011666718E0,6.204447784E0,6.725403356E0
9.677446792E0,2.638114014E0,-3.334316254E0,5.466183014E0,6.925060806E0
9.687385792E0,3.383114777E0,-3.734883270E0,1.604363708E0,5.288553823E0
9.697325792E0,4.504283295E0,-4.477039948E0,-7.705975342E-1,6.397364711E0
9.707264792E0,6.953789520E0,-6.406826935E0,2.561174011E-1,9.458763988E0
9.717204792E0,1.235276230E1,-1.047237259E1,8.819210358E0,1.844016799E1
9.727143792E0,1.737077728E1,-1.426084442E1,8.612639923E0,2.406850958E1
9.737083792E0,1.940878922E1,-1.602926697E1,5.316943359E-1,2.517779175E1
9.747023792E0,2.332898712E1,-1.928858917E1,-1.004710693E0,3.028697337E1
9.756962792E0,2.940051132E1,-2.352747437E1,-2.193538513E0,3.771927527E1
9.766902792E0,3.530079163E1,-2.879502045E1,4.415817261E-2,4.555547214E1
9.776841792E0,3.885604843E1,-3.357413223E1,4.619393921E0,5.155922473E1
9.786781792E0,3.758474213E1,-3.421120743E1,8.516988831E0,5.153211283E1
9.796720792E0,2.971380981E1,-2.665656738E1,9.552984467E0,4.104561597E1
9.806660792E0,2.340547806E1,-1.615425705E1,8.119565277E0,2.957539119E1
9.816600792E0,1.988479935E1,-1.079135925E1,7.157665558E0,2.372953552E1
9.826539792E0,1.577285019E1,-7.549101563E0,6.012846222E0,1.849124272E1
9.836479792E0,1.258852203E1,-6.540049896E0,4.266577606E0,1.481373768E1
9.846418792E0,1.215083221E1,-7.657176819E0,2.446811829E0,1.456921304E1
9.856358792E0,1.309581711E1,-8.616382141E0,1.227148132E0,1.572413303E1
9.866297792E0,1.266067200E1,-8.586893463E0,5.478607178E-2,1.529805073E1
9.876237792E0,1.122036713E1,-7.962990875E0,-3.653901672E-1,1.376369762E1
9.886176792E0,9.529333649E0,-7.075336761E0,4.351451111E-1,1.187678161E1
9.896116792E0,7.552394714E0,-5.810018005E0,1.032103729E0,9.584373389E0
9.906056792E0,5.318889313E0,-4.404889984E0,1.093326416E0,6.992067072E0
9.915995792E0,3.222049713E0,-3.193159790E0,7.845185852E-1,4.603622835E0
9.925935792E0,9.961784363E-1,-2.291434937E0,1.939965820E-1,2.506128532E0
9.935874792E0,-9.821076965E-1,-1.740730133E0,-2.598596191E-1,2.015490994E0
9.945814792E0,-2.581831055E0,-1.313967590E0,-1.508862305E-1,2.900884189E0
9.955753792E0,-4.094136200E0,-7.400610352E-1,2.671943665E-1,4.169056774E0
9.965693792E0,-5.567821655E0,-4.086502075E-1,9.593550110E-1,5.664626644E0
9.975633792E0,-6.664740601E0,-4.927752686E-1,1.789528656E0,6.918381859E0
9.985572792E0,-7.533983002E0,-1.226250000E0,2.472857666E0,8.023690795E0
9.995512792E0,-8.651109924E0,-2.609673157E0,3.463497620E0,9.677185162E0
1.000545179E1,-8.724607086E0,-4.112847290E0,4.220024414E0,1.052819489E1
1.001539179E1,-6.722670135E0,-5.028942261E0,3.984713745E0,9.293142506E0
1.002533079E1,-4.124523010E0,-4.751419373E0,2.748284912E0,6.865911889E0
1.003527079E1,-1.958227844E0,-3.635639648E0,1.088237000E0,4.270455679E0
1.004520979E1,-5.153782654E-1,-2.341730347E0,-3.697311401E-1,2.426111475E0
1.005514979E1,4.026626587E-2,-1.738185425E0,-9.717791748E-1,1.991799364E0
1.006508979E1,3.194357300E-1,-1.249002686E0,-1.112336884E0,1.702744912E0
1.007502879E1,4.957690430E-1,-8.717871094E-1,-1.175206146E0,1.544962522E0
1.008496879E1,5.818400574E-1,-5.231620789E-1,-1.224902802E0,1.453486597E0
1.009490779E1,7.179071045E-1,-6.795867920E-2,-1.233734436E0,1.429024021E0
1.010484779E1,8.952882385E-1,4.123924255E-1,-1.046623535E0,1.437716720E0
1.011478679E1,9.240284729E-1,7.990383911E-1,-1.085542603E0,1.634225722E0
1.012472679E1,6.810836792E-1,9.668394470E-1,-1.329984283E0,1.779750457E0
1.013466679E1,5.263055420E-1,9.865983582E-1,-1.514251099E0,1.882373564E0
1.014460579E1,6.340814209E-1,6.915618896E-1,-1.363065491E0,1.654770264E0
1.015454579E1,8.488847351E-1,5.987548828E-2,-8.872050476E-1,1.229358843E0
1.016448479E1,9.885443115E-1,-7.206015015E-1,3.520678711E-1,1.272964322E0
1.017442479E1,1.401236115E0,-2.139800262E0,4.523892517E0,5.196904013E0
1.018436379E1,2.330952759E0,-3.063679047E0,5.298531647E0,6.549344065E0
1.019430379E1,4.138294373E0,-3.640579376E0,2.337239685E0,5.986817840E0
1.020424279E1,8.304879913E0,-5.653892670E0,7.025939484E0,1.225974544E1
1.021418279E1,1.220127731E1,-7.489076385E0,1.590128311E1,2.139645386E1
1.022412279E1,1.287742126E1,-8.605155487E0,8.197553101E0,1.752359998E1
1.023406179E1,1.184067719E1,-8.756191406E0,-4.104315033E0,1.528783588E1
1.024400179E1,1.597642685E1,-1.158560760E1,-3.315455475E0,2.001161571E1
1.025394079E1,2.289144699E1,-1.660946045E1,-1.417402496E0,2.831786630E1
1.026388079E1,2.790527069E1,-2.130354904E1,-4.445755005E-1,3.511043978E1
1.027381979E1,3.327969452E1,-2.710488510E1,4.079017639E-1,4.292294547E1
1.028375979E1,3.706502289E1,-3.126443527E1,5.046006775E-1,4.849263301E1
1.029369879E1,3.503060349E1,-3.196408035E1,2.536325684E0,4.748977323E1
1.030363879E1,2.882106628E1,-2.980541931E1,6.831643524E0,4.202009323E1
1.031357879E1,2.263532959E1,-2.265748352E1,7.781867523E0,3.295871914E1
1.032351779E1,2.064716400E1,-1.661260391E1,6.229745178E0,2.722303648E1
1.033345779E1,1.801892944E1,-1.304043228E1,6.549779663E0,2.318694258E1
1.034339679E1,1.471574844E1,-1.086575455E1,6.383774872E0,1.937447950E1
1.035333679E1,1.280721725E1,-1.006761429E1,5.438191223E0,1.717427131E1
1.036327579E1,1.247670456E1,-9.107959900E0,4.325704651E0,1.604165861E1
1.037321579E1,1.239901611E1,-7.832911377E0,3.097359009E0,1.498945409E1
1.038315579E1,1.180669785E1,-6.518794098E0,1.975891113E0,1.363073498E1
1.039309479E1,1.043854294E1,-5.278024292E0,1.099763031E0,1.174862536E1
1.040303479E1,8.303981781E0,-4.202061768E0,5.234614563E-1,9.321343702E0
1.041297379E1,6.044280853E0,-3.259621582E0,2.318678284E-1,6.871115381E0
1.042291379E1,4.110901337E0,-2.337838440E0,1.555265808E-1,4.731721345E0
1.043285279E1,2.344873810E0,-1.625020752E0,6.586303711E-2,2.853675449E0
1.044279279E1,7.372169495E-1,-1.203197937E0,-2.106120300E-1,1.426720552E0
1.045273179E1,-8.711883545E-1,-8.473878479E-1,-4.903802490E-1,1.310537333E0
1.046267179E1,-2.248174896E0,-3.778143311E-1,-6.480024719E-1,2.370008700E0
1.047261179E1,-3.389551392E0,-3.622467041E-2,-5.608836365E-1,3.435834879E0
1.048255079E1,-4.410129089E0,8.816665649E-2,4.206253052E-2,4.411210854E0
1.049249079E1,-5.323379974E0,-4.490661621E-2,1.051263885E0,5.426375099E0
1.050242979E1,-6.063740387E0,-5.649252319E-1,2.201921082E0,6.475843146E0
1.051236979E1,-6.843019867E0,-1.679956512E0,3.091521149E0,7.694587565E0
1.052230879E1,-6.811435547E0,-3.042722626E0,3.585942993E0,8.277246060E0
1.053224879E1,-5.595813446E0,-3.872746582E0,3.229534149E0,7.532674494E0
1.054218879E1,-4.023333435E0,-3.760180664E0,1.833686829E0,5.804186243E0
1.055212796E1,-2.137854309E0,-2.893033905E0,3.472778320E-1,3.613954637E0
1.056206796E1,-7.815248108E-1,-2.214494934E0,-6.270460510E-1,2.430628642E0
1.057200696E1,-1.865121460E-1,-1.844464417E0,-9.280700684E-1,2.073197968E0
1.058194696E1,9.789642334E-2,-1.317560120E0,-8.662486267E-1,1.579852861E0
1.059188596E1,2.532733154E-1,-7.020401001E-1,-7.526348877E-1,1.059937238E0
1.060182596E1,3.418890381E-1,-9.669891357E-2,-6.704557800E-1,7.587817520E-1
1.061176496E1,5.114863586E-1,4.355941772E-1,-5.764512634E-1,8.852438316E-1
1.062170496E1,5.870791626E-1,8.652008057E-1,-6.625222778E-1,1.237808606E0
1.063164496E1,5.755531311E-1,1.079555054E0,-9.080117798E-1,1.523543866E0
1.064158396E1,5.740562439E-1,1.180744629E0,-1.094972992E0,1.709580154E0
1.065152396E1,5.038522339E-1,1.178499298E0,-1.006207581E0,1.629472726E0
1.066146296E1,4.302053833E-1,8.228388977E-1,-5.598358154E-1,1.084230909E0
1.067140296E1,4.794529724E-1,1.960922241E-2,3.381468201E-1,5.870289143E-1
1.068134196E1,1.555265808E0,-1.395547943E0,7.160659332E0,7.459319531E0
1.069128196E1,2.504142609E0,-3.139720917E0,9.392518158E0,1.021508566E1
1.070122196E1,3.378624115E0,-3.797902222E0,1.535806274E0,5.310166015E0
1.071116096E1,4.128115540E0,-3.476520538E0,-1.220711517E0,5.533323556E0
1.072110096E1,5.865851898E0,-4.539609833E0,-2.085163879E-1,7.420226075E0
1.073103996E1,1.121258331E1,-8.297395477E0,9.837542725E0,1.706886180E1
1.074097996E1,1.552152283E1,-1.207958038E1,8.539292450E0,2.144186206E1
1.075091896E1,1.724039841E1,-1.387135437E1,-1.727108459E0,2.219524077E1
1.076085896E1,2.344559464E1,-1.958691879E1,1.193917236E0,3.057398786E1
1.077079796E1,2.893258438E1,-2.351265518E1,-8.190966797E-1,3.729088779E1
1.078073796E1,3.397694458E1,-2.787772797E1,-9.794132996E-1,4.396088864E1
1.079067796E1,3.665068451E1,-3.254187881E1,3.069816284E0,4.910876015E1
1.080061696E1,3.310770218E1,-3.238994476E1,6.789580994E0,4.681161048E1
1.081055696E1,2.756682449E1,-2.675087128E1,7.973618774E0,3.923158833E1
1.082049596E1,2.464594849E1,-1.839360031E1,7.391179962E0,3.162873457E1
1.083043596E1,2.240361145E1,-1.387359970E1,5.459447021E0,2.691104116E1
1.084037496E1,1.875554764E1,-1.136751114E1,4.632865906E0,2.241549293E1
1.085031496E1,1.560519882E1,-9.939630432E0,3.758683777E0,1.887978250E1
1.086025396E1,1.372944946E1,-9.342821503E0,2.968926086E0,1.687011020E1
1.087019396E1,1.301019516E1,-9.289532318E0,2.177821198E0,1.613392370E1
1.088013396E1,1.223510696E1,-9.065747681E0,1.530417480E0,1.530450264E1
1.089007296E1,1.073762100E1,-8.312813416E0,9.211843872E-1,1.361058237E1
1.090001296E1,8.888366547E0,-7.233408051E0,4.704716492E-1,1.146937642E1
1.090995196E1,6.956184540E0,-6.039939880E0,3.480262756E-1,9.219029200E0
1.091989196E1,5.049748993E0,-4.755460968E0,5.363346863E-1,6.957156661E0
1.092983096E1,3.456911316E0,-3.468137970E0,9.586065674E-1,4.989703736E0
1.093977096E1,2.000589752E0,-2.430495758E0,1.221310272E0,3.376576338E0
1.094971096E1,5.769003296E-1,-1.638193359E0,1.058299255E0,2.033835978E0
1.095964996E1,-9.659413147E-1,-1.018781433E0,5.438191223E-1,1.505555535E0
1.096958996E1,-2.357747040E0,-2.402503967E-1,4.715194702E-2,2.370424996E0
1.097952896E1,-3.444337463E0,3.418890381E-1,-8.622070312E-2,3.462337749E0
1.098946896E1,-4.166435852E0,7.219487000E-1,3.570075989E-1,4.243565960E0
1.099940796E1,-4.738695831E0,8.711883545E-1,1.142274628E0,4.951666250E0
1.100934796E1,-4.995112610E0,5.812413025E-1,1.981429596E0,5.405095252E0
1.101928696E1,-5.160967712E0,-5.426216125E-1,2.830164642E0,5.910994658E0
1.102922696E1,-4.902006226E0,-2.264341278E0,3.531755676E0,6.452147287E0
1.103916696E1,-4.000730438E0,-3.653602295E0,3.821403351E0,6.630066164E0
1.104910596E1,-3.199596405E0,-4.172124023E0,3.203787689E0,6.156970974E0
1.105904596E1,-2.165097656E0,-3.868106232E0,1.796414337E0,4.782990503E0
1.106898496E1,-9.448352051E-1,-2.981050873E0,2.186952209E-1,3.134837391E0
1.107892496E1,-2.118095398E-1,-2.166295166E0,-9.259744263E-1,2.365402009E0
1.108886396E1,2.604583740E-2,-1.690285034E0,-1.438059540E0,2.219404677E0
1.109880396E1,7.918533325E-2,-1.169068909E0,-1.557810516E0,1.949298857E0
1.110874296E1,9.041198730E-2,-6.625222778E-1,-1.384470978E0,1.537488206E0
1.111868296E1,1.453477478E-1,-1.683998108E-1,-1.102607117E0,1.124823061E0
1.112862296E1,2.429447937E-1,2.896476746E-1,-7.887098694E-1,8.746320405E-1
1.113856196E1,4.189787292E-1,5.930667114E-1,-6.348298645E-1,9.645103714E-1
1.114850196E1,5.833369446E-1,7.685018921E-1,-7.295828247E-1,1.209614917E0
1.115844096E1,6.966513062E-1,8.442443848E-1,-8.072712708E-1,1.360058281E0
1.116838096E1,9.755213928E-1,7.439529419E-1,-4.239184570E-1,1.298004170E0
1.117831996E1,1.495989075E0,9.265731812E-2,3.265908508E0,3.593428318E0
1.118825996E1,1.715432739E0,-1.764231262E0,9.067843323E0,9.395797143E0
1.119819896E1,2.324067078E0,-3.678600311E0,6.882837067E0,8.142900842E0
1.120813896E1,3.574866028E0,-4.202660522E0,6.408174133E-1,5.554517940E0
1.121807896E1,3.708837433E0,-3.747906189E0,-9.304650879E-1,5.354254494E0
1.122801796E1,5.854325867E0,-5.622458038E0,1.160686340E0,8.199534043E0
1.123795796E1,1.028870453E1,-1.016386414E1,1.007405090E1,1.762521139E1
1.124789696E1,1.376642258E1,-1.300076477E1,3.327729950E0,1.922519341E1
1.125783696E1,1.743289810E1,-1.550984711E1,9.868977356E-1,2.335455546E1
1.126777596E1,2.201232513E1,-1.942151276E1,1.589694214E0,2.939837994E1
1.127771596E1,2.996184402E1,-2.693304245E1,4.251758423E0,4.051145915E1
1.128765496E1,3.636717407E1,-3.237078461E1,6.268813934E0,4.908907286E1
1.129759496E1,3.757471298E1,-3.299214249E1,5.281467133E0,5.028155145E1
1.130753496E1,3.149181244E1,-2.873634247E1,4.371060333E0,4.285577905E1
1.131747396E1,2.458442642E1,-2.076122681E1,2.321372681E0,3.226160771E1
1.132741396E1,2.188179657E1,-1.524010803E1,-1.163081360E-1,2.666622286E1
1.133735296E1,1.986414230E1,-1.262759079E1,-1.224453735E-1,2.353837699E1
1.134729296E1,1.699610641E1,-1.104448288E1,5.539979553E-1,2.027696104E1
1.135723196E1,1.404978333E1,-1.017284546E1,1.016685791E0,1.737575455E1
1.136717196E1,1.206206680E1,-9.078471222E0,1.542691956E0,1.517537458E1
1.137711196E1,1.166928360E1,-8.201594696E0,1.881287842E0,1.438671537E1
1.138705096E1,1.184426971E1,-7.762108612E0,1.703906708E0,1.426325185E1
1.139699096E1,1.152887558E1,-7.627987518E0,1.404678955E0,1.389511744E1
1.140692996E1,1.045381119E1,-7.282655640E0,1.309476929E0,1.280757476E1
1.141686996E1,9.046138458E0,-6.445446625E0,1.404828644E0,1.119597904E1
1.142680896E1,7.138954468E0,-5.186414795E0,1.588197327E0,8.965820658E0
1.143674896E1,4.933740234E0,-3.982019348E0,1.654509430E0,6.552531743E0
1.144668796E1,3.101999359E0,-2.893632660E0,1.503323822E0,4.500610237E0
1.145662796E1,1.525926819E0,-1.920655975E0,1.193468170E0,2.727954968E0
1.146656796E1,-2.679428101E-2,-1.304686890E0,7.244934082E-1,1.492587187E0
1.147650696E1,-1.490749969E0,-8.419990540E-1,5.700146484E-1,1.804498428E0
1.148644696E1,-2.761906586E0,-3.162922668E-1,8.572673035E-1,2.909136644E0
1.149638596E1,-3.903432770E0,9.116043091E-2,1.523382111E0,4.191156245E0
1.150632596E1,-4.639302521E0,3.766168213E-1,2.414778442E0,5.243674574E0
1.151626496E1,-5.269641724E0,3.591032410E-1,3.689826965E0,6.443050680E0
1.152620496E1,-5.792953491E0,-3.531156921E-1,4.850213928E0,7.563568998E0
1.153614496E1,-5.307512970E0,-1.579964447E0,4.508923645E0,7.141174554E0
1.154608396E1,-4.190984802E0,-2.342029724E0,2.998115387E0,5.660225500E0
1.155602408E1,-3.475772095E0,-2.592009888E0,1.387165375E0,4.552332884E0
1.156596308E1,-2.460732880E0,-2.493963776E0,2.185455322E-2,3.503646563E0
1.157590308E1,-1.657503204E0,-2.235900421E0,-6.828799438E-1,2.865814471E0
1.158584208E1,-1.326840820E0,-2.013013916E0,-7.586224365E-1,2.527496704E0
1.159578208E1,-1.027613068E0,-1.643282776E0,-6.647676086E-1,2.048971174E0
1.160572108E1,-5.766009521E-1,-1.166224823E0,-6.068380737E-1,1.435549178E0
1.161566108E1,-1.260379028E-1,-7.283853149E-1,-7.360194397E-1,1.043146843E0
1.162560108E1,2.031275940E-1,-4.857398987E-1,-1.101259918E0,1.220646335E0
1.163554008E1,4.540058899E-1,-3.381468201E-1,-1.439556427E0,1.546863707E0
1.164548008E1,6.234535217E-1,-1.044827271E-1,-1.667232971E0,1.783052639E0
1.165541908E1,7.882608032E-1,1.344204712E-1,-1.855990448E0,2.020921696E0
1.166535908E1,1.061143341E0,2.371069336E-1,-1.979633331E0,2.258582081E0
1.167529808E1,1.284628601E0,1.484912109E-1,-1.899250488E0,2.297710317E0
1.168523808E1,1.317560120E0,-2.797682190E-1,-1.505269775E0,2.019918816E0
1.169517708E1,1.246008911E0,-1.034498749E0,-1.081201630E0,1.947234663E0
1.170511708E1,1.782493286E0,-2.405048676E0,2.725831604E0,4.048666371E0
1.171505708E1,3.560046844E0,-4.528532867E0,1.078058167E1,1.222303090E1
1.172499608E1,5.448819122E0,-5.171296234E0,7.270680542E0,1.045441199E1
1.173493608E1,9.672885132E0,-6.976991272E0,7.369924164E0,1.401994637E1
1.174487508E1,1.019784348E1,-8.301437073E0,6.531517639E0,1.468232242E1
1.175481508E1,1.159339142E1,-9.449250183E0,4.710704041E-1,1.496385515E1
1.176475408E1,1.470901245E1,-1.122006775E1,-3.358715515E0,1.880228543E1
1.177469408E1,2.331880829E1,-1.835902222E1,2.109862518E0,2.975352142E1
1.178463408E1,3.091461273E1,-2.604419083E1,6.876550140E0,4.100365957E1
1.179457308E1,3.409310303E1,-2.939691879E1,5.959557037E0,4.540963365E1
1.180451308E1,3.656985260E1,-3.148821991E1,6.111790466E0,4.864376728E1
1.181445208E1,3.306309494E1,-2.973970596E1,8.551566925E0,4.528518140E1
1.182439208E1,2.679293381E1,-2.214794312E1,6.114784241E0,3.529565515E1
1.183433108E1,2.367267242E1,-1.598630630E1,2.023791504E0,2.863656999E1
1.184427108E1,2.138677597E1,-1.353365662E1,1.041833496E0,2.533060333E1
1.185421008E1,1.901211411E1,-1.243374390E1,1.798060913E0,2.278796816E1
1.186415008E1,1.677845901E1,-1.297591644E1,1.681303711E0,2.127716797E1
1.187409008E1,1.528142212E1,-1.352617218E1,1.679208069E0,2.047679017E1
1.188402908E1,1.408750488E1,-1.302321808E1,1.937271423E0,1.928250563E1
1.189396908E1,1.252804779E1,-1.193602890E1,2.208058319E0,1.744409037E1
1.190390808E1,1.081830322E1,-1.055604858E1,2.318977661E0,1.529194244E1
1.191384808E1,9.058562622E0,-8.766669617E0,2.625091095E0,1.287645744E1
1.192378708E1,7.650141449E0,-6.734196167E0,2.906805267E0,1.059828189E1
1.193372708E1,6.648424530E0,-4.712051239E0,2.878065033E0,8.642235471E0
1.194366608E1,5.413791962E0,-3.131038971E0,2.749482422E0,6.831705646E0
1.195360608E1,3.849395142E0,-2.149679718E0,2.275567932E0,4.961569838E0
1.196354608E1,2.079176331E0,-1.694326630E0,1.392404480E0,3.022003835E0
1.197348508E1,2.354603577E-1,-1.303788757E0,3.393443298E-1,1.367648083E0
1.198342508E1,-1.626817017E0,-8.289761353E-1,-4.766088867E-1,1.887032345E0
1.199336408E1,-3.239413605E0,-1.901046753E-1,-7.197033691E-1,3.323840133E0
1.200330408E1,-4.621190186E0,5.875282288E-1,-1.413061523E-1,4.660531684E0
1.201324308E1,-6.111790466E0,1.018931122E0,1.543739777E0,6.385556815E0
1.202318308E1,-7.127428436E0,5.243595886E-1,3.404819641E0,7.916311381E0
1.203312208E1,-7.425907745E0,-8.963360596E-1,4.659360809E0,8.812330414E0
1.204306208E1,-6.162834320E0,-3.112926636E0,5.771398315E0,8.998882020E0
1.205300208E1,-3.877686310E0,-4.880451050E0,6.519392853E0,9.019852368E0
1.206294108E1,-2.159708862E0,-5.390141144E0,5.301525421E0,7.862832550E0
1.207288108E1,-1.076112213E0,-4.669389954E0,2.512824554E0,5.410684548E0
1.208282008E1,-4.376898193E-1,-3.127745819E0,-1.552272034E-1,3.162034436E0
1.209276008E1,1.252894592E-1,-1.888023834E0,-2.020049286E0,2.767838609E0
1.210269908E1,5.445675659E-1,-1.323098602E0,-2.787503357E0,3.133260077E0
1.211263908E1,5.815406799E-1,-8.496331787E-1,-2.805316315E0,2.988288093E0
1.212257808E1,4.043092346E-1,-3.478765869E-1,-2.743794250E0,2.795154909E0
1.213251808E1,2.716850281E-1,7.723937988E-2,-2.650837555E0,2.665842910E0
1.214245808E1,2.059716797E-1,4.058061218E-1,-2.473905487E0,2.515414737E0
1.215239708E1,1.809736633E-1,6.191125488E-1,-2.090702362E0,2.187941540E0
1.216233708E1,1.944456482E-1,7.619155884E-1,-1.641935577E0,1.820515563E0
1.217227608E1,9.145980835E-2,8.602610779E-1,-1.188378754E0,1.469917712E0
1.218221608E1,-6.032455444E-2,8.545729065E-1,-7.619155884E-1,1.146494338E0
1.219215508E1,-1.827699280E-1,8.074209595E-1,-4.391867065E-1,9.371330832E-1
1.220209508E1,-1.953437805E-1,5.541476440E-1,-2.261796570E-1,6.295999057E-1
1.221203508E1,1.431024170E-1,-1.434017944E-1,2.633024597E-1,3.322206521E-1
1.222197408E1,9.961784363E-1,-1.596579895E0,8.231981506E0,8.444344756E0
1.223191408E1,2.228415985E0,-3.165916443E0,9.002129974E0,9.799347366E0
1.224185308E1,5.342839508E0,-5.286556549E0,4.932243347E0,8.990029955E0
1.225179308E1,7.333849182E0,-7.177424469E0,5.922583923E0,1.184811235E1
1.226173208E1,1.036594391E1,-1.015623001E1,1.233435059E1,1.904568207E1
1.227167208E1,1.375833939E1,-1.171703430E1,4.010759583E0,1.851126651E1
1.228161108E1,1.858235779E1,-1.415516418E1,-2.851570129E-1,2.336137857E1
1.229155108E1,2.266661453E1,-1.632789597E1,-9.141490173E-1,2.795015688E1
1.230149108E1,2.664294571E1,-1.880748962E1,-2.620750122E0,3.271752670E1
1.231143008E1,3.083901993E1,-2.363809433E1,-2.660717010E0,3.894719590E1
1.232137008E1,3.220477982E1,-2.852752670E1,9.497749329E-1,4.303335561E1
1.233130908E1,3.119767410E1,-2.987098297E1,3.845203857E0,4.336307284E1
1.234124908E1,2.804822342E1,-2.742042892E1,5.476062469E0,3.960517668E1
1.235118808E1,2.447171082E1,-2.143737076E1,6.969806213E0,3.327166503E1
1.236112808E1,2.207579315E1,-1.461860046E1,6.392456818E0,2.723798133E1
1.237106708E1,2.012549881E1,-1.160686340E1,6.572831726E0,2.414450449E1
1.238100708E1,1.747256561E1,-1.014739838E1,6.717131653E0,2.129272412E1
1.239094708E1,1.598840195E1,-9.569899292E0,6.747817841E0,1.981779541E1
1.240088608E1,1.652877823E1,-9.947264557E0,5.265151062E0,1.999675968E1
1.241082608E1,1.659284500E1,-9.818083191E0,3.168461151E0,1.953858769E1
1.242076508E1,1.494881378E1,-8.868457947E0,1.635798340E0,1.745830507E1
1.243070508E1,1.280976196E1,-7.970325623E0,6.382727051E-1,1.510044649E1
1.244064408E1,1.011970596E1,-6.859635315E0,-4.400848389E-2,1.222558719E1
1.245058408E1,7.386689301E0,-5.732778625E0,-1.425036621E-1,9.351376203E0
1.246052308E1,4.947661285E0,-4.619543610E0,2.588117981E-1,6.773958880E0
1.247046308E1,2.747835846E0,-3.590882721E0,5.144801331E-1,4.550794476E0
1.248040308E1,9.442364502E-1,-2.856060791E0,3.815565491E-1,3.032202354E0
1.249034208E1,-3.329077148E-1,-2.362237701E0,1.938468933E-1,2.393443361E0
1.250028208E1,-1.319206696E0,-2.015408936E0,-8.816665649E-2,2.410384376E0
1.251022108E1,-2.223476257E0,-1.573228455E0,-5.752537537E-1,2.783848293E0
1.252016108E1,-3.239712982E0,-1.003513184E0,-8.463400269E-1,3.495578687E0
1.253010008E1,-4.194128265E0,-3.965254211E-1,-4.839436340E-1,4.240536022E0
1.254004008E1,-5.000800781E0,9.280700684E-2,7.551795959E-1,5.058351294E0
1.254998008E1,-5.714666290E0,2.207908630E-1,3.057841187E0,6.485102323E0
1.255991879E1,-6.749314728E0,-7.617658997E-1,5.343438263E0,8.642098648E0
1.256985879E1,-6.091283112E0,-2.546803894E0,5.300327911E0,8.466605931E0
1.257979779E1,-4.229305115E0,-3.175197144E0,3.107238464E0,6.133826663E0
1.258973779E1,-2.644999695E0,-2.808908844E0,8.488847351E-1,3.950518646E0
1.259967679E1,-1.478176117E0,-2.183359680E0,-4.432283020E-1,2.673670783E0
1.260961679E1,-7.381150818E-1,-1.688189392E0,-7.551795959E-1,1.991254258E0
1.261955579E1,-3.962260437E-1,-1.090781708E0,-3.855981445E-1,1.222900544E0
1.262949579E1,-7.604187012E-2,-2.841091919E-1,-1.872605896E-1,3.486644911E-1
1.263943579E1,1.812730408E-1,3.141966248E-1,-7.099736023E-1,7.972715662E-1
1.264937479E1,2.487826538E-1,6.334826660E-1,-1.381177826E0,1.539754943E0
1.265931479E1,2.154020691E-1,7.667056274E-1,-1.828298035E0,1.994218963E0
1.266925379E1,2.056723022E-1,8.327183533E-1,-1.943558350E0,2.124415216E0
1.267919379E1,2.893482971E-1,8.400531006E-1,-1.874551849E0,2.074453250E0
1.268913279E1,4.216731262E-1,8.837622070E-1,-1.858385468E0,2.100580970E0
1.269907279E1,5.965095520E-1,7.993377686E-1,-1.621877289E0,1.904009048E0
1.270901179E1,5.252577209E-1,4.254153442E-1,-1.217118988E0,1.392211377E0
1.271895179E1,1.736389160E-1,-2.064207458E-1,-9.309141541E-1,9.692064588E-1
1.272889179E1,-6.152206421E-2,-8.478369141E-1,-7.021897888E-1,1.102580109E0
1.273883079E1,3.637435913E-2,-1.531165924E0,-2.865042114E-1,1.558164575E0
1.274877079E1,6.971003723E-1,-3.250939636E0,4.494703217E0,5.590788357E0
1.275870979E1,2.830314331E0,-4.196672974E0,6.797065430E0,8.474835793E0
1.276864979E1,6.623426514E0,-5.535189514E0,9.345815277E0,1.272212109E1
1.277858879E1,1.192959229E1,-9.401948547E0,1.418076096E1,2.077993720E1
1.278852879E1,9.129664764E0,-9.119635620E0,-3.891906738E-3,1.290420659E1
1.279846779E1,1.135987701E1,-1.084988754E1,-3.853736115E0,1.617461429E1
1.280840779E1,1.909129944E1,-1.692395645E1,1.215472412E0,2.554164030E1
1.281834779E1,3.019730438E1,-2.550366486E1,4.610262909E0,3.979407792E1
1.282828679E1,3.725078659E1,-3.078917358E1,2.643353119E0,4.840022342E1
1.283822679E1,3.687761261E1,-3.389880707E1,5.262157288E0,5.036643457E1
1.284816579E1,3.328762802E1,-3.281536011E1,5.553601227E0,4.707182305E1
1.285810579E1,2.803115891E1,-2.688484268E1,4.149670715E0,3.906098312E1
1.286804479E1,2.598401596E1,-1.878443756E1,2.895428925E0,3.219328639E1
1.287798479E1,2.429358124E1,-1.394904282E1,1.256487122E0,2.804162343E1
1.288792479E1,2.076377151E1,-1.109507767E1,6.840774536E-1,2.355213192E1
1.289786379E1,1.717438568E1,-9.635313263E0,1.254990234E0,1.973255649E1
1.290780379E1,1.513547562E1,-8.866212616E0,1.595681763E0,1.761358988E1
1.291774279E1,1.519265671E1,-8.609646149E0,1.578916626E0,1.753384733E1
1.292768279E1,1.545521072E1,-8.417595520E0,1.135538635E0,1.763544445E1
1.293762179E1,1.470616837E1,-7.931705933E0,9.461824036E-1,1.673554923E1
1.294756179E1,1.343097015E1,-7.470514984E0,9.651928711E-1,1.539906331E1
1.295750079E1,1.160162430E1,-6.718927917E0,1.127754822E0,1.345412612E1
1.296744079E1,9.321565704E0,-5.514682159E0,1.236129456E0,1.090097805E1
1.297737979E1,6.626869354E0,-3.930825806E0,1.192570038E0,7.796730869E0
1.298731979E1,3.688779144E0,-2.303559723E0,8.214916992E-1,4.425870263E0
1.299725979E1,8.915460205E-1,-8.961863708E-1,-1.113235016E0,1.684427653E0
1.300719879E1,-4.930746460E-1,-3.709286499E-1,-9.154962158E-1,1.104012677E0
1.301713879E1,-1.373693390E0,-5.128335571E-1,4.337979126E-1,1.529121452E0
1.302707779E1,-2.532583466E0,-5.303471375E-1,9.928852844E-1,2.771474027E0
1.303701779E1,-3.766766968E0,-1.965412903E-1,8.978329468E-1,3.877275573E0
1.304695679E1,-4.776567078E0,8.786727905E-2,1.158590698E0,4.915856600E0
1.305689679E1,-5.631738739E0,1.206491089E-1,1.945204926E0,5.959434506E0
1.306683679E1,-6.158193970E0,-1.625619507E-1,2.957400055E0,6.833446747E0
1.307677579E1,-6.149661713E0,-9.633966064E-1,3.662134552E0,7.222028917E0
1.308671579E1,-4.683311005E0,-2.229014740E0,3.626508636E0,6.328781365E0
1.309665479E1,-3.308420105E0,-3.176843719E0,3.024161224E0,5.493954015E0
1.310659479E1,-2.517764282E0,-3.615731049E0,2.246378632E0,4.945590455E0
1.311653379E1,-1.876497803E0,-3.549418945E0,1.449884949E0,4.268698305E0
1.312647379E1,-1.554816742E0,-3.126398621E0,6.939569092E-1,3.559971858E0
1.313641279E1,-1.238973541E0,-2.562221832E0,1.582209778E-1,2.850450847E0
1.314635279E1,-9.491761780E-1,-1.909129944E0,-2.580633545E-1,2.147628751E0
1.315629279E1,-7.870632935E-1,-1.290466461E0,-6.415658569E-1,1.642065487E0
1.316623179E1,-4.189787292E-1,-8.623567200E-1,-1.079105988E0,1.443492993E0
1.317617179E1,5.927673340E-2,-5.906716919E-1,-1.650318146E0,1.753840575E0
1.318611079E1,3.700305176E-1,-3.299139404E-1,-1.961221619E0,2.022907815E0
1.319605079E1,6.023474121E-1,1.377136230E-2,-1.870659943E0,1.965294043E0
1.320598979E1,6.304888916E-1,3.176394653E-1,-1.652563477E0,1.797046776E0
1.321592979E1,4.161346436E-1,5.174739075E-1,-1.568737793E0,1.703492163E0
1.322586879E1,1.523831177E-1,4.689747620E-1,-1.355431366E0,1.442342584E0
1.323580879E1,5.284011841E-2,5.433700562E-2,-1.022823029E0,1.025627387E0
1.324574879E1,2.163002014E-1,-8.250842285E-1,-7.397616577E-1,1.129069117E0
1.325568779E1,5.393284607E-1,-1.894310760E0,-3.115022278E-1,1.994071735E0
1.326562779E1,1.492845612E0,-4.284091187E0,6.426735535E0,7.866699114E0
1.327556679E1,3.925287323E0,-5.603597260E0,8.091573486E0,1.059630805E1
1.328550679E1,8.586294708E0,-6.744375000E0,6.871610413E0,1.290077830E1
1.329544579E1,1.093386292E1,-8.405171356E0,4.945266266E0,1.465100414E1
1.330538579E1,1.207089844E1,-9.582173767E0,6.089337158E-1,1.542385955E1
1.331532479E1,1.559487030E1,-1.174397827E1,9.834548950E-2,1.952256841E1
1.332526479E1,2.269146286E1,-1.612940872E1,4.303550720E0,2.817056729E1
1.333520479E1,2.989178970E1,-2.106374771E1,5.261408844E0,3.694432273E1
1.334514379E1,3.133044800E1,-2.384661072E1,4.309687958E0,3.960847415E1
1.335508379E1,3.367502243E1,-2.779465073E1,7.971672821E0,4.438577827E1
1.336502279E1,3.216690857E1,-2.894485886E1,7.804769897E0,4.397077773E1
1.337496279E1,2.673186081E1,-2.682122498E1,5.447621613E0,3.825764071E1
1.338490179E1,2.407174255E1,-2.271795776E1,3.971092072E0,3.333652602E1
1.339484179E1,2.188104813E1,-1.786310349E1,1.899849243E0,2.831042494E1
1.340478079E1,1.855451569E1,-1.470841370E1,2.802172852E0,2.384239205E1
1.341472079E1,1.583946167E1,-1.317649933E1,2.607427826E0,2.076794069E1
1.342466079E1,1.444331497E1,-1.214903595E1,2.009720764E0,1.898018439E1
1.343459979E1,1.392494293E1,-1.108130630E1,1.632654877E0,1.787078473E1
1.344453979E1,1.350536545E1,-1.008422974E1,1.040336609E0,1.688694423E1
1.345447879E1,1.271934998E1,-9.129515076E0,3.811074829E-1,1.566126279E1
1.346441879E1,1.149339935E1,-8.379574585E0,-3.863465881E-1,1.422901130E1
1.347435779E1,1.037956558E1,-7.411687317E0,-7.231462097E-1,1.277464015E1
1.348429779E1,9.221124573E0,-6.236331482E0,-6.242019653E-1,1.114946621E1
1.349423679E1,7.702532501E0,-4.780608673E0,-2.315684509E-1,9.068453571E0
1.350417679E1,5.696104889E0,-3.133883057E0,3.647914124E-1,6.511521074E0
1.351411679E1,3.529959412E0,-1.699266357E0,7.391629028E-1,3.986788356E0
1.352405579E1,1.396895142E0,-8.416996765E-1,7.958949280E-1,1.814723979E0
1.353399579E1,-5.453160095E-1,-4.400848389E-1,5.783972168E-1,9.086184876E-1
1.354393479E1,-2.286046143E0,-3.251239014E-1,2.841091919E-1,2.326463099E0
1.355387546E1,-3.737877045E0,-1.236428833E-1,3.733236694E-1,3.758508072E0
1.356381446E1,-4.894222412E0,2.435435486E-1,9.425898743E-1,4.990110435E0
1.357375446E1,-5.685476990E0,5.025050354E-1,1.783092041E0,5.979680354E0
1.358369346E1,-6.153104553E0,2.935395813E-1,2.727178802E0,6.736791918E0
1.359363346E1,-6.262527008E0,-6.478527832E-1,3.789819031E0,7.348583948E0
1.360357346E1,-5.046156464E0,-2.360142059E0,4.720134430E0,7.301618631E0
1.361351246E1,-3.465593262E0,-3.714525604E0,5.035229187E0,7.152731652E0
1.362345246E1,-2.692900085E0,-4.262835388E0,4.496499481E0,6.755885138E0
1.363339146E1,-2.145039368E0,-4.132157135E0,3.240311737E0,5.672348423E0
1.364333146E1,-1.526525574E0,-3.406765594E0,1.592089233E0,4.058457868E0
1.365327046E1,-7.430548096E-1,-2.484533386E0,1.606159973E-1,2.598236728E0
1.366321046E1,3.255729675E-1,-1.578916626E0,-9.204359436E-1,1.856388374E0
1.367315046E1,1.034648438E0,-1.069825287E0,-1.866618347E0,2.387318074E0
1.368308946E1,1.272803192E0,-7.313790894E-1,-2.589165802E0,2.976360679E0
1.369302946E1,1.388213196E0,-1.037342834E-1,-2.456541595E0,2.823560392E0
1.370296846E1,1.142723694E0,3.171903992E-1,-2.109114075E0,2.419667202E0
1.371290846E1,6.673123169E-1,5.295986938E-1,-1.806144104E0,1.996981980E0
1.372284746E1,2.207908630E-1,6.144721985E-1,-1.450483704E0,1.590668935E0
1.373278746E1,-7.514373779E-2,6.438111877E-1,-1.100212097E0,1.276951873E0
1.374272646E1,-2.769241333E-1,5.839356995E-1,-6.514453125E-1,9.176322095E-1
1.375266646E1,-4.441264343E-1,3.849993896E-1,-2.276765442E-1,6.303248595E-1
1.376260546E1,-4.605921936E-1,-1.460961914E-1,1.369651794E-1,5.022436922E-1
1.377254546E1,7.873626709E-2,-1.562750244E0,4.384232941E0,4.655092502E0
1.378248546E1,1.392554169E0,-3.780538330E0,1.128129044E1,1.197911479E1
1.379242446E1,3.219355316E0,-3.571123810E0,2.327809296E0,5.341897606E0
1.380236446E1,7.858657837E0,-5.966891785E0,4.726720734E0,1.094094098E1
1.381230346E1,1.138562347E1,-9.980794830E0,1.682710785E1,2.263625954E1
1.382224346E1,1.476334946E1,-1.283236496E1,1.415935547E1,2.414774161E1
1.383218246E1,1.718112167E1,-1.407687698E1,-2.034269714E-1,2.221240172E1
1.384212246E1,2.268382874E1,-1.795201859E1,4.017645264E-1,2.893082218E1
1.385206146E1,2.823488525E1,-2.196577194E1,8.282276917E-1,3.578253545E1
1.386200146E1,3.142385376E1,-2.449326599E1,1.368154907E-1,3.984215585E1
1.387194146E1,3.181858292E1,-2.661660049E1,2.176923065E0,4.154039762E1
1.388188046E1,2.610735947E1,-2.527883240E1,4.900808716E0,3.666921750E1
1.389182046E1,1.855990448E1,-1.985426285E1,4.960534515E0,2.762731819E1
1.390175946E1,1.653536453E1,-1.583063004E1,4.511168976E0,2.333190462E1
1.391169946E1,1.692904587E1,-1.441367661E1,4.026626587E0,2.259558339E1
1.392163846E1,1.691722046E1,-1.395473099E1,2.919678497E0,2.212354826E1
1.393157846E1,1.748334320E1,-1.458013046E1,1.612596588E0,2.282209372E1
1.394151746E1,1.776071640E1,-1.532572998E1,8.440946960E-1,2.347410365E1
1.395145746E1,1.641381729E1,-1.505509277E1,1.363963623E0,2.231433650E1
1.396139746E1,1.450798050E1,-1.353934479E1,2.626887360E0,2.001738976E1
1.397133646E1,1.332603836E1,-1.110914841E1,4.149521027E0,1.783858182E1
1.398127646E1,1.271875122E1,-8.571176147E0,5.429958344E0,1.627009959E1
1.399121546E1,1.184801193E1,-6.313570862E0,5.937403107E0,1.467955447E1
1.400115546E1,1.041504181E1,-4.405339050E0,5.417085114E0,1.253893613E1
1.401109446E1,8.359665985E0,-3.044518890E0,4.205354919E0,9.840636192E0
1.402103446E1,6.065985718E0,-2.141147461E0,2.993624725E0,7.095243771E0
1.403097446E1,3.803590393E0,-1.614243164E0,1.970502319E0,4.577768044E0
1.404091346E1,1.727407837E0,-1.434616699E0,8.048762512E-1,2.385348756E0
1.405085346E1,1.336720276E-1,-1.282832336E0,-2.891986084E-1,1.321802878E0
1.406079246E1,-1.035097504E0,-1.244811401E0,-9.562115479E-1,1.880245407E0
1.407073246E1,-2.187700653E0,-1.230141907E0,-1.152603149E0,2.761843094E0
1.408067146E1,-3.511547699E0,-1.162931671E0,-9.228309631E-1,3.812478761E0
1.409061146E1,-4.906945953E0,-1.105451202E0,-7.508386230E-1,5.085656259E0
1.410055046E1,-6.125711517E0,-1.172362061E0,-6.113287354E-1,6.266777259E0
1.411049046E1,-6.931485901E0,-1.454674988E0,6.661148071E-2,7.082796990E0
1.412043046E1,-6.920259247E0,-2.264940033E0,1.741478577E0,7.486834380E0
1.413036946E1,-5.825136566E0,-3.537294159E0,3.563639374E0,7.690526092E0
1.414030946E1,-4.832850037E0,-4.495002594E0,5.407355347E0,8.532349011E0
1.415024846E1,-3.918401642E0,-4.654421082E0,5.893095245E0,8.470305697E0
1.416018846E1,-2.866239624E0,-4.203109589E0,3.872447205E0,6.393536357E0
1.417012746E1,-1.810934143E0,-3.263214111E0,1.102906494E0,3.891587278E0
1.418006746E1,-9.786648560E-1,-2.211950226E0,-1.001267853E0,2.617832312E0
1.419000646E1,-7.554789734E-1,-1.785187683E0,-2.045196991E0,2.817884716E0
1.419994646E1,-8.298742676E-1,-1.479822693E0,-2.071392517E0,2.677542430E0
1.420988646E1,-6.457571411E-1,-1.046473846E0,-1.788031769E0,2.170061613E0
1.421982546E1,-2.420466614E-1,-5.691165161E-1,-1.438957672E0,1.566230946E0
1.422976546E1,1.561253357E-1,-8.532257080E-2,-1.171164551E0,1.184601818E0
1.423970446E1,5.278024292E-1,3.363505554E-1,-8.692424011E-1,1.071115985E0
1.424964446E1,9.879455566E-1,7.842192078E-1,1.047821045E-3,1.261363265E0
1.425958346E1,1.739382935E0,1.375339966E0,2.084116058E0,3.043115634E0
1.426952346E1,2.477647705E0,1.524878998E0,4.444407806E0,5.311944546E0
1.427946246E1,2.595452728E0,5.999523926E-1,5.640720062E0,6.238111939E0
1.428940246E1,2.780318298E0,-1.037043457E0,7.030729523E0,7.631303073E0
1.429934246E1,4.054468689E0,-3.295696564E0,6.832691345E0,8.601511682E0
1.430928146E1,3.388054504E0,-3.971990204E0,1.530716858E0,5.440469980E0
1.431922146E1,3.739074554E0,-4.854554901E0,-5.337899780E-1,6.150797798E0
1.432916046E1,7.475454712E0,-8.331075439E0,6.833140411E0,1.311415453E1
1.433910046E1,1.261127472E1,-1.189710983E1,7.650291138E0,1.895026192E1
1.434903946E1,1.525896881E1,-1.357107880E1,-2.254312134E-1,2.042207453E1
1.435897946E1,1.858595032E1,-1.878967667E1,2.154020691E0,2.651658544E1
1.436891846E1,2.539903244E1,-2.790661789E1,3.993844757E0,3.794523642E1
1.437885846E1,3.100712036E1,-3.259082703E1,1.768721924E0,4.501923918E1
1.438879846E1,3.537818069E1,-3.506757660E1,1.500330048E0,4.983574609E1
1.439873746E1,3.185061630E1,-3.325125366E1,5.151836700E0,4.633194417E1
1.440867746E1,2.310625031E1,-2.453592728E1,5.812413025E0,3.420079934E1
1.441861646E1,1.922871368E1,-1.615650238E1,3.516786804E0,2.536027974E1
1.442855646E1,1.958796661E1,-1.279060181E1,1.845661926E0,2.346687876E1
1.443849546E1,1.945010330E1,-1.148816025E1,1.048719177E0,2.261380455E1
1.444843546E1,1.832998260E1,-1.154159912E1,8.006849670E-1,2.167574379E1
1.445837446E1,1.716285965E1,-1.163231049E1,5.977070618E-1,2.074202623E1
1.446831446E1,1.596400269E1,-1.072340057E1,2.885998535E-1,1.923340821E1
1.447825446E1,1.459105774E1,-9.782307587E0,1.444496155E-1,1.756739518E1
1.448819346E1,1.321017929E1,-8.810229034E0,7.791297913E-1,1.589767328E1
1.449813346E1,1.189995392E1,-7.406897278E0,2.203118591E0,1.418889573E1
1.450807246E1,1.074420731E1,-5.610183563E0,3.934418335E0,1.274330404E1
1.451801246E1,9.574240265E0,-3.838318176E0,5.120102692E0,1.151582453E1
1.452795146E1,7.953859863E0,-2.454445953E0,5.296885071E0,9.866366257E0
1.453789146E1,6.028264160E0,-1.588646393E0,4.780608673E0,7.856079520E0
1.454783046E1,3.955973511E0,-1.116528168E0,3.899690552E0,5.666034589E0
1.455777054E1,1.923200684E0,-8.729846191E-1,2.891986084E0,3.581115263E0
1.456771054E1,1.742376709E-1,-6.686595154E-1,1.834884338E0,1.960679690E0
1.457764954E1,-1.474134521E0,-5.839356995E-1,8.616082764E-1,1.804555987E0
1.458758954E1,-2.847977600E0,-4.327500916E-1,4.011657715E-2,2.880947482E0
1.459752854E1,-3.702251129E0,-1.968406677E-1,-4.146377563E-1,3.730594341E0
1.460746854E1,-4.210893402E0,-1.576222229E-1,-5.465135193E-1,4.249134622E0
1.461740754E1,-4.721631317E0,-3.218307495E-1,-4.330494690E-1,4.752358274E0
1.462734754E1,-4.959935760E0,-7.661068726E-1,2.038760376E-1,5.022892387E0
1.463728654E1,-4.559368744E0,-1.454525299E0,1.275796967E0,4.952892598E0
1.464722654E1,-3.681743774E0,-2.354304199E0,2.054028625E0,4.828769934E0
1.465716654E1,-2.883154449E0,-3.122207336E0,2.240840149E0,4.804385788E0
1.466710554E1,-2.170187073E0,-3.501069489E0,1.662442932E0,4.441949572E0
1.467704554E1,-1.744322662E0,-3.395239563E0,5.318440247E-1,3.853981228E0
1.468698454E1,-1.321601715E0,-2.919828186E0,-6.532415771E-1,3.270894723E0
1.469692454E1,-8.963360596E-1,-2.335892487E0,-1.537901917E0,2.936827258E0
1.470686354E1,-8.412506104E-1,-1.828447723E0,-1.801803131E0,2.701373390E0
1.471680354E1,-1.012644196E0,-1.350341949E0,-1.716031494E0,2.406997245E0
1.472674254E1,-1.126557312E0,-9.292675781E-1,-1.582808533E0,2.153590597E0
1.473668254E1,-1.159039764E0,-5.933660889E-1,-1.329535217E0,1.860946099E0
1.474662254E1,-1.083147583E0,-3.067121887E-1,-9.984237671E-1,1.504702985E0
1.475656154E1,-1.068927155E0,1.218466187E-1,-1.758842468E-1,1.090131702E0
1.476650154E1,-1.003064117E0,6.032455444E-1,9.252259827E-1,1.492007349E0
1.477644054E1,-5.761518860E-1,8.366102600E-1,1.698368225E0,1.978970023E0
1.478638054E1,-2.739303589E-2,6.620732117E-1,2.198478241E0,2.296170266E0
1.479631954E1,3.815565491E-1,-4.089495850E-1,3.456911316E0,3.501865361E0
1.480625954E1,1.125359802E0,-2.597398682E0,5.088368683E0,5.822749389E0
1.481619854E1,2.621797943E0,-4.713847504E0,5.637426910E0,7.802228202E0
1.482613854E1,3.931873627E0,-5.548362122E0,4.484225006E0,8.145687592E0
1.483607854E1,5.652844849E0,-6.064039764E0,2.708767090E0,8.721505162E0
1.484601754E1,8.159232788E0,-8.137078857E0,2.352657623E0,1.176095787E1
1.485595754E1,1.142020157E1,-1.106693619E1,2.137704620E0,1.604580511E1
1.486589654E1,1.531225800E1,-1.397987869E1,1.599723358E0,2.079570552E1
1.487583654E1,2.034149963E1,-1.777643372E1,3.716022491E0,2.726879217E1
1.488577554E1,2.432247116E1,-2.127989822E1,5.459596710E0,3.277535458E1
1.489571554E1,2.652214691E1,-2.350756577E1,4.009113007E0,3.566655173E1
1.490565454E1,2.951786728E1,-2.630405045E1,5.899232483E0,3.997509853E1
1.491559454E1,3.160572556E1,-2.714455261E1,9.502389679E0,4.273223647E1
1.492553354E1,3.052856552E1,-2.313723587E1,6.478827209E0,3.884971298E1
1.493547354E1,2.774794785E1,-1.779289948E1,1.690883789E0,3.300598384E1
1.494541354E1,2.378718430E1,-1.426368851E1,5.554948425E-1,2.774151260E1
1.495535254E1,2.003059616E1,-1.190040298E1,1.101259918E0,2.332503263E1
1.496529254E1,1.723605743E1,-1.163246017E1,9.285191345E-1,2.081484935E1
1.497523154E1,1.527827866E1,-1.200533478E1,6.975494385E-1,1.944326200E1
1.498517154E1,1.410995819E1,-1.200743042E1,5.990542603E-1,1.853721045E1
1.499511054E1,1.301618271E1,-1.177017380E1,5.363346863E-1,1.755692622E1
1.500505054E1,1.180729660E1,-1.114222961E1,9.090596008E-1,1.626000994E1
1.501498954E1,1.049377808E1,-1.020068756E1,1.556912384E0,1.471724775E1
1.502492954E1,9.246571655E0,-9.023984528E0,2.248623962E0,1.311440787E1
1.503486954E1,8.243208160E0,-7.545658722E0,2.847378845E0,1.153234636E1
1.504480854E1,7.630831604E0,-5.810616760E0,3.202889557E0,1.011194144E1
1.505474854E1,7.153623962E0,-4.151466980E0,3.267405396E0,8.892972051E0
1.506468754E1,6.309529266E0,-2.799478455E0,3.054548035E0,7.548344380E0
1.507462754E1,5.012775879E0,-1.722917175E0,2.580334167E0,5.895293888E0
1.508456654E1,3.525019684E0,-8.666976929E-1,2.107168121E0,4.197271275E0
1.509450654E1,1.721420288E0,-2.694396973E-1,1.560055847E0,2.338730383E0
1.510444554E1,-2.959346008E-1,3.134481812E-1,1.073118439E0,1.156464541E0
1.511438554E1,-2.253863068E0,6.845265198E-1,8.511300659E-1,2.504575348E0
1.512432554E1,-3.434907074E0,9.340576172E-1,8.809181213E-1,3.667024267E0
1.513426454E1,-4.002975769E0,1.080453186E0,9.704319763E-1,4.258278093E0
1.514420454E1,-4.406386871E0,1.008602600E0,1.002315674E0,4.630136194E0
1.515414354E1,-4.775070190E0,6.062393188E-1,1.416055298E0,5.017373221E0
1.516408354E1,-4.902305603E0,-2.011816406E-1,2.354453888E0,5.442106889E0
1.517402254E1,-4.200115814E0,-1.635049896E0,3.122506714E0,5.483102151E0
1.518396254E1,-2.899171143E0,-2.820434875E0,3.424728241E0,5.299887709E0
1.519390154E1,-1.689686279E0,-3.409310303E0,2.998115387E0,4.844288631E0
1.520384154E1,-9.383985901E-1,-3.470832367E0,1.813329163E0,4.026838945E0
1.521378154E1,-7.803273010E-1,-3.126548309E0,2.941383362E-1,3.235851107E0
1.522372054E1,-7.255412292E-1,-2.582130432E0,-1.075663147E0,2.889785260E0
1.523366054E1,-6.246510315E-1,-2.080074463E0,-1.947150879E0,2.916898220E0
1.524359954E1,-5.400769043E-1,-1.722168732E0,-2.286944275E0,2.913359284E0
1.525353954E1,-2.966830444E-1,-1.299148407E0,-2.198627930E0,2.570947721E0
1.526347854E1,-1.592687988E-1,-7.800279236E-1,-1.906884613E0,2.066402439E0
1.527341854E1,-1.887574768E-1,-2.878514099E-1,-1.564247131E0,1.601673159E0
1.528335754E1,-1.898052979E-1,7.828720093E-2,-1.244212646E0,1.261039272E0
1.529329754E1,-1.583706665E-1,2.639012146E-1,-9.792636108E-1,1.026490301E0
1.530323754E1,-1.197509766E-2,3.014730835E-1,-6.168672180E-1,6.866983236E-1
1.531317654E1,3.694317627E-1,-5.927673340E-2,-7.364685059E-2,3.813363568E-1
1.532311654E1,1.142574005E0,-1.262624359E0,1.976040802E0,2.608530790E0
1.533305554E1,2.272574158E0,-3.053949280E0,6.437363434E0,7.478692900E0
1.534299554E1,3.555556183E0,-5.048701172E0,7.035519562E0,9.361084275E0
1.535293454E1,6.588549042E0,-7.401508484E0,5.461093597E0,1.131436475E1
1.536287454E1,8.267757111E0,-8.986562347E0,6.461463318E0,1.381537617E1
1.537281354E1,9.948462067E0,-1.122740250E1,5.902076569E0,1.612020385E1
1.538275354E1,1.269644760E1,-1.302621185E1,1.743274841E0,1.827350498E1
1.539269354E1,1.762659531E1,-1.601564529E1,1.578916626E0,2.386819503E1
1.540263254E1,2.023626846E1,-1.810365326E1,-5.643264771E-2,2.715238493E1
1.541257254E1,2.233460495E1,-2.146311722E1,1.763632507E0,3.102596298E1
1.542251154E1,2.540472061E1,-2.615436172E1,5.681884460E0,3.690168394E1
1.543245154E1,2.727448242E1,-2.771756104E1,7.766599274E0,3.965451608E1
1.544239054E1,2.834984619E1,-2.540981003E1,6.490353241E0,3.861990303E1
1.545233054E1,2.634850800E1,-2.067889801E1,4.992268524E0,3.386419114E1
1.546226954E1,2.371982437E1,-1.523756332E1,3.736380157E0,2.843895112E1
1.547220954E1,2.249686752E1,-1.149983597E1,1.490001526E0,2.530959068E1
1.548214954E1,2.140384048E1,-1.007764343E1,7.003935242E-1,2.366799180E1
1.549208854E1,1.989108627E1,-1.058838135E1,1.413061523E-1,2.253417627E1
1.550202854E1,1.837608673E1,-1.153336624E1,-6.584806824E-1,2.170559138E1
1.551196754E1,1.704340805E1,-1.136032608E1,-1.160686340E0,2.051540785E1
1.552190754E1,1.548125656E1,-1.034229309E1,-1.156195679E0,1.865393040E1
1.553184654E1,1.341959381E1,-9.164392548E0,-9.102571106E-1,1.627575365E1
1.554178654E1,1.107501938E1,-7.869734802E0,-5.457650757E-1,1.359730266E1
1.555172554E1,9.003477173E0,-6.696624298E0,4.399351501E-1,1.122946664E1
1.556166467E1,7.233557739E0,-5.478607178E0,2.226619720E0,9.343303996E0
1.557160467E1,5.495971069E0,-4.270319824E0,3.794160004E0,7.926977957E0
1.558154367E1,3.855233002E0,-3.290307770E0,4.248914337E0,6.613790121E0
1.559148367E1,2.343676300E0,-2.585423584E0,3.697461090E0,5.084137313E0
1.560142267E1,9.788145447E-1,-2.079625397E0,2.736010437E0,3.573327975E0
1.561136267E1,-2.323168945E-1,-1.753753052E0,1.773212585E0,2.504776193E0
1.562130167E1,-1.479822693E0,-1.450034637E0,1.074765015E0,2.334008459E0
1.563124167E1,-2.745291138E0,-8.843609619E-1,9.300160217E-1,3.030453356E0
1.564118067E1,-4.314477997E0,-3.761677551E-1,1.283580780E0,4.517056805E0
1.565112067E1,-5.723647614E0,-1.865121460E-1,1.736838226E0,5.984274042E0
1.566105967E1,-6.369704132E0,-3.900888062E-1,2.238744507E0,6.762934051E0
1.567099967E1,-6.668782196E0,-1.082548828E0,2.880460052E0,7.344495766E0
1.568093967E1,-6.013744354E0,-2.391726379E0,3.526067505E0,7.370117250E0
1.569087867E1,-4.119583282E0,-3.916455688E0,4.368815002E0,7.169109855E0
1.570081867E1,-2.442171478E0,-4.885690155E0,4.384382629E0,7.004068879E0
1.571075767E1,-9.422904968E-1,-4.801116028E0,2.656974792E0,5.567597466E0
1.572069767E1,4.454736328E-1,-3.656596069E0,1.881587219E-1,3.688433987E0
1.573063667E1,1.359922028E0,-2.297123108E0,-1.506766663E0,3.065372452E0
1.574057667E1,1.132993927E0,-1.482367401E0,-1.796264648E0,2.589914099E0
1.575051567E1,6.018983459E-1,-7.104226685E-1,-1.716929626E0,1.953158808E0
1.576045567E1,3.186872864E-1,-1.600172424E-1,-1.634151764E0,1.672608469E0
1.577039567E1,3.215313721E-1,2.389031982E-1,-1.648072815E0,1.696054588E0
1.578033467E1,3.544628906E-1,5.634283447E-1,-1.644779663E0,1.774371883E0
1.579027467E1,4.710704041E-1,8.086184692E-1,-1.580413513E0,1.836703032E0
1.580021367E1,5.923182678E-1,9.481283569E-1,-1.441203003E0,1.823966668E0
1.581015367E1,6.435118103E-1,9.017248535E-1,-1.119821320E0,1.575187274E0
1.582009267E1,6.378236389E-1,4.032614136E-1,-6.132746887E-1,9.723911794E-1
1.583003267E1,7.487429810E-1,-4.474195862E-1,-1.901046753E-1,8.927150302E-1
1.583997167E1,1.920206909E0,-1.500479736E0,2.804118805E0,3.715066121E0
1.584991167E1,3.873045959E0,-2.692301331E0,7.289241943E0,8.682281933E0
1.585985167E1,3.730542297E0,-3.204985199E0,2.745291138E-1,4.925874764E0
1.586979067E1,6.815926208E0,-5.137915649E0,3.347638550E0,9.168517392E0
1.587973067E1,1.393572052E1,-1.006716522E1,1.462937805E1,2.257367547E1
1.588966967E1,1.375714188E1,-1.131062943E1,5.059778137E0,1.851460627E1
1.589960967E1,1.535476959E1,-1.234931946E1,-4.067940674E0,2.012020829E1
1.590954867E1,2.175066925E1,-1.644016251E1,-3.377127228E0,2.747317864E1
1.591948867E1,3.080848343E1,-2.331207230E1,-1.154698792E0,3.865163250E1
1.592942767E1,3.619069107E1,-2.863934418E1,1.187031555E0,4.616694921E1
1.593936767E1,3.636118652E1,-3.128284698E1,4.775070190E0,4.820325400E1
1.594930767E1,3.220433075E1,-2.981350250E1,5.517675934E0,4.423130790E1
1.595924667E1,2.624028305E1,-2.469339981E1,5.868845673E0,3.650698287E1
1.596918667E1,2.320983490E1,-1.799991898E1,3.622167664E0,2.959414837E1
1.597912567E1,2.172058182E1,-1.407852356E1,3.504212952E0,2.612026050E1
1.598906567E1,1.914204391E1,-1.208706482E1,2.939886475E0,2.282888332E1
1.599900467E1,1.654150177E1,-1.117635864E1,1.727707214E0,2.003789524E1
1.600894467E1,1.523576706E1,-1.045620621E1,1.284329224E0,1.852323805E1
1.601888367E1,1.443553116E1,-9.486971741E0,1.465302887E0,1.733592528E1
1.602882367E1,1.311318100E1,-8.339308319E0,1.379980316E0,1.560140778E1
1.603876367E1,1.144040955E1,-7.212152252E0,1.137484589E0,1.357173467E1
1.604870267E1,9.648785248E0,-6.057303772E0,1.002914429E0,1.143660015E1
1.605864267E1,7.819589081E0,-4.922363892E0,1.106349335E0,9.305893215E0
1.606858167E1,5.733377380E0,-3.812122650E0,1.329684906E0,7.012271903E0
1.607852167E1,3.580404510E0,-2.917882233E0,1.320553894E0,4.803872997E0
1.608846067E1,1.652264099E0,-2.171085205E0,1.040785675E0,2.920072335E0
1.609840067E1,-1.692979431E-1,-1.597478027E0,5.300477600E-1,1.691611205E0
1.610833967E1,-1.758543091E0,-1.189725952E0,-1.037342834E-1,2.125719277E0
1.611827967E1,-2.959944763E0,-8.195457458E-1,-4.698728943E-1,3.107041803E0
1.612821967E1,-3.838318176E0,-4.140390015E-1,-4.641847229E-1,3.888390692E0
1.613815867E1,-4.491110687E0,-1.032852173E-2,-1.381626892E-1,4.493247246E0
1.614809867E1,-4.988226929E0,1.826202393E-1,6.366261292E-1,5.032002670E0
1.615803767E1,-5.469775543E0,1.107696533E-2,1.801653442E0,5.758864673E0
1.616797767E1,-5.811215515E0,-8.681945801E-1,3.019221497E0,6.606034063E0
1.617791667E1,-5.108726349E0,-2.613565063E0,4.055217133E0,7.026705718E0
1.618785667E1,-3.996688843E0,-4.239783325E0,4.430636444E0,7.319824018E0
1.619779567E1,-3.093317413E0,-4.960384827E0,3.486399994E0,6.806542086E0
1.620773567E1,-1.972148895E0,-4.642445984E0,1.759890289E0,5.342180249E0
1.621767467E1,-9.324110413E-1,-3.663930817E0,2.052232361E-1,3.786277322E0
1.622761467E1,-3.841012573E-1,-2.778222656E0,-6.598278809E-1,2.881219835E0
1.623755467E1,-2.628533936E-1,-2.061063995E0,-8.033793640E-1,2.227665842E0
1.624749367E1,-2.495310974E-1,-1.187630310E0,-6.822811890E-1,1.392206573E0
1.625743367E1,-9.624984741E-2,-3.598516846E-1,-5.932164001E-1,7.004733867E-1
1.626737267E1,2.052232361E-1,2.757266235E-1,-6.950047302E-1,7.753536758E-1
1.627731267E1,3.909869385E-1,6.014492798E-1,-1.007854156E0,1.237086102E0
1.628725167E1,4.263134766E-1,6.511459351E-1,-1.376687164E0,1.581455582E0
1.629719167E1,4.799020386E-1,6.879693604E-1,-1.512005768E0,1.729094922E0
1.630713067E1,2.915936279E-1,8.051756287E-1,-1.435963898E0,1.671923130E0
1.631707067E1,1.561253357E-1,7.458988953E-1,-1.275347900E0,1.485682520E0
1.632701067E1,3.760180664E-1,1.306782532E-1,-9.795629883E-1,1.057359939E0
1.633694967E1,6.471043396E-1,-7.337741089E-1,-7.095245361E-1,1.208550180E0
1.634688967E1,1.005908203E0,-1.852397919E0,5.963598633E-1,2.190633344E0
1.635682867E1,2.158062286E0,-3.923041992E0,6.214476929E0,7.659452644E0
1.636676867E1,4.311334534E0,-4.450844421E0,4.422702942E0,7.613010104E0
1.637670767E1,8.687633972E0,-5.633834381E0,6.226901093E0,1.208260614E1
1.638664767E1,1.411355072E1,-8.231682129E0,1.331286575E1,2.107570400E1
1.639658667E1,1.448148560E1,-9.711055756E0,7.708070984E0,1.906390273E1
1.640652667E1,1.342797638E1,-9.930649109E0,-4.248016205E0,1.723293309E1
1.641646667E1,1.676124481E1,-1.217972214E1,-4.370611267E0,2.117515530E1
1.642640567E1,2.256781998E1,-1.655811722E1,1.145118713E-1,2.799090669E1
1.643634567E1,2.801604034E1,-2.222727814E1,3.984863434E0,3.598374003E1
