Time (s),Acceleration x (m/s^2),Acceleration y (m/s^2),Acceleration z (m/s^2),Absolute acceleration (m/s^2)
24.84987104,1.371148682,-0.9183403015,-1.534758453,2.25363731
24.85981004,0.6920109558,-1.897454224,-3.522474976,4.060423826
24.86974904,-1.492695923,-3.120261383,-4.958289185,6.045560673
24.87968904,-15.60310318,-8.936716003,-11.19327347,21.18044128
24.88962804,-68.11839706,-34.59456024,-10.71531738,77.14737613
24.89956704,-80.80032486,-63.78775269,19.10626831,104.702528
24.90950704,-78.50335144,-29.12373688,28.18264389,88.34721079
24.91944604,-77.91312881,8.039032745,43.35868515,89.52685221
24.92938504,-51.01750854,2.782863007,71.00394653,87.47623065
24.93932504,-3.140619049,-4.192481689,66.30027786,66.50689615
24.94926404,-15.99409012,-1.078357544,27.5202713,31.84869081
24.95920304,-26.52573944,0.7360194397,3.016826477,26.70688712
24.96914304,-11.9267482,-0.07978408813,-3.959266663,12.56699967
24.97908204,-3.337010651,0.4595443726,-4.034111023,5.25555638
24.98902204,0.5596861267,1.292861481,-3.710933075,3.969353053
24.99896104,2.015259247,1.226699066,-3.579356689,4.286940021
25.00890004,2.261347504,0.4351451111,-2.981050873,3.766922896
25.01884004,2.02663559,-0.09984237671,-2.675536194,3.357933031
25.02877904,1.996847534,-0.3077600098,-2.533780975,3.240703987
25.03871804,1.965412903,-0.3839515686,-2.190844116,2.968175303
25.04865804,1.864073639,-0.4679269409,-1.944755859,2.734191198
25.05859704,1.892215118,-0.5587879944,-1.844464417,2.700883385
25.06853604,1.966011658,-0.6253994751,-1.838327179,2.763290278
25.07847604,2.310445404,-0.6236032104,-2.046843567,3.149064546
25.08841504,2.695744171,-0.6509962463,-2.462379456,3.708658158
25.09835404,3.194057922,-0.5830375671,-3.047213287,4.452802223
25.10829404,3.428470459,-0.3420387268,-3.842060394,5.160700364
25.11823304,2.594853973,0.06182144165,-4.691843262,5.361947615
25.12817204,1.399140472,0.2552192688,-5.138065338,5.331270614
25.13811204,1.543590088,0.0217048645,-5.289250946,5.50992895
25.14805104,1.202599182,-0.3414399719,-5.426515503,5.568653028
25.15799004,0.8448431396,-0.789458313,-5.774541779,5.889171174
25.16793004,0.7824229431,-1.257385254,-6.107299805,6.284291069
25.17786904,0.9377998352,-1.465901642,-6.27046051,6.507458119
25.18780804,1.200353851,-1.505269775,-6.710245972,6.980980409
25.19774804,1.479074249,-1.408121796,-7.039112091,7.329363319
25.20768704,1.76093811,-1.182391205,-6.841373291,7.162635025
25.21762604,2.032323761,-1.032852173,-6.530170441,6.91666462
25.22756604,2.205962677,-0.8909472656,-6.244264984,6.682133159
25.23750504,2.200274506,-0.6842271423,-5.474415894,5.939579451
25.24744404,2.167492676,-0.4396357727,-4.338128815,4.869359889
25.25738404,2.210153961,-0.2137554932,-3.361110535,4.02834159
25.26732304,2.244133301,-0.07933502197,-2.526146851,3.37991808
25.27726204,2.320624237,0.07768844604,-1.858535156,2.974136055
25.28720204,2.419418793,0.1981878662,-1.385668488,2.795164196
25.29714104,2.233505402,0.3049159241,-0.8487350464,2.408707388
25.30708104,1.902393951,0.3264710999,-0.2683918762,1.948774057
25.31702004,1.877096558,0.2032772827,0.06885681152,1.889326441
25.32695904,1.851200409,0.07214996338,0.2185455322,1.865451881
25.33689904,1.849254456,-0.08637039185,0.1392105103,1.856497092
25.34683804,2.121238861,-0.2748284912,-0.445922699,2.184955848
25.35677704,2.590513,-0.4652325439,-1.811682587,3.195214034
25.36671704,1.43686203,-0.8042774963,-5.363346863,5.610429962
25.37665604,-2.446961517,-2.169588318,-9.382189636,9.935804774
25.38659504,-8.631201324,-4.53990921,-11.93647797,15.41388719
25.39653504,-22.28460892,-8.628057861,-16.2437709,28.89476199
25.40647404,-65.23389542,-23.04293198,-15.28995438,70.85351459
25.41641304,-80.44286819,-37.01622437,3.786974945,88.6318063
25.42635304,-78.31085175,-13.83018997,13.14057404,80.60110633
25.43629204,-78.60289444,5.605243835,20.29629364,81.37427916
25.44623104,-65.55737274,-1.382674713,28.98752014,71.69349506
25.45617104,1.27654541,-1.505269775,68.43079742,68.45925388
25.46611004,-6.380781097,0.9467811584,41.88215561,42.37600406
25.47604904,-24.26169754,-0.9904902649,2.160307617,24.37781712
25.48598904,-11.59503799,-1.086740112,-0.619561615,11.66232253
25.49592804,-6.384074249,-0.2415975952,-1.847458191,6.650404137
25.50586704,-2.550695801,0.2884501648,-2.582579498,3.641286782
25.51580704,-0.6179150391,0.3285667419,-3.050207062,3.129462928
25.52574604,0.1459465027,-0.03502716064,-3.262765045,3.266215398
25.53568504,0.5523513794,-0.2664459229,-3.445385284,3.49953786
25.54562504,0.8360115051,-0.3555107117,-3.119213562,3.248814607
25.55556404,0.9264234924,-0.2713856506,-2.723286896,2.889325557
25.56550404,0.9839039612,-0.1886077881,-3.030597839,3.191890218
25.57544304,0.9125024414,-0.2019300842,-4.383484497,4.482005444
25.58538204,0.6682104492,-0.09220825195,-5.318889313,5.361491498
25.59532204,0.6620732117,-0.04805007935,-5.67140625,5.710122468
25.60526104,0.9921368408,0.05044509888,-5.575306091,5.663119126
25.61520004,1.130748596,0.004939727783,-5.519472198,5.634109525
25.62514004,0.6876699829,-0.3700305176,-5.615123291,5.66916415
25.63507904,0.2073188782,-0.6882687378,-6.576723633,6.61588911
25.64501804,0.7270381165,-0.6807843018,-8.193661194,8.253976947
25.65495804,1.523681488,-0.4813989258,-9.005423126,9.146091837
25.66489704,2.582729187,-0.5393284607,-9.171727295,9.543686228
25.67483604,3.344046021,-0.6117778015,-9.557774506,10.14435653
25.68477604,3.521277466,-0.5625302124,-9.755513306,10.38681256
25.69471504,3.43775116,-0.3887416077,-9.069040833,9.706531548
25.70465404,3.090922394,-0.1115180969,-7.862699432,8.449158532
25.71459404,2.733615417,0.04221221924,-6.432723083,6.989589501
25.72453304,2.64200592,0.07274871826,-5.17533783,5.811162475
25.73447204,2.602188721,0.1460961914,-3.788621521,4.598519682
25.74441204,2.602039032,0.3131488037,-2.445165253,3.58434128
25.75435104,2.398312683,0.6114784241,-1.484912109,2.886307946
25.76429004,2.139351196,0.8879534912,-1.105451202,2.566575014
25.77423004,1.915716248,0.9800120544,-0.9791139221,2.364118534
25.78416929,1.579964447,1.021026764,-0.8069718933,2.04694576
25.79410829,1.321452026,0.9798623657,-0.5396278381,1.731347428
25.80404829,1.037492523,0.8538244629,-0.3758683777,1.395236176
25.81398729,0.7982899475,0.763711853,-0.2136058044,1.125233342
25.82392629,0.8849597168,0.6024971008,-0.2406994629,1.097311573
25.83386629,1.325493622,0.3860472107,-0.5117857361,1.472375777
25.84380529,1.775457916,0.1166075134,-0.8976832581,1.992908266
25.85374429,2.072440338,-0.3293151855,-0.8858578491,2.277762405
25.86368429,2.188598785,-1.724863129,-0.1047821045,2.788565356
25.87362329,0.9183403015,-2.908002777,2.259102173,3.795177425
25.88356229,-0.7243437195,-1.929786987,-0.252973938,2.076715545
25.89350229,-2.631078644,-2.755769348,-0.9874964905,3.935986388
25.90344129,-22.96195038,-12.06820404,-3.531605988,26.17947583
25.91338129,-74.7096405,-47.6445726,24.8487767,92.0271557
25.92332029,-80.34257675,-61.63822266,45.00675797,110.8142969
25.93325929,-78.57101074,-21.29546585,45.15135727,93.08891265
25.94319929,-63.6894072,8.275091858,54.50031601,84.2324295
25.95313829,-15.65294952,2.995121613,63.12852356,65.10910896
25.96307729,2.99302597,3.151546326,46.6771344,46.87904995
25.97301729,-20.60375427,2.040257263,20.63593735,29.23216123
25.98295629,-24.69145386,-0.3466790771,4.282893677,25.06254692
25.99289529,-12.91903473,-0.9279203796,-1.021176453,12.99250922
26.00283529,-4.521946564,-0.4448748779,-1.942959595,4.941761464
26.01277429,-0.1375639343,0.3818559265,-2.303110657,2.338601394
26.02271329,1.155596924,0.8813671875,-1.656904449,2.20398383
26.03265329,1.488654327,0.7114704895,-1.568438416,2.276462393
26.04259229,1.932780762,0.3770658875,-2.027982788,2.826753322
26.05253129,2.235151978,0.2561174011,-2.581082611,3.423957934
26.06247129,2.548001404,0.314046936,-2.759361877,3.768954046
26.07241029,2.814896393,0.569715271,-2.478545837,3.793600751
26.08234929,2.833607483,0.8360115051,-2.331401825,3.76346663
26.09228929,2.679428101,1.035247192,-2.120789795,3.570549124
26.10222829,2.607128448,1.19466568,-2.126777344,3.570367867
26.11216729,2.982098694,1.244062958,-2.373164978,4.009054412
26.12210729,3.466341705,1.142873383,-2.766846313,4.58007892
26.13204629,3.662134552,0.8662486267,-2.757116547,4.665116056
26.14198529,3.066373444,0.4179309082,-3.639232178,4.777166857
26.15192529,1.961970062,0.01197509766,-5.216651917,5.573412523
26.16186429,1.676513672,-0.2519261169,-6.589447174,6.804041367
26.17180329,1.404978333,-0.4963677979,-8.318800964,8.451200778
26.18174329,0.5111869812,-0.6782395935,-10.00235001,10.03834283
26.19168229,0.5957611084,-1.059796143,-11.29551086,11.36075107
26.20162129,1.301543427,-1.644779663,-10.8251889,11.02651487
26.21156129,1.681154022,-1.899549866,-9.183253326,9.527156459
26.22150029,2.134411469,-1.6217276,-8.116571503,8.547774312
26.23143929,2.414479065,-1.265169067,-7.518864441,7.997729953
26.24137929,2.564916229,-1.109043732,-6.651867371,7.214992223
26.25131829,2.667453003,-0.9753717041,-5.533842316,6.220133942
26.26125829,2.71220993,-0.8681945801,-4.380041656,5.224424317
26.27119729,2.781515808,-0.7604187012,-3.428769836,4.480126045
26.28113629,2.804567871,-0.6303392029,-2.6701474,3.9233424
26.29107629,2.928061066,-0.4936734009,-2.302062836,3.757226148
26.30101529,3.199147339,-0.3932322693,-2.177372131,3.889746099
26.31095429,2.763253784,-0.346230011,-1.305435333,3.075647591
26.32089429,2.644999695,-0.3134481812,-0.8141569519,2.78516152
26.33083329,2.527793427,-0.1133143616,-0.2459385681,2.542255992
26.34077229,2.056124268,0.01541793823,0.2112107849,2.067001382
26.35071229,1.657952271,0.006885681152,0.5607339478,1.750221616
26.36065129,1.510508881,-0.02395019531,1.057999878,1.84433577
26.37059029,2.245480499,-0.4667294312,1.71648056,2.864668314
26.38053029,0.2056723022,-1.197809143,4.056414642,4.234565809
26.39046929,-1.227746887,-1.154100037,3.563938751,3.942203538
26.40040829,-1.025966492,-1.521286469,-2.791694641,3.340730269
26.41034829,-5.686824188,-3.15334259,-3.667523346,7.465538583
26.42028729,-32.43021103,-10.65783691,-7.516319733,34.9543007
26.43022629,-78.39647369,-35.72456039,23.13573898,89.20489741
26.44016629,-79.35163742,-28.28937195,36.06615005,91.63917343
26.45010529,-77.61315262,14.12807053,66.71746033,103.3180688
26.46004429,-59.17255005,4.046834564,75.75102493,96.20803151
26.46998429,-50.88308807,-4.247118073,37.94264786,63.61423732
26.47992329,-38.26223328,-1.457668762,4.705165558,38.57799731
26.48986229,-16.58730652,-1.521735535,-1.653461609,16.73882767
26.49980229,-4.194876709,-0.9141490173,-0.5751040649,4.33167447
26.50974129,0.4685256958,-0.4813989258,-0.9677375793,1.17803959
26.51968029,1.782942352,-0.408949585,-1.181044006,2.177381028
26.52962029,1.740879822,-0.5742059326,-1.967358856,2.689028798
26.53955929,1.837728424,-0.6050418091,-2.462678833,3.131789965
26.54949829,2.265838165,-0.6246510315,-2.844385071,3.689815434
26.55943829,2.461181946,-0.5652246094,-2.726130981,3.716003977
26.56937729,2.781366119,-0.3475772095,-2.703527985,3.894338323
26.57931629,3.164718933,0.06810836792,-2.760110321,4.199796859
26.58925629,3.871100006,0.4849914551,-3.287463684,5.101769246
26.59919529,4.891977081,0.5855822754,-4.031716003,6.366245385
26.60913429,5.156327362,0.1761836243,-4.952002258,7.151299106
26.61907429,2.674338684,-0.5270539856,-5.486690369,6.126470803
26.62901329,-0.130229187,-0.7464976501,-5.697003021,5.747178595
26.63895229,-0.1041833496,-1.290316772,-6.725813599,6.849258362
26.64889229,-0.443228302,-2.299368439,-9.605076141,9.886406538
26.65883129,0.2152523804,-2.823728027,-12.23136475,12.55492163
26.66877029,0.9448352051,-3.288810883,-14.23539734,14.64088549
26.67871029,0.6486012268,-3.39793396,-15.38336014,15.76751115
26.68864929,0.962049408,-2.954555969,-15.5231694,15.83110004
26.69858829,2.73571106,-3.193908234,-13.91985352,14.54123402
26.70852829,3.97827713,-3.179238739,-12.84314255,13.81595304
26.71846729,4.208049316,-2.798580322,-10.80677719,11.93005298
26.72840729,4.576133881,-2.024090881,-8.905131683,10.21466179
26.73834629,4.824916534,-1.213975525,-7.299720154,8.833995159
26.74828529,4.921465759,-0.6403683472,-5.501808929,7.409507294
26.75822529,4.763993225,-0.3695814514,-3.726351013,6.059530821
26.76816429,4.398004303,-0.2481838989,-2.371668091,5.002883831
26.77810329,4.021237793,-0.3161425781,-1.258283386,4.225349287
26.78804329,4.058959351,-0.5514532471,-0.6310876465,4.144577579
26.79798229,4.29067749,-0.6077362061,-0.1805245972,4.337262472
26.80792129,4.143084412,-0.172591095,0.1853146362,4.150816503
26.81786129,3.336711273,0.4243675232,0.6562353516,3.427006675
26.82780029,2.567610626,0.8945397949,1.086291046,2.927943649
26.83773929,2.199226685,1.07177124,2.175276489,3.273701179
26.84767929,1.582958221,0.9096583557,4.331841888,4.700860475
26.85761829,0.6376739502,0.4462220764,4.812043304,4.87457721
26.86755729,-0.43409729,0.1088237,4.960235138,4.980383086
26.87749729,-1.093925171,-0.1657054138,4.338428192,4.477285979
26.88743629,-0.3074606323,-0.01002914429,1.647623749,1.676095654
26.89737529,-0.1103205872,0.02993774414,1.603465576,1.607534993
26.90731529,-0.9744735718,-0.01616638184,2.734663239,2.903143662
26.91725429,-3.299738159,-0.1890568542,2.035766602,3.881798561
26.92719329,-4.539759521,1.071322174,-1.468895416,4.890276215
26.93713329,-2.624342651,0.9598040771,-3.612737274,4.567304329
26.94707229,-35.88203293,3.608845367,-24.69399857,43.70740918
26.95701129,-80.46921341,-11.97195419,-69.67156723,107.1109204
26.96695129,-77.98153656,-33.24496674,-63.45020462,105.8880367
26.97689029,-76.13647339,-20.86241638,-23.00850357,82.22769749
26.98682929,-49.28411316,-8.098309479,5.534141693,50.25070299
26.99676929,-20.88921066,-4.456981659,13.31316513,25.16871418
27.00670829,-13.62721207,-3.93037674,6.267466736,15.50580244
27.01664729,-10.67550018,-3.188818817,0.290994873,11.14538235
27.02658729,-6.164929962,-1.881287842,-0.483943634,6.463730101
27.03652629,-1.439855804,-0.7710466003,-1.007704468,1.9191576
27.04646529,0.5926176453,-0.7185058594,-3.19555481,3.328515718
27.05640529,1.110690308,-0.7719447327,-4.700824585,4.891552249
27.06634429,1.536704407,-0.6698570251,-4.93538681,5.212313482
27.07628329,1.645827484,-0.5813909912,-5.089566193,5.380562017
27.08622329,1.723964996,-0.5122348022,-4.678221588,5.01200529
27.09616229,1.748364258,-0.5406756592,-4.204456787,4.585473217
27.10610129,2.098785553,-0.5598358154,-4.476141815,4.975355514
27.11604129,2.167193298,-0.6574328613,-4.96233078,5.454692616
27.12598029,1.822460175,-1.017883301,-5.535937958,5.916422616
27.13591929,1.140628052,-1.35378479,-5.907465363,6.167001915
27.14585929,-0.5474116516,-1.331032104,-5.851930847,6.026309038
27.15579829,-2.935096436,-1.103205872,-5.776637421,6.572776747
27.16573729,-4.000281372,-1.172511749,-5.44328064,6.856116902
27.17567729,-3.931125183,-1.649569702,-4.994214478,6.566353909
27.18561629,-3.286415863,-1.601519623,-4.487817535,5.78842816
27.19555529,-2.188598785,-1.024469604,-4.44395874,5.058485139
27.20549529,-0.9148974609,-0.2698887634,-4.810097351,4.903765271
27.21543429,-0.07349716187,0.05269042969,-5.716163177,5.716878483
27.22537329,0.746048584,0.3844006348,-6.833739166,6.885081214
27.23531329,1.939217377,0.613125,-7.704628143,7.9685495
27.24525229,2.869832153,0.4508624268,-7.795788574,8.319467111
27.25519129,3.049159241,0.442180481,-7.426805878,8.040543588
27.26513129,2.893932037,0.112565918,-6.294261017,6.928581058
27.27507029,2.837798767,-0.3844006348,-4.5586203,5.383482584
27.28500929,3.091820526,-0.652792511,-3.458857269,4.68499582
27.29494929,3.561543732,-0.5423222351,-3.068169708,4.732057958
27.30488829,3.724704437,-0.09430389404,-2.846031647,4.688519223
27.31482729,3.43999649,0.229921875,-2.51102829,4.265173267
27.32476729,3.018473053,0.369282074,-2.205363922,3.756484906
27.33470629,2.478396149,0.4450245667,-1.93772049,3.177303106
27.34464629,1.853296051,0.4999603271,-1.632205811,2.519675056
27.35458529,1.239871674,0.4493655396,-1.204994202,1.786399222
27.36452429,0.7937992859,0.36389328,-0.7688012695,1.163439305
27.37446429,0.5047503662,0.2260299683,-0.4475692749,0.7114637971
27.38440329,0.3782633972,0.2121089172,-0.2091151428,0.4814587557
27.39434229,0.4041595459,0.2640509033,0.3817062378,0.6154408745
27.40428229,0.5529501343,0.2297721863,0.9258247375,1.102588116
27.41422129,0.1332229614,0.1026864624,1.26022934,1.271405071
27.42416029,0.193996582,-0.0853225708,2.627785492,2.636317736
27.43410029,0.9515711975,-0.597557373,0.4132905579,1.197234999
27.44403929,-0.9672885132,-1.025667114,0.002245330811,1.409838692
27.45397829,-7.465575256,-2.171384583,-0.3531156921,7.782956739
27.46391829,-43.7601503,-8.118966522,-5.96749054,44.90522592
27.47385729,-79.81567245,-13.49309097,30.13922516,86.37695275
27.48379629,-78.75363098,-0.2538720703,47.74651062,92.09738389
27.49373629,-74.97952927,5.139113159,77.53411697,107.9809223
27.50367529,-46.34781921,4.188290405,67.71753067,82.16645351
27.51361429,-34.70323425,4.114493866,36.68496323,50.66586676
27.52355429,-34.05029205,0.8783734131,9.743238831,35.42773817
27.53349329,-21.53736282,0.340841217,-4.3117836,21.9673769
27.54343229,-8.894204407,-0.004041595459,-3.953279114,9.733206261
27.55337229,-2.524949341,0.3085084534,-3.109483795,4.017391705
27.56331129,0.5258564758,0.3936813354,-2.2056633,2.301404054
27.57325029,1.565444641,0.02993774414,-1.89790329,2.460396328
27.58319029,1.719324646,-0.4198768616,-2.053130493,2.710667563
27.59312929,1.816322937,-0.5864804077,-2.026186523,2.78359841
27.60306829,2.16000824,-0.633482666,-1.934277649,2.967889133
27.61300829,2.175575867,-0.5565426636,-1.480571136,2.689788278
27.62294729,2.356699219,-0.2568658447,-1.063688049,2.598354005
27.63288629,2.6210495,0.03637435913,-0.8024812317,2.741386456
27.64282629,2.763553162,0.09190887451,-0.5346881104,2.816303374
27.65276529,3.058739319,-0.06077362061,-0.8845106506,3.18464107
27.66270429,3.507356415,-0.03382965088,-1.750010834,3.919850939
27.67264429,2.518662415,-0.3899391174,-3.89055954,4.651039282
27.68258329,0.1119671631,-1.3748909,-6.334377594,6.482838972
27.69252229,-1.050216064,-2.249522095,-7.795788574,8.181541599
27.70246229,-0.9285191345,-3.075354767,-8.925788727,9.486287953
27.71240129,-1.228046265,-3.877536621,-10.75812836,11.5013353
27.72234029,-0.9463320923,-4.189487915,-11.902798,12.65400939
27.73228029,-0.5348377991,-4.011208649,-12.49796036,13.13677508
27.74221929,0.3135978699,-4.082161102,-12.66381546,13.3091925
27.75215829,1.122815094,-4.158053284,-12.0873642,12.83177673
27.76209829,2.032922516,-3.998485107,-11.44265488,12.29044376
27.77203729,3.156785431,-3.488645325,-10.91859467,11.88914
27.78197629,3.970343628,-2.887345734,-9.709109802,10.87966944
27.79191654,4.160448303,-2.271975403,-8.257727966,9.521621368
27.80185554,3.941154327,-1.71184021,-6.734645233,7.988650747
27.81179454,3.581152954,-1.25903183,-5.479954376,6.666312144
27.82173454,3.217409363,-0.9376501465,-4.489164734,5.602098786
27.83167354,2.841091919,-0.6840774536,-3.476819916,4.54181043
27.84161254,2.503094788,-0.4529580688,-2.478994904,3.55191079
27.85155254,2.163002014,-0.2442919922,-1.497186584,2.641935646
27.86149154,2.048190765,-0.09175918579,-0.8267308044,2.210653519
27.87143054,2.745440826,-0.1243913269,-0.5677693176,2.806293023
27.88137054,3.588188324,-0.14040802,-0.5848338318,3.638246895
27.89130954,3.989204407,0.02619552612,0.2436932373,3.99672671
27.90124854,3.181035004,0.3936813354,0.9466314697,3.342166936
27.91118854,0.582588501,0.4602928162,3.791465607,3.863481627
27.92112754,-0.869841156,0.2200424194,7.399113464,7.453316199
27.93106654,-1.54568573,-0.0347277832,7.022646332,7.190821365
27.94100654,-1.247505798,0.009430389404,4.267026672,4.445658137
27.95094554,-0.1092727661,-0.01242416382,1.82410675,1.827419036
27.96088454,0.3727249146,0.003592529297,0.5498066711,0.6642470503
27.97082454,-1.696272583,0.03532653809,3.049608307,3.489799345
27.98076354,-1.106349335,0.1954934692,0.6340814209,1.290072012
27.99070254,-16.78998505,-0.9806108093,-2.222278748,16.96477876
28.00064254,-77.75041718,-3.064876556,-16.59209656,79.56015653
28.01058154,-78.71695724,1.200802917,-13.37663315,79.85446512
28.02052054,-78.11925018,-7.775879974,30.26376617,84.1366573
28.03046054,-64.70549423,-1.553469543,53.73660416,84.1239376
28.04039954,-42.00011032,-0.8000862122,8.846154327,42.92905603
28.05033854,-22.57515472,-1.839075623,1.780397644,22.7198069
28.06027854,-11.79681839,-1.584455109,-0.1378633118,11.90354688
28.07021754,-4.165388031,-1.37249588,-1.847907257,4.759092731
28.08015654,-0.1493893433,-1.051263885,-2.40564743,2.629565077
28.09009654,1.103804626,-0.776585083,-3.049757996,3.335040161
28.10003554,1.467847595,-0.6683601379,-3.235222321,3.614961314
28.10997454,1.436562653,-0.6147715759,-3.359913025,3.705492124
28.11991454,1.454824677,-0.5472619629,-3.436254272,3.771452495
28.12985354,1.476379852,-0.5610333252,-3.548670502,3.884265463
28.13979254,1.420396271,-0.6798861694,-3.592080231,3.922092701
28.14973254,1.391656036,-0.8422984314,-3.323239288,3.700012505
28.15967154,1.679507446,-0.9903405762,-3.833079071,4.300466822
28.16961054,1.925446014,-1.23912323,-4.781207428,5.301199223
28.17955054,2.26299408,-1.584754486,-5.450615387,6.11079349
28.18948954,2.308798828,-1.800306244,-5.377567291,6.12289838
28.19942854,2.018851776,-1.833986206,-4.620741119,5.36567949
28.20936854,1.689686279,-1.842817841,-3.879781952,4.615595878
28.21930754,1.482966156,-1.753004608,-3.743864594,4.391894337
28.22924654,1.542242889,-1.251248016,-4.053420868,4.513796125
28.23918654,0.9175918579,-1.299447784,-5.76855423,5.98387477
28.24912554,0.5051994324,-1.914668427,-8.310119019,8.542789928
28.25906454,1.182540894,-1.605860596,-8.899443512,9.120158225
28.26900454,2.201322327,-1.692829742,-9.311087494,9.716369839
28.27894354,2.647993469,-2.115999756,-7.90625885,8.602223746
28.28888254,3.334016876,-2.346520386,-5.812862091,7.100083953
28.29882254,4.196523285,-2.5613237,-5.696853333,7.524980044
28.30876154,4.876259766,-2.576442261,-5.719905396,7.945645459
28.31870054,5.365143127,-2.354603577,-5.39059021,7.961619282
28.32864054,5.157375183,-1.582658844,-5.473068695,7.684907855
28.33857954,4.698279877,-0.9036708069,-5.600304108,7.365722017
28.34851854,4.2029599,-0.3475772095,-5.272036743,6.751300116
28.35845854,3.801794128,0.02005828857,-4.246818695,5.699957014
28.36839754,3.417692871,0.2210902405,-2.95216095,4.521588187
28.37833654,3.121907959,0.417481842,-1.926793213,3.692307203
28.38827654,2.490371246,0.5445675659,-1.21098175,2.82222954
28.39821554,1.790726166,0.5474116516,-0.6816824341,1.992749522
28.40815454,1.466500397,0.553099823,-0.2969824219,1.595224557
28.41809454,1.391955414,0.5420228577,-0.04580474854,1.494465365
28.42803354,1.542691956,0.5908213806,0.1025367737,1.65513811
28.43797254,1.904639282,0.6971003723,0.1269360352,2.032169403
28.44791254,2.47001358,0.687071228,-0.1293310547,2.567052879
28.45785154,3.463796997,0.3760180664,-1.614841919,3.84018146
28.46779054,1.33387619,-1.188678131,-4.184847565,4.55028906
28.47773054,-2.221081238,-2.685565338,-4.969665527,6.069846662
28.48766954,-5.642965393,-2.892884216,-6.54783371,9.115150235
28.49760854,-48.52908325,-17.50669464,-18.48790421,54.80290942
28.50754854,-81.18891678,-47.6352919,-0.2697390747,94.13200307
28.51748754,-78.35351303,-24.00632858,19.52554642,84.24264822
28.52742654,-78.50200424,11.9174675,24.25600937,83.0237598
28.53736654,-59.03977615,11.5591127,65.68281189,89.07042176
28.54730554,-35.3793782,8.551716614,52.36590454,63.77319357
28.55724454,-30.9521846,4.146976318,15.84425171,35.01821606
28.56718454,-14.03601196,-0.2254312134,7.807913361,16.06312429
28.57712354,-11.24551483,-0.8011340332,-0.8184979248,11.30368782
28.58706354,-7.801177368,-0.5878276062,-2.18216217,8.121929658
28.59700254,-3.815116425,-0.5966592407,-2.298919373,4.494012223
28.60694154,-1.225651245,-0.4270619202,-2.414029999,2.740829016
28.61688054,0.4131408691,-0.4453239441,-2.321222992,2.399390542
28.62682054,1.035995636,-0.554147644,-2.71340744,2.956847393
28.63675954,1.328337708,-0.655486908,-3.147055664,3.478232813
28.64669854,1.557511139,-0.7375163269,-3.109932861,3.555482201
28.65663854,1.634750519,-0.8177494812,-2.762505341,3.312485355
28.66657754,1.548978882,-0.9425898743,-2.088307343,2.765653414
28.67651654,1.276395721,-1.244362335,-1.59014328,2.388761041
28.68645654,0.6963519287,-1.357377319,-1.814526672,2.370629925
28.69639554,-0.5614823914,-1.126257935,-3.345393219,3.574265687
28.70633454,-2.754122772,-1.274300079,-6.192772064,6.89633662
28.71627454,-4.430037689,-1.960622864,-8.428522797,9.721587961
28.72621354,-4.958588562,-2.442620544,-9.759255524,11.21592903
28.73615254,-3.054398346,-2.595602417,-10.59421921,11.32713476
28.74609254,0.2201921082,-2.06869812,-10.99343903,11.1885521
28.75603154,1.544338531,-1.794019318,-11.2751532,11.52096205
28.76597054,2.698737946,-1.681004333,-11.01155136,11.46137974
28.77591054,3.474275208,-1.740580444,-9.939780121,10.67236794
28.78584933,3.972888336,-1.794767761,-9.088949432,10.0803787
28.79578833,4.320465546,-1.475781097,-7.537276154,8.812200871
28.80572833,4.23334671,-1.123413849,-6.243067474,7.626216266
28.81566733,4.142635345,-0.8202941895,-5.335953827,6.804903629
28.82560633,4.139940948,-0.2019300842,-4.318369904,5.985666666
28.83554633,3.83083374,0.4189787292,-3.323688354,5.088981686
28.84548533,3.273991699,0.9608518982,-2.562820587,4.267353674
28.85542433,2.751428375,1.141825562,-2.147584076,3.672361785
28.86536433,2.473306732,1.101259918,-2.008672943,3.371169914
28.87530333,2.261946259,1.213676147,-1.91077652,3.20007462
28.88524233,2.08276886,1.208586731,-1.744921417,2.973778533
28.89518233,1.881437531,1.056203613,-1.594484253,2.68286289
28.90512133,1.670376434,0.8616082764,-1.438807983,2.367001197
28.91506133,1.356479187,0.6679110718,-1.161285095,1.906495229
28.92500033,0.9431886292,0.4905299377,-0.767454071,1.311186547
28.93493933,0.5098397827,0.3143463135,-0.316741333,0.6775509434
28.94487833,0.3535647583,0.3860472107,0.2941383362,0.6004646934
28.95481833,0.352666626,0.4950205994,0.9595046997,1.135811785
28.96475733,-0.01466949463,0.5542973328,1.357527008,1.466403868
28.97469633,-0.729433136,1.002315674,0.7333250427,1.440303797
28.98463633,-1.245410156,1.626966705,0.3353027344,2.076173172
28.99457533,-0.3939807129,1.250349884,0.4490661621,1.385733038
29.00451433,0.2962339783,0.2670446777,-1.024319916,1.099226419
29.01445433,-1.773661652,0.2975811768,0.5827381897,1.890506284
29.02439333,-12.90062302,-0.7402107239,-0.9756710815,12.95862339
29.03433233,-64.67989746,-8.737929382,11.20854172,66.22289599
29.04427233,-80.64749268,-14.37909851,42.10100052,92.10467303
29.05421133,-78.52131409,-16.51171371,67.03435135,104.5554289
29.06415033,-69.60540482,-9.673334198,71.23012619,100.0610646
29.07409033,-32.2700441,-2.325713654,45.29910004,55.66662514
29.08402933,-29.34826996,-2.382445679,7.912246399,30.4893529
29.09396833,-19.79483643,-2.935545502,-2.262245636,20.13878675
29.10390833,-10.81770447,-2.587668915,-2.460283813,11.39174073
29.11384733,-4.915627899,-1.969903564,-2.941383362,6.057693767
29.12378633,-1.156495056,-1.665885773,-3.298390961,3.871955469
29.13372633,0.4260140991,-1.532513123,-3.560495911,3.899643011
29.14366533,1.100212097,-1.625619507,-3.787424011,4.265874597
29.15360433,1.353036346,-1.715283051,-3.765868835,4.35369629
29.16354433,1.525028687,-1.768422546,-3.694766693,4.370850228
29.17348333,1.576521606,-1.848805389,-3.406466217,4.184198111
29.18342233,1.411564636,-2.010469208,-3.074756012,3.935559133
29.19336233,1.194515991,-2.120340729,-2.643053741,3.592832634
29.20330133,0.8150550842,-2.296374664,-2.660118256,3.607475644
29.21324033,0.3894900513,-2.564616852,-3.910019073,4.692250127
29.22318033,-0.2755769348,-2.638862457,-5.082680511,5.733513661
29.23311933,-1.661095734,-2.05118454,-6.320456543,6.849435595
29.24305833,-2.670596466,-1.320404205,-7.665559387,8.224132384
29.25299833,-2.511926422,-0.8707392883,-7.779622192,8.221343121
29.26293733,-1.593137054,-1.219514008,-7.527696075,7.790475486
29.27287633,-0.5899232483,-1.441203003,-8.065677338,8.214634894
29.28281633,0.04670288086,-1.068927155,-8.859326935,8.923702155
29.29275533,0.655486908,-0.518821106,-8.867260437,8.906578809
29.30269433,1.523980865,-0.01047821045,-8.365952911,8.503634258
29.31263433,2.279609528,0.0940045166,-7.870782623,8.194795638
29.32257333,2.430944824,-0.1344204712,-6.698121185,7.126877929
29.33251233,2.115999756,0.0008981323242,-6.143075409,6.497294149
29.34245233,1.277593231,0.1311273193,-5.729335785,5.871518319
29.35239133,0.8283773804,0.502205658,-4.472399597,4.576109457
29.36233033,0.6997947693,1.035247192,-3.578608246,3.790499498
29.37227033,0.872535553,0.8833131409,-3.188818817,3.422006114
29.38220933,1.154549103,0.9355545044,-2.329306183,2.762953701
29.39214833,1.350341949,1.08000412,-1.592238922,2.350543993
29.40208833,1.266815643,1.28358078,-0.9767189026,2.050946442
29.41202733,0.8863069153,1.415306854,-0.4198768616,1.721897215
29.42196633,0.6087840271,1.423839111,-0.04535568237,1.549191061
29.43190633,0.3763174438,1.31396759,0.2495310974,1.389385265
29.44184533,0.2787203979,1.048868866,0.0722996521,1.087675594
29.45178433,0.65758255,0.8412506104,-0.2516267395,1.097011128
29.46172433,1.315314789,0.6863227844,-0.7911048889,1.681350321
29.47166333,1.669927368,0.4860392761,-1.474882965,2.280388422
29.48160233,1.430724792,0.4450245667,-1.715881805,2.277997074
29.49154233,0.8979826355,0.467328186,-1.490151215,1.801476919
29.50148133,0.9219328308,0.1649569702,-2.511627045,2.680567358
29.51142033,-0.6096821594,-1.015787659,-4.781357117,4.925942832
29.52136033,-3.401676178,-1.628313904,-4.417763214,5.808565985
29.53129933,-15.40686127,-5.920338593,-6.296057281,17.66528008
29.54123833,-51.54785568,-19.04309967,-3.2434552,55.04853379
29.55117833,-80.35994064,-45.61748795,30.79141891,97.4001373
29.56111733,-79.07576111,-41.77168533,45.11258789,100.1648405
29.57105633,-75.21049896,1.269060974,53.88988541,92.53296396
29.58099633,-44.9479303,-2.302362213,78.0155159,90.06685312
29.59093533,-27.67070847,-10.13871643,64.23397476,70.67153028
29.60087433,-40.46400467,-2.627186737,19.91713211,45.17665255
29.61081433,-24.72303818,-1.369202728,-0.6384223938,24.76915251
29.62075333,-11.00152222,-0.1797761536,1.183588715,11.06646704
29.63069233,-5.655988312,1.582060089,-0.9659413147,5.951987948
29.64063233,-1.367705841,1.923799438,-2.124681702,3.175829951
29.65057133,0.6744973755,0.9051676941,-2.027234344,2.320334965
29.66051033,1.285377045,-0.0137713623,-2.148631897,2.503797681
29.67045033,1.684447174,-0.6487509155,-2.874622192,3.394361911
29.68038933,2.050436096,-1.004411316,-3.296295319,4.009824573
29.69032833,2.196382599,-1.039737854,-3.209475861,4.025653565
29.70026833,2.188898163,-0.9645941162,-3.136427765,3.944476657
29.71020733,2.007325745,-0.8949888611,-3.017125854,3.732748334
29.72014633,1.923500061,-0.8449928284,-2.778671722,3.483515739
29.73008633,1.984573059,-0.7548802185,-2.29802124,3.12878187
29.74002533,2.17048645,-0.734223175,-1.825603638,2.929662735
29.74996433,2.277813263,-0.9139993286,-1.521436157,2.887662725
29.75990433,2.249522095,-0.6276448059,-1.998045044,3.073511291
29.76984333,1.910626831,0.07170089722,-3.604654083,4.080339075
29.77978233,1.753154297,-0.3830534363,-5.665867767,5.943259836
29.78972258,-0.1330732727,-1.42518631,-6.578370209,6.732296719
29.79966158,-0.08771759033,-2.432741089,-7.28729599,7.683137798
29.80960058,0.3255729675,-2.735860748,-8.408464508,8.848344883
