Time (s),Acceleration x (m/s^2),Acceleration y (m/s^2),Acceleration z (m/s^2),Absolute acceleration (m/s^2)
4.973130417,-5.39059021,-26.47783905,3.53370163,27.25108201
4.983069417,-9.073082428,-23.11283661,4.812492371,25.29197746
4.993009417,-10.85916824,-20.98037109,5.424419861,24.23884975
5.002948417,-11.7900824,-19.92820908,5.165009308,23.72376195
5.012888417,-12.58403137,-18.98951111,4.818479919,23.28469726
5.022827417,-12.46892075,-17.35146744,3.707041168,21.68616059
5.032766417,-11.68889282,-15.10673538,2.763553162,19.29976413
5.042706417,-10.78731766,-12.48074615,2.664758606,16.71036161
5.052645417,-9.615404663,-9.918674011,2.926115112,14.12084454
5.062584417,-7.874973907,-8.104147339,2.702480164,11.61877004
5.072524417,-5.838458862,-6.861730957,2.035616913,9.236595143
5.082463417,-4.230802002,-5.914051666,1.53745285,7.432324936
5.092402417,-2.659968567,-5.097499695,0.5355862427,5.774667829
5.102342417,-1.246308289,-4.237837372,-0.656534729,4.465824425
5.112281417,-0.2805166626,-3.32189209,-1.032403107,3.489915877
5.122221417,0.397124176,-2.239343262,-0.8354127502,2.422866137
5.132160417,0.9232800293,-0.7967930603,-0.2426454163,1.243463707
5.142099417,1.362616425,0.7719447327,0.8836125183,1.798163862
5.152039417,1.741777954,1.963616638,2.003284149,3.301927941
5.161978417,2.305954742,2.908302155,2.801873474,4.650391775
5.171917417,2.944526825,3.556005249,3.317850494,5.685379799
5.181857417,3.72201004,3.701502686,3.724255371,6.436191338
5.191796417,4.424349518,3.283122711,3.264112244,6.403763903
5.201735417,4.366569672,2.271975403,1.790127411,5.237686424
5.211675417,3.251089325,1.105451202,0.8373587036,3.534511813
5.221614417,2.067201233,0.2616558838,0.4132905579,2.124286662
5.231554417,1.563648376,-0.1778302002,0.1338217163,1.579407508
5.241493417,1.20753891,-0.5041516113,-0.1347198486,1.31547273
5.251432417,0.9987231445,-0.7776329041,-0.3848497009,1.322977757
5.261372417,0.8637039185,-0.9804611206,-0.6042933655,1.439603744
5.271311417,0.6613247681,-1.096469879,-0.9478289795,1.593102765
5.281250417,0.4114942932,-1.123862915,-1.367256775,1.817081862
5.291190417,0.1046324158,-1.117126923,-1.636397095,1.984115913
5.301129417,-0.21061203,-1.047671356,-1.79611496,2.08997647
5.311068417,-0.445922699,-0.9331594849,-1.772015076,2.051748305
5.321008417,-0.5792953491,-0.8077203369,-1.491049347,1.791988672
5.330947417,-0.5222639465,-0.7116201782,-1.127305756,1.431775532
5.340887417,-0.3273692322,-0.8117619324,-0.7788304138,1.171624881
5.35082625,0.03787124634,-1.136736145,0.2399510193,1.162402592
5.36076525,0.7426057434,-1.775757294,6.792724457,7.06016167
5.37070525,-0.4032614136,-3.156785431,22.71256897,22.9344436
5.38064425,-2.889291687,-5.67963913,13.84605698,15.24203401
5.39058325,-2.753823395,-4.297413483,-5.893095245,7.796145041
5.40052325,-4.020339661,-5.052144012,-2.633323975,6.972925158
5.41046225,-7.551047516,-7.966433716,0.3779640198,10.98295231
5.42040225,-8.902287598,-10.99403778,-1.574276276,14.23369021
5.43034125,-12.60723312,-17.91983551,2.701432343,22.07624444
5.44028025,-17.78930695,-29.90346542,10.12150223,36.23701827
5.45022025,-22.77663574,-38.19786713,1.99969162,44.51798463
5.46015925,-26.10122223,-40.92504593,-5.619613953,48.8642328
5.47009825,-25.71517502,-48.26413422,-3.046464844,54.77205333
5.48003825,-14.33658691,-48.03840363,3.878285065,50.28187588
5.48997725,-4.915777588,-36.31568115,3.771856384,36.84047322
5.49991625,-4.396806793,-28.29416199,6.729555817,29.41391565
5.50985625,-7.729476471,-23.36326584,11.79113022,27.28768493
5.51979525,-10.20487885,-20.470681,12.04859482,25.85260083
5.52973525,-11.43397293,-19.71385483,8.670868835,24.38351442
5.53967425,-12.08706482,-19.20027283,5.053191833,23.24397471
5.54961325,-11.94755493,-17.88136551,2.774031372,21.68369321
5.55955325,-11.33981873,-15.24654465,1.612596588,19.06958521
5.56949225,-10.32448013,-12.39347763,1.13493988,16.17038238
5.57943125,-8.823251953,-9.977202301,0.8982820129,13.34920415
5.58937125,-6.856940918,-8.19291275,0.3556604004,10.68961891
5.59931025,-4.79153595,-6.919061737,-0.4183799744,8.426581388
5.60924925,-3.056643677,-5.534441071,-1.353635101,6.465712375
5.61918925,-1.488205261,-4.057312775,-2.183060303,4.841724294
5.62912825,-0.5185217285,-2.651735687,-2.505340118,3.68473826
5.63906825,0.01721420288,-1.346300354,-2.356250153,2.713804664
5.64900725,0.4733157349,-0.2653981018,-1.928739166,2.003621399
5.65894625,0.845741272,0.637224884,-1.294807434,1.672680526
5.66888625,1.103954315,2.037263489,0.3659889221,2.345869891
5.67882525,1.260977783,3.812871094,2.654579773,4.814025833
5.68876425,1.703307953,4.735552368,3.982169037,6.417506093
5.69870425,3.028951263,4.937632141,4.596940613,7.395040224
5.70864325,4.238735504,4.431235199,4.530478821,7.624169621
5.71858225,4.794080658,3.398981781,4.005969543,7.112248483
5.72852225,4.557123413,2.262694702,3.050805817,5.93250177
5.73846125,3.356619873,1.249900818,2.100581818,4.152299724
5.74840125,2.22197937,0.5930667114,1.407972107,2.696535907
5.75834025,1.748513947,0.2920426941,0.8574169922,1.969201324
5.76827925,1.331780548,0.2092648315,0.5794450378,1.467374441
5.77821925,1.233135681,-0.05239105225,0.5891748047,1.36766055
5.78815825,1.53041748,-0.5662724304,0.242795105,1.649785317
5.79809725,1.480720825,-0.7860154724,-0.4526586914,1.736448783
5.80803725,0.9276210022,-0.7352709961,-0.8547225952,1.460018793
5.81797625,0.6176156616,-0.8443940735,-0.8873547363,1.371804973
5.82791525,0.3460803223,-0.9804611206,-0.8695417786,1.35542558
5.83785525,0.1657054138,-1.037791901,-0.8297245789,1.338997084
5.84779425,0.04640350342,-1.044976959,-0.8030799866,1.318737121
5.85773425,-0.09999206543,-1.120569763,-0.7702981567,1.363464065
5.86767325,-0.228874054,-1.295705566,-0.4906796265,1.404280151
5.87761225,-0.6102809143,-1.324745178,1.426982574,2.040507743
5.88755225,-1.622326355,-1.194216614,3.425476685,3.973913265
5.89749125,-2.365979919,-1.243314514,3.598516846,4.482523335
5.90743025,-2.870580597,-1.573378143,4.336781616,5.433546405
5.91737025,-6.111191711,-3.523522797,12.03512283,13.95012755
5.92730925,-4.286635895,-5.171445923,4.766837311,8.236615699
5.93724825,-1.696871338,-4.142186279,-2.795586548,5.277535756
5.94718825,-4.119732971,-6.250402222,-2.798580322,7.991982201
5.95712725,-7.110812988,-9.922266541,-3.624712372,12.73395361
5.96706725,-10.91185867,-15.42946426,-3.633394318,19.24418305
5.97700625,-17.42646149,-31.3716124,5.406606903,36.29174868
5.98694525,-26.03266479,-45.47438553,6.425238647,52.79112678
5.99688525,-31.04723694,-44.34498413,-4.579576721,54.32661467
6.00682425,-31.73475723,-49.26749771,-2.407743073,58.6530338
6.01676325,-22.15931946,-46.07703232,8.102051697,51.76651029
6.02670325,-14.41547287,-31.50812851,9.509574738,35.93048889
6.03664225,-13.19027069,-21.55173294,7.367828522,26.32005568
6.04658125,-12.33539841,-16.07552078,9.272168427,22.28357085
6.05652125,-11.1238179,-15.10314285,8.794062653,20.71665481
6.06646025,-9.06230484,-17.15926712,6.417604523,20.43896927
6.07640025,-7.52245697,-19.32451447,4.542004852,21.22861339
6.08633925,-6.969955902,-19.18904617,2.851570129,20.61386016
6.09627825,-6.417604523,-16.94700851,1.627864838,18.19441368
6.10621825,-6.19441864,-13.80055161,1.311572571,15.18375018
6.11615725,-5.99203949,-10.74480606,1.604064331,12.40678915
6.12609625,-5.199737091,-8.217611389,1.372944946,9.820966377
6.13603625,-3.877237244,-6.192322998,0.8580157471,7.356223473
6.14597525,-2.642754364,-4.413721619,0.1154100037,5.145717503
6.15591425,-1.683099976,-3.11831543,-0.7475454712,3.621538468
6.16585425,-0.8515791321,-2.082170105,-1.184486847,2.542366703
6.17579325,-0.06945556641,-1.191372528,-1.114282837,1.632733541
6.18573325,0.6951544189,-0.283510437,-0.7003935242,1.026727287
6.19567225,1.511407013,0.7131170654,0.126486969,1.675973168
6.20561125,2.25356369,1.704056396,1.316063232,3.116790006
6.21555125,2.834954681,2.548300781,2.444566498,4.528433535
6.22549025,3.14046936,3.137475586,2.951861572,5.331021253
6.23542925,3.074456635,3.256029053,2.519560547,5.138306544
6.24536925,2.772833862,2.802472229,1.334624634,4.162172646
6.25530825,2.495011597,2.032024384,0.07379653931,3.218641312
6.26524725,2.208357697,1.478774872,-0.6574328613,2.73785259
6.27518725,1.60885437,1.135089569,-0.8672964478,2.151521286
6.28512625,0.8128097534,0.6671626282,-0.79215271,1.316537726
6.29506625,0.3456312561,0.36389328,-0.7590715027,0.9099828738
6.30500525,0.1444496155,0.2118095398,-0.798589325,0.8387334991
6.31494425,0.07544311523,0.1826202393,-0.8141569519,0.8377907601
6.32488425,-0.06376739502,0.2460882568,-0.05538482666,0.2601791495
6.33482325,-0.503253479,0.48559021,1.838027802,1.966572682
6.34476225,-1.109792175,0.4297563171,1.963167572,2.295725611
6.3547025,-1.263223114,0.08756790161,1.598825226,2.039520256
6.3646415,-1.207688599,-0.1588197327,1.219663696,1.723750269
6.3745805,-1.052461395,-0.3246748352,0.8214916992,1.374022325
6.3845205,-0.886456604,-0.4716691589,0.5843847656,1.161801472
6.3944595,-0.7349716187,-0.8129594421,0.7855664063,1.348406806
6.4043985,-0.4929249573,-1.551972656,2.058369598,2.62459131
6.4143385,-0.1667532349,-2.642604675,6.312523041,6.845371666
6.4242775,-0.5807922363,-4.259392548,11.13414642,11.93519841
6.4342175,-2.416874084,-5.725294189,6.142177277,8.73765504
6.4441565,-1.62996048,-3.129093018,-2.241289215,4.179876987
6.4540955,-1.564247131,-3.565884705,-2.659220123,4.715278834
6.4640355,-3.32189209,-6.374045105,-2.91354126,7.755781117
6.4739745,-5.991590424,-10.2943927,-2.778671722,12.23089095
6.4839135,-10.63433578,-16.19587051,-2.507286072,19.5366784
6.4938535,-16.12207397,-24.72049347,-2.72044281,29.63823334
6.5037925,-23.33632187,-46.47580307,2.051034851,52.04604628
6.5137315,-28.58575562,-55.29052277,2.282752991,62.28481591
6.5236715,-27.49392609,-52.99100464,2.337688751,59.74468456
6.5336105,-19.205961,-45.59219055,9.18519928,50.31783643
6.5435505,-14.26458664,-29.84388931,9.662107544,34.46001282
6.5534895,-13.44459183,-21.25205612,6.167774048,25.89301789
6.5634285,-12.03392532,-16.92096268,5.273833008,21.42306353
6.5733685,-10.8052803,-16.49375107,2.975811768,19.94124776
6.5833075,-10.06417145,-17.07229797,1.359472961,19.86451791
6.5932465,-9.72452774,-17.0573291,0.3118016052,19.6371112
6.6031865,-9.170978851,-15.86371124,-0.3504212952,18.32721972
6.6131255,-8.142767029,-13.70265518,-0.646355896,15.95259195
6.6230645,-6.601871338,-11.42948227,-0.4840933228,13.20803227
6.6330045,-4.865482178,-9.274264069,-0.1579216003,10.47424604
6.6429435,-3.351380768,-7.456444244,-0.0722996521,8.175300671
6.6528835,-2.176923065,-5.804629211,-0.04086502075,6.199547102
6.6628225,-1.323248291,-4.004622345,-0.0477507019,4.21785091
6.6727615,-0.5204676819,-2.277813263,0.1113684082,2.33917139
6.6827015,0.4056564331,-0.4724176025,0.8568182373,1.059185076
6.6926405,1.094523926,1.430425415,2.08157135,2.752642145
6.7025795,1.479074249,3.201841736,3.512296143,4.977516984
6.7125195,1.973795471,4.509821777,4.618495789,6.750175137
6.7224585,2.454296265,5.037025452,4.953648834,7.478892453
6.7323975,2.955903168,4.857398987,4.469256134,7.232284483
6.7423375,3.481460266,4.294120331,3.449576569,6.516104166
6.7522765,3.964954834,3.403921509,2.256557465,5.692064657
6.7622165,4.123175812,2.187850342,1.193617859,4.817882469
6.7721555,3.138373718,0.8354127502,0.5162763977,3.288441177
6.7820945,1.99385376,0.1426533508,-0.1426533508,2.004034125
6.7920345,1.844165039,-0.2731819153,-0.5777984619,1.951774606
6.8019735,1.83817749,-0.5679190063,-0.6054908752,2.016940178
6.8119125,1.628912659,-0.872535553,-0.3716770935,1.884892199
6.8218525,1.437460785,-1.290167084,0.02484832764,1.931694088
6.8317915,1.074765015,-1.703307953,0.2866539001,2.034342222
6.8417305,0.3784130859,-1.887874146,0.1155596924,1.92889069
6.8516705,-0.310304718,-2.116748199,-0.1613644409,2.145448774
6.8616095,-0.7620652771,-2.470163269,-0.3345542908,2.606602508
6.8715485,-0.8646020508,-2.53797226,-0.470022583,2.722087641
6.8814885,-0.7731422424,-2.333647156,-0.5360353088,2.516146225
6.8914275,-0.9410929871,-2.104174347,-0.5728587341,2.375157431
6.9013675,-1.290167084,-1.827848969,-0.7677534485,2.365376992
6.9113065,-1.47084137,-1.672322388,-0.9322613525,2.4143628
6.9212455,-1.473984833,-1.770817566,-0.7547305298,2.424467841
6.9311855,-1.771116943,-2.050136719,-0.3227288818,2.728382254
6.9411245,-2.817441101,-2.894979858,1.200054474,4.214144454
6.9510635,-4.080364838,-4.094435577,2.155667267,6.169333941
6.9610035,-5.806575165,-5.9136026,2.706072693,8.718362247
6.9709425,-7.84309021,-8.479117584,2.873574371,11.90239172
6.9808815,-9.368268585,-11.30179779,1.107247467,14.72144988
6.9908215,-11.90100174,-15.35342239,-0.6755451965,19.43753541
7.0007605,-16.65287018,-23.38871292,-0.6018983459,28.71780387
7.0107005,-23.55831024,-36.89168335,0.7702981567,43.77880356
7.0206395,-30.82644608,-48.4952536,0.05029541016,57.46357045
7.0305785,-33.81962173,-53.19697632,-1.523082733,63.05556982
7.0405185,-23.64527939,-52.46889038,2.768193512,57.61724213
7.0504575,-10.08946884,-41.03626465,9.358838196,43.28233185
7.0603965,-8.920998688,-27.63672913,11.38517441,31.19287115
7.0703365,-10.14964371,-20.34120026,10.82114731,25.17691253
7.0802755,-10.36459671,-16.66993469,9.019643555,21.60244332
7.0902145,-10.35621414,-15.34414169,6.778803406,19.71410742
7.1001545,-10.45126648,-14.55543182,5.164260864,18.64830172
7.1100935,-10.17060013,-13.56628876,3.163072357,17.24790783
7.1200325,-9.106612701,-12.26594284,0.9018745422,15.30350046
7.1299725,-7.448660431,-10.8491391,-0.7503895569,13.18140531
7.1399115,-5.498665466,-9.306746521,-1.872905273,10.97080794
7.1498515,-3.375630341,-7.430847473,-3.112627258,8.735034219
7.1597905,-1.564247131,-5.331014099,-3.758683777,6.707777884
7.1697295,-0.435743866,-3.462599487,-3.297193451,4.801140758
7.1796695,0.2499801636,-1.967209167,-2.168390808,2.938421462
7.1896085,0.3752696228,-0.8015830994,-1.300345917,1.572978785
7.1995475,0.120050354,0.3779640198,-0.7216493225,0.8234358703
7.2094875,0.343535614,1.961221619,0.482895813,2.048803388
7.2194265,1.110989685,4.098327484,2.829416199,5.102566244
7.2293655,1.874402161,6.253845062,5.413342896,8.481051988
7.2393055,2.271676025,6.659651184,5.254672852,8.781973163
7.2492445,2.154020691,4.960684204,2.161505127,5.824113437
7.2591845,1.787133636,3.226690063,-0.2673440552,3.698222309
7.2691235,1.453327789,2.542313232,-0.7354206848,3.019331353
7.2790625,1.177601166,2.307900696,-0.8479866028,2.726211915
7.2890025,0.5908213806,1.921554108,-1.131347351,2.306813153
7.2989415,-0.02409988403,1.536554718,-1.231938171,1.969581901
7.3088805,-0.305514679,1.305734711,-1.252146149,1.834707696
7.3188205,-0.479153595,1.139879608,-1.327738953,1.81433305
7.3287595,-0.5789959717,0.9877958679,-1.438209229,1.838320646
7.3386985,-0.6137237549,0.7815248108,-1.585053864,1.870784228
7.34863875,-0.6613247681,0.5722599792,-1.732197876,1.940448766
7.35857775,-0.7746391296,0.4068539429,-1.839075623,2.036613625
7.36851675,-0.8246351624,0.2254312134,-1.772164764,1.967589981
7.37845675,-0.6792874146,0.0470022583,-1.456321564,1.607642094
7.38839575,-0.5075944519,-0.06945556641,-1.046324158,1.165019505
7.39833575,-0.4326004028,-0.08547225952,-0.6138734436,0.7558367684
7.40827475,-0.6804849243,-0.04745132446,0.356408844,0.7696353841
7.41821375,-1.096020813,-0.1270857239,1.070274353,1.537172597
7.42815375,-1.307680664,-0.4456233215,1.419797516,1.981018387
7.43809275,-0.4138893127,-2.579286346,20.48385361,20.64975257
7.44803175,0.5566923523,-6.674620056,24.20691147,25.11642933
7.45797175,0.8924441528,-8.862769775,11.02247864,14.17180934
7.46791075,-1.585053864,-6.830146637,-3.955823822,8.050580162
7.47784975,-2.679877167,-5.56258255,-7.217541046,9.498261157
7.48778975,-3.322490845,-8.26551178,-6.647077332,11.11491194
7.49772875,-5.296735382,-12.3686293,-6.529871063,14.95585546
7.50766875,-9.556427307,-18.17894669,-6.040388947,21.40760856
7.51760775,-16.83623886,-26.16888153,-5.08522522,31.52980836
7.52754675,-21.25355301,-41.4788942,0.9708810425,46.61710833
7.53748675,-23.52612717,-58.18894547,12.25785965,63.9506619
7.54742575,-20.24974045,-49.16091934,7.821535034,53.74034229
7.55736475,-14.01206177,-38.89601532,9.423803101,42.40337189
7.56730475,-14.41262878,-27.49287827,12.39632172,33.42530502
7.57724375,-14.97800308,-21.76129715,5.428760834,26.96972514
7.58718275,-14.47804276,-19.03112457,0.8577163696,23.92766395
7.59712275,-12.90451492,-18.57996277,0.6044430542,22.62977846
7.60706175,-11.23114471,-20.61318466,-0.7565267944,23.48647113
7.61700075,-10.423125,-20.80987564,-1.38072876,23.31520686
7.62694075,-9.807904358,-18.17370758,-1.324445801,20.69378631
7.63687975,-8.943601685,-15.03952515,-1.418749695,17.55528919
7.64681975,-7.595654755,-12.29558121,-1.540746002,14.53441387
7.65675875,-5.951174469,-9.607171783,-1.270108795,11.3722207
7.66669775,-4.290078735,-6.8332901,-0.3236270142,8.074859974
7.67663775,-3.090024261,-4.825664978,0.5840853882,5.759900013
7.68657675,-2.264940033,-3.54657486,1.15604599,4.364010646
7.69651575,-1.511407013,-2.203417969,1.528770905,3.078399321
7.70645575,-0.649050293,-0.7448510742,2.154320068,2.370055772
7.71639475,0.6300398254,0.817300415,3.359463959,3.514388743
7.72633375,1.845961304,2.197879486,4.498744812,5.33638007
7.73627375,2.796784058,3.345842285,5.235213318,6.813524796
7.74621275,3.772155762,4.469106445,5.797593842,8.234935693
7.75615275,4.789290619,5.21979538,6.283782806,9.469397805
7.76609175,5.400619354,4.575385437,5.249134369,8.812165053
7.77603075,4.875361633,2.861150208,2.634820862,6.236795053
7.78597075,3.121608582,1.039288788,0.2311193848,3.298177905
7.79590975,1.56679184,0.033230896,-0.8834628296,1.799012933
7.80584875,0.9608518982,-0.5956114197,-1.114432526,1.587434782
7.81578875,0.4346960449,-0.9994715881,-1.05186264,1.514701001
7.82572775,0.2372566223,-1.195114746,-1.034798126,1.598560954
7.83566675,0.2568658447,-1.420995026,-1.082249451,1.804569422
7.84560675,-0.01466949463,-1.685794373,-1.45796814,2.228853732
7.85554575,-0.5081932068,-1.714235229,-1.822460175,2.553081245
7.86548475,-0.7274871826,-1.311422882,-1.68489624,2.255646895
7.87542475,-0.6198609924,-1.099014587,-1.569186859,2.013556086
7.88536375,0.1547781372,-1.294508057,-1.266366577,1.817523504
7.89530375,0.8740324402,-1.339414673,-0.5495072937,1.69113058
7.90524275,0.6424639893,-1.073567505,0.01916015625,1.251269066
7.91518175,-0.02110610962,-0.9141490173,0.167202301,0.929553927
7.92512175,-0.6394702148,-0.6330335999,0.6643185425,1.118468963
7.93506075,-1.366957397,-0.3553610229,0.9845027161,1.721656058
7.94499975,-1.9083815,-0.1884580994,1.547781372,2.464358655
7.95493975,-3.353326721,0.1490899658,4.359085236,5.501695376
7.96487875,-7.230264587,1.125509491,13.08054886,14.98813718
7.97481775,-7.737709351,-0.3278182983,12.26070374,14.50187805
7.98475775,-4.747228088,-3.469485168,0.567020874,5.907200228
7.99469675,-4.014651489,-5.099745026,-1.925146637,6.769860817
8.00463575,-5.990692291,-7.587721252,-2.868634644,10.0841942
8.01457575,-8.801696777,-11.46286285,-4.060007172,15.01168709
8.02451475,-13.7980069,-20.25542862,-0.7917036438,24.52130049
8.03445475,-22.3989711,-42.09231857,13.18637878,49.47077698
8.04439375,-30.79950211,-50.45557709,-1.931583252,59.14478509
8.05433275,-33.23942825,-47.78378311,-10.20218445,59.09512744
8.06427275,-22.11875381,-46.87666946,-5.535788269,52.12778877
8.07421175,-4.59963501,-44.51009079,4.959037628,45.02107149
8.08415075,-2.417173462,-31.76903595,8.90438324,33.08175348
8.09409075,-9.418863373,-21.91068649,10.06956024,25.88801293
8.10402975,-14.28524368,-16.4973436,11.78589111,24.80197093
8.11396875,-15.87853043,-14.34452042,9.87316864,23.56634154
8.12390875,-14.87337067,-14.42954361,4.755311279,21.26127628
8.13384775,-13.88811951,-13.58784393,1.911524963,19.52340375
8.14378675,-12.48239273,-12.3328537,0.6062393188,17.55781691
8.15372675,-10.38749908,-11.23937759,-0.3677851868,15.30878871
8.16366575,-8.590635681,-9.668843536,-0.5049000549,12.94374292
8.17360575,-6.87071228,-7.749085693,-0.5234614563,10.36962045
8.18354475,-4.580025787,-5.996530151,-0.4797523499,7.560765331
8.19348375,-2.499801636,-4.567152557,0.05358856201,5.206799635
8.20342375,-1.152453461,-3.241359558,0.4203259277,3.465722818
8.21336275,0.2171983337,-1.86976181,0.8910969543,2.082603689
8.22330175,1.533111877,-0.5921685791,1.747166748,2.398684494
8.23324175,2.746488647,0.8599617004,3.031346283,4.179927548
8.24318075,3.618724823,1.857936401,4.218976593,5.860619465
8.25311975,4.627177734,2.716401215,5.446573792,7.645572275
8.26305975,5.172044678,3.231180725,5.156926117,7.986517514
8.27299875,5.298681335,3.128194885,3.387306061,7.023921233
8.28293875,4.616998901,2.576741638,1.560654602,5.512886641
8.29287775,3.591481476,2.089055786,0.3845503235,4.172621744
8.30281675,2.533032532,1.967358856,-0.05224136353,3.207722531
8.31275675,1.490450592,1.788780212,-0.1996847534,2.336889303
8.32269575,0.5023553467,1.367107086,0.04116439819,1.457064579
8.33263475,0.2186952209,0.9945318604,0.1802252197,1.034119118
8.34257475,0.3576063538,0.7029382324,-0.06077362061,0.79101068
8.352513667,0.3992198181,0.3589535522,-0.4279600525,0.6865667647
8.362452667,0.1996847534,-0.007035369873,-0.5574407959,0.5921686737
8.372392667,-0.06706054688,-0.2947370911,-0.6619235229,0.7276742541
8.382331667,-0.1935475159,-0.5584886169,-0.8619076538,1.045110032
8.392270667,-0.1666035461,-0.7512876892,-1.17355957,1.403364528
8.402210667,-0.1944456482,-0.8592132568,-1.407523041,1.660475125
8.412149667,-0.2998265076,-0.9538165283,-1.445543976,1.757628883
8.422089667,-0.4005670166,-1.071022797,-1.357377319,1.774828711
8.432028667,-0.3924838257,-1.30693222,-1.075812836,1.737667586
8.441967667,0.0426612854,-1.45213028,-0.6023474121,1.572680749
8.451907667,0.3143463135,-1.367705841,-0.1422042847,1.410551286
8.461846667,0.1631607056,-1.539997559,1.581311646,2.213314351
8.471785667,-2.087259521,-2.736010437,15.37842041,15.75875058
8.481725667,-4.914131012,-4.609514465,19.38708435,20.52450601
8.491664667,-3.296894073,-5.099295959,0.2709365845,6.078300457
8.501603667,-3.231629791,-5.081782379,-1.62412262,6.237444793
8.511543667,-7.213499451,-8.348289642,2.408341827,11.29285724
8.521482667,-8.180638275,-12.24603424,-2.163600769,14.88520626
8.531421667,-13.94080994,-20.55390793,-4.107608185,25.17303632
8.541361667,-24.00183792,-35.89475647,-2.354304199,43.24424255
8.551300667,-34.38334946,-60.20779724,2.486329651,69.37849381
8.561240667,-36.16030426,-59.9509314,1.079105988,70.0203274
8.571179667,-25.9623111,-52.78503296,1.762734375,58.85073096
8.581118667,-15.37018753,-40.9135199,8.498726807,44.52400625
8.591058667,-13.77884674,-25.73658051,11.20255417,31.26860108
8.600997667,-13.39354797,-18.11981964,7.256160736,23.67206919
8.610936667,-12.03452408,-13.64876724,5.84579361,19.11261154
8.620876667,-10.8835675,-11.74667267,4.607867889,16.66339722
8.630815667,-9.544751587,-11.41630966,2.607278137,15.10735941
8.640754667,-8.293802948,-10.66696793,0.8439450073,13.53822792
8.650694667,-7.342381439,-9.433532867,-0.5536985779,11.96698332
8.660633667,-6.271807709,-8.134085083,-1.287622375,10.3516609
8.670573667,-5.137915649,-7.022646332,-1.631607056,8.853128278
8.680512667,-3.685036926,-5.911057892,-2.076781311,7.268639705
8.690451667,-2.456990662,-5.041366425,-1.971999207,5.944826272
8.700391667,-1.622326355,-4.145329742,-1.521436157,4.704303291
8.710330667,-0.8592132568,-2.96727951,-1.082099762,3.273214782
8.720269667,-0.2989283752,-1.830842743,-0.6137237549,1.953970361
8.730209667,0.3924838257,-0.3784130859,0.1395098877,0.5627637389
8.740148667,1.035396881,1.293609924,1.664089508,2.348332862
8.750087667,1.944755859,2.882555695,3.604953461,5.008681677
8.760027667,2.671793976,3.84490448,5.016069031,6.861685072
8.769966667,3.505859528,4.208199005,5.743256836,7.936308271
8.779905667,4.310885468,4.004622345,6.129304047,8.496416994
8.789845667,4.852908325,3.41784256,5.865253143,8.344672637
8.799784667,4.164938965,2.212698669,4.202510834,6.316949366
8.809724667,2.280058594,0.6858737183,1.98098053,3.097317195
8.819663667,1.010847931,-0.2399510193,0.3089575195,1.083902569
8.829602667,0.2544708252,-0.5361849976,-0.5795947266,0.8295660309
8.839542667,-0.07050338745,-0.4028123474,-0.8288264465,0.9242195591
8.849481667,-0.03727249146,-0.2683918762,-0.8458909607,0.8882313636
8.859420667,-0.07005432129,-0.09535171509,-0.8306227112,0.8390075362
8.869360667,-0.01811233521,-0.1496887207,-0.7949967957,0.8091691263
8.879299667,-0.06212081909,-0.4297563171,-0.800684967,0.9108490022
8.889238667,-0.333356781,-0.636177063,-0.9147477722,1.163018265
8.899178667,-0.6267466736,-0.7367678833,-1.080902252,1.450513008
8.909117667,-0.8626560974,-0.7858657837,-1.174008636,1.655311708
8.919056667,-0.9764195251,-0.8689430237,-1.10335556,1.710511783
8.928996667,-1.071172485,-0.9949809265,-0.965791626,1.752184637
8.938935667,-1.069525909,-1.056203613,-0.653840332,1.639194596
8.948875667,-0.8029302979,-1.154100037,-0.2519261169,1.428324447
8.958814667,-0.5680686951,-1.491498413,-0.00643661499,1.596029758
8.968753667,-0.2248324585,-1.914518738,0.6373745728,2.030314748
8.978693667,0.05658233643,-3.303330688,9.895771637,10.43271257
8.988632667,-2.091899872,-5.725443878,18.5344574,19.51109591
8.998571667,-3.985761566,-6.763535156,1.360520782,7.9676044
9.008511667,-3.58279953,-5.824837189,-3.198099518,7.549372244
9.018450667,-7.347171478,-9.153315582,-0.03712280273,11.7373546
9.028389667,-11.6891922,-13.9665564,-0.01137634277,18.21268902
9.038329667,-15.74904968,-20.42457687,-3.42951828,26.01840698
9.048268667,-23.79975815,-34.87552597,-0.04475692749,42.22242062
9.058207667,-35.69013199,-53.99451782,2.608924713,64.77653869
9.068147667,-39.98410263,-52.91077148,-1.550475769,66.33763771
9.078086667,-31.10771118,-47.26301605,2.740800476,56.64798645
9.088026667,-18.46979187,-34.38649292,9.861642609,40.25936043
9.097965667,-14.59869186,-22.83261932,11.10420868,29.28743348
9.107904667,-13.54593109,-17.29772919,7.881111145,23.34128525
9.117844667,-13.27918579,-15.63154404,6.300398254,21.45639677
9.127783667,-12.75692184,-16.31756744,4.130211182,21.1201493
9.137722667,-11.93393326,-16.02597382,2.423460388,20.1276864
9.147662667,-10.54512131,-14.15666107,1.289119263,17.69950464
9.157601667,-8.375383301,-11.74293045,0.117355957,14.42418918
9.167540667,-6.21193222,-9.495953064,-0.9702822876,11.38870819
9.177480667,-4.265978851,-7.444169769,-1.574725342,8.723187434
9.187419667,-2.687361603,-5.557343445,-1.540596313,6.362343558
9.197358667,-1.696422272,-4.164489899,-1.157093811,4.643241403
9.207298667,-1.064885559,-2.957699432,-0.6779402161,3.215831171
9.217237667,-0.4843927002,-1.813329163,-0.4849914551,1.938560201
9.227176667,0.1411564636,-0.7265890503,-0.3249742126,0.8083718415
9.237116667,0.935255127,0.3623963928,0.1604663086,1.015767067
9.247055667,1.647024994,1.948647766,1.892514496,3.176716947
9.256995667,2.36702774,3.836072845,4.486021271,6.35945454
9.266934667,3.216810608,4.723128204,5.577701111,7.985396684
9.276873667,4.031416626,4.692591705,5.430257721,8.231672724
9.286813667,4.573589172,3.987557831,4.508624268,7.5594992
9.296752667,4.331243134,2.948418732,2.76954071,5.926482586
9.306691667,3.425326996,1.963616638,0.6448590088,4.000562269
9.316631667,2.406994629,1.196911011,-0.8996292114,2.834704893
9.326570667,1.555714874,0.5607339478,-1.311871948,2.110848014
9.336509667,0.9508227539,0.01077758789,-1.175804901,1.512182936
9.346449667,0.4899311829,-0.320483551,-0.9762698364,1.138351907
9.356388542,0.1927990723,-0.5526507568,-0.8584648132,1.039016928
9.366327542,0.01960922241,-0.6918612671,-0.845741272,1.092856273
9.376267542,-0.06930587769,-0.7954458618,-0.8750802612,1.184610859
9.386206542,-0.2028282166,-0.973276062,-0.8297245789,1.294931834
9.396146542,-0.2883004761,-1.149759064,-0.6477030945,1.350771027
9.406085542,-0.08322692871,-1.243314514,-0.3068618774,1.283324555
9.416024542,0.206869812,-1.128802643,-0.05119354248,1.148743359
9.425964542,0.4483177185,-0.966839447,0.2191442871,1.088021834
9.435903542,0.7509883118,-0.9484277344,0.7301815796,1.413033528
9.445842542,1.021026764,-1.123413849,1.242566071,1.961765727
9.455782542,1.101559296,-1.569336548,1.789378967,2.622618381
9.465721542,1.147663422,-2.215393066,2.640059967,3.632494239
9.475660542,0.9577084351,-3.124003601,4.338577881,5.431377539
9.485600542,-0.8295748901,-4.822072449,10.3554657,11.45321994
9.495539542,-4.243824921,-6.582561493,10.55994049,13.14733847
9.505478542,-4.645589447,-5.503305817,2.768343201,7.715672381
9.515418542,-8.070167999,-7.218888245,5.800288239,12.28345646
9.525357542,-10.76695999,-11.5378569,4.374054108,16.37626083
9.535297542,-12.84898041,-17.12573685,0.420176239,21.41410068
9.545236542,-18.19481369,-25.11776733,-1.930984497,31.07542731
9.555175542,-26.91148727,-37.77065552,-1.110091553,46.39054719
9.565115542,-36.02318939,-51.92432281,-1.509011993,63.21457578
9.575054542,-36.21030029,-57.00026733,-0.8839118958,67.53515843
9.584993542,-24.20242081,-48.79552917,3.090772705,54.55560206
9.594933542,-14.86783218,-36.40803909,7.85476593,40.10355461
9.604872542,-14.04304733,-24.07503571,8.979676666,29.28223208
9.614811542,-14.79313751,-16.70077057,6.535409546,23.24788663
9.624751542,-14.27805862,-13.34549789,3.604354706,19.87351617
9.634690542,-12.69165756,-12.12478638,1.310225372,17.60128708
9.644629542,-11.32050888,-11.25928619,0.3077600098,15.96935074
9.654569542,-10.05593857,-10.35980667,-0.4465214539,14.44461409
9.664508542,-8.647218018,-9.184750214,-0.7295828247,12.63591338
9.674448542,-7.236401825,-7.852819977,-0.6358776855,10.69750594
9.684387542,-5.973627777,-6.389463043,-0.2429447937,8.75034222
9.694326542,-5.172493744,-4.745282135,0.220790863,7.022901301
9.704266542,-4.279301147,-2.851869507,0.3239263916,5.152718341
9.714205542,-3.00245636,-1.056203613,0.6394702148,3.246418399
9.724144542,-1.569186859,0.4581971741,1.788780212,2.423226506
9.734084542,-0.2998265076,2.31792984,3.854634247,4.507870878
9.744023542,0.8367599487,4.330644379,6.501579895,7.856537983
9.753962542,1.998344421,5.675447845,8.010142822,10.01830708
9.763902542,3.187920685,6.039640503,7.520660706,10.1587614
9.773841542,4.085154877,4.856351166,5.272934875,8.250847182
9.783780542,4.200864258,2.456541595,2.295775909,5.380747546
9.793720542,3.031196594,0.4320016479,-0.2052232361,3.068695943
9.803659542,1.791474609,-0.5125341797,-1.541644135,2.418416672
9.813599542,1.280287628,-1.060993652,-1.773362274,2.430978753
9.823538542,0.7908055115,-1.437909851,-1.841919708,2.466906222
9.833477542,0.4831951904,-1.676663361,-1.901795197,2.580988684
9.843417542,0.4445755005,-1.920805664,-2.036664734,2.834633136
9.853356542,0.5409750366,-2.087259521,-2.218087463,3.093415312
9.863295542,0.7915539551,-2.094743958,-2.298769684,3.209182446
9.873235542,1.089584198,-1.911674652,-1.957629089,2.945166439
9.883174542,1.165027313,-1.655108185,-1.633852386,2.601181532
9.893113542,1.322050781,-1.057850189,-1.611848145,2.337716778
9.903053542,1.402583313,-0.09789642334,-0.5770500183,1.519806035
9.912992542,0.8711883545,0.4414320374,1.083596649,1.458771089
9.922931542,0.1824705505,0.4799020386,1.740879822,1.81501075
9.932871542,-0.3613485718,0.4061054993,1.904190216,1.980261307
