Time (s),Acceleration x (m/s^2),Acceleration y (m/s^2),Acceleration z (m/s^2),Absolute acceleration (m/s^2)
0.001626875019,5.999823303,-0.5360353088,-2.146835632,6.3948508
0.011565875,5.737868042,0.1191522217,-1.667232971,5.976369525
0.02150587502,6.101312256,0.6783892822,-0.629740448,6.171126015
0.03144587501,7.558082886,0.7717950439,1.507964172,7.745594906
0.04138487502,8.809031525,0.04670288086,3.976780243,9.665195221
0.05132487501,7.154073029,-2.789598999,6.936575317,10.34788387
0.06126387502,3.432961121,-7.340136108,11.51854706,14.08331447
0.07120387501,0.2119592285,-12.31833389,16.27056519,20.40876204
0.08114387502,-1.735491028,-16.92141174,15.20822433,22.81745367
0.09108287501,-1.417402496,-20.73353439,13.63454681,24.85536854
0.101022875,-0.7247927856,-24.82916748,16.49255356,29.81639155
0.110961875,1.190474396,-25.7963063,13.53006409,29.15354665
0.120901875,3.829785919,-21.19053406,8.105644226,23.00885617
0.130840875,1.993404694,-14.58536957,5.140610046,15.59270789
0.140780875,-0.6783892822,-10.1656604,4.809648285,11.26648037
0.150720875,-2.170037384,-7.339836731,5.57545578,9.469317433
0.160659875,-1.72935379,-5.993536377,2.34607132,6.66462253
0.170599875,2.153721313,-5.93934906,-4.466112671,7.736959683
0.180538875,6.84496582,-6.258036346,-8.766819305,12.76219796
0.190478875,9.135802002,-7.356452179,-8.595575409,14.54180812
0.200418875,9.404642944,-8.924441528,-6.720724182,14.60346189
0.210357875,9.395212555,-12.41847565,0.8684939575,15.59624436
0.220297875,11.04927292,-17.94528259,16.09168716,26.51531624
0.230236875,14.98114655,-16.42953461,2.681972809,22.39547582
0.240176875,15.97522934,-10.61352905,-3.216062164,19.44731363
0.250115875,12.9260701,-5.397026825,-1.389560394,14.07629443
0.260055875,11.13803833,-1.935175781,-0.3486250305,11.31027597
0.269995875,9.384734344,0.4480183411,-0.8964857483,9.438095457
0.279934875,7.273674316,-0.4840933228,-4.27436142,8.450494066
0.289874875,6.76548111,-2.23949295,-6.161337433,9.420676318
0.299813875,7.373367004,-3.063379669,-6.177952881,10.09544144
0.309753875,8.666527863,-3.967649231,-5.283712463,10.89809905
0.319693875,8.776698761,-4.968468018,-4.039649506,10.86438603
0.329632875,8.057145081,-5.796096954,-3.11247757,10.40191537
0.339572875,7.289092255,-6.537056122,-2.461331635,10.09564867
0.349511875,6.973099365,-7.274722137,-1.98098053,10.26985788
0.359451875,7.335346069,-8.006400604,-1.688189392,10.98907348
0.369390875,7.809260559,-8.650960236,-1.412462769,11.73962157
0.379330875,7.646698608,-9.075327759,-1.262324982,11.93427995
0.389270875,7.095844116,-9.248218231,-1.258133698,11.72448057
0.399209875,6.460864563,-9.195527802,-1.284628601,11.31153275
0.409149875,5.717210999,-9.013955383,-1.20514389,10.74198609
0.419088875,4.986131287,-8.780590668,-1.081051941,10.15524254
0.429028875,4.336931305,-8.652457123,-1.44509491,9.785820696
0.438968875,3.577859802,-8.925339661,-2.221829681,9.869108164
0.448907875,1.581611023,-8.985215149,2.308649139,9.41092161
0.458847875,0.8202941895,-8.738827515,4.333638153,9.788789942
0.468786875,1.386117554,-8.180488586,3.005599823,8.824700883
0.478726875,2.509980469,-7.881410522,1.741478577,8.452773593
0.488665875,3.404669952,-8.052205353,1.054557037,8.805786681
0.498605875,3.868106232,-8.385412445,0.3727249146,9.242094544
0.508545875,3.820205841,-8.551117859,0.03742218018,9.365734874
0.518484875,3.425925751,-8.340954895,0.5427713013,9.033443225
0.528424875,3.465443573,-8.301437073,0.9569599915,9.046487111
0.538363875,3.776496735,-8.616681519,1.005309448,9.461489051
0.548303875,3.722159729,-9.321715393,0.7265890503,10.06363665
0.558243875,3.909420319,-10.22418869,0.9913883972,10.99092592
0.568182875,4.285737762,-10.57146652,1.550625458,11.51207592
0.578122875,4.185296631,-10.23766068,2.178419952,11.27261804
0.588061875,3.611689453,-9.551038513,3.032543793,10.65189933
0.598001875,2.807711334,-9.320517883,3.638633423,10.39206186
0.607940875,2.25940155,-9.793983307,3.486998749,10.63889866
0.617880875,2.247426453,-10.6912175,2.444416809,11.19500919
0.627820875,2.704875183,-11.67706741,1.24960144,12.05121392
0.637759875,3.246898041,-12.4337439,0.5547463989,12.86266216
0.647699875,3.405867462,-12.92397446,0.4267625427,13.37202958
0.657638875,3.445085907,-12.80302597,0.8247848511,13.28406417
0.667578875,3.705993347,-12.11864914,1.622176666,12.77605185
0.677518875,4.064048767,-11.43636795,2.352807312,12.36295703
0.687457875,4.362528076,-11.00391724,2.759511566,12.15453618
0.697397875,4.366120605,-11.08430008,2.860401764,12.25180051
0.7073361667,4.11748764,-11.67137924,2.796334991,12.68835243
0.7172761667,3.891607361,-12.79449371,2.576142883,13.61911118
0.7272151667,3.697012024,-14.11624512,2.270927582,14.76798518
0.7371551667,3.751648407,-14.46621735,2.575095062,15.16500658
0.7470951667,3.775598602,-12.90511368,2.945275269,13.76487378
0.7570341667,3.384012909,-11.14567245,2.752176819,11.96879422
0.7669741667,2.706072693,-10.16176849,1.693578186,10.6514119
0.7769131667,2.819387054,-9.491013336,1.530267792,10.01848277
0.7868531667,3.862717438,-8.815617828,2.534828796,9.952942315
0.7967931667,5.207071838,-8.738079071,3.478167114,10.75012881
0.8067321667,6.325545959,-8.977281647,3.018922119,11.38938138
0.8166721667,7.300767975,-9.592801666,1.328337708,12.12796512
0.8266111667,8.396190033,-10.69675598,-0.1359173584,13.59908339
0.8365511667,9.769883423,-11.8896254,-0.6509962463,15.40251961
0.8464901667,11.52438492,-12.87248154,-0.2215393066,17.27892671
0.8564301667,13.38681198,-13.77016479,0.5572911072,19.21287971
0.8663701667,14.72922043,-14.01834869,0.8279283142,20.35066338
0.8763091667,15.02440659,-13.17230804,0.1787283325,19.98185267
0.8862491667,14.3978096,-11.62841858,-0.5176235962,18.51445311
0.8961881667,12.638069,-9.830207977,-0.822689209,16.03217373
0.9061281667,10.3873494,-8.102201385,-1.057550812,13.21594145
0.9160681667,8.195756836,-6.771618347,-0.4074526978,10.63913826
0.9260071667,6.326444092,-6.066135406,0.3469784546,8.771675305
0.9359471667,4.991520081,-5.929020538,1.024020538,7.817747458
0.9458861667,4.295916595,-5.888903961,1.501677246,7.44238697
0.9558261667,3.603606262,-6.212830353,1.659299469,7.371466192
0.9657651667,3.302282867,-6.279292145,1.237776031,7.201851948
0.9757051667,2.98958313,-6.119125214,0.839304657,6.861904472
0.9856451667,2.832709351,-5.93231369,0.4962181091,6.592633798
0.9955841667,2.654579773,-5.783672791,0.3879931641,6.375594358
1.005524167,2.033072205,-5.66092804,0.4956193542,6.035323306
1.015463167,1.538500671,-5.456303558,0.698896637,5.711977709
1.025403167,1.620829468,-5.127736816,0.6848258972,5.421232289
1.035342167,2.189347229,-4.608766022,0.2827619934,5.110178067
1.045282167,2.988834686,-4.00058075,-0.4031117249,5.010017782
1.055222167,3.527414703,-3.460503845,-0.9644444275,5.034669245
1.065161167,4.059707794,-2.835254059,-1.28822113,5.116581538
1.075101167,4.740492096,-2.176473999,-1.461560669,5.417145371
1.085040167,5.316494293,-1.552571411,-1.61469223,5.769126498
1.094980167,5.546116791,-0.9710307312,-1.665436707,5.871625973
1.104920167,5.38355484,-0.4369413757,-1.790426788,5.690273154
1.114859167,4.921914825,0.09160949707,-1.799857178,5.241481061
1.124799167,5.000052338,0.6550378418,-1.075962524,5.156286775
1.134738167,6.377637634,0.87522995,0.7340734863,6.479132129
1.144678167,7.973768463,0.6882687378,3.029699707,8.557673613
1.154617167,7.354955292,-1.65331192,7.322323151,10.50929227
1.164557167,3.712130585,-7.053182831,15.21151749,17.17316412
1.174497167,0.4586462402,-13.68065094,23.32045486,27.04097228
1.184436167,-0.6081852722,-19.81564316,16.93862595,26.0757867
1.194376167,1.276994476,-23.359823,11.64563278,26.13298315
1.204315167,3.112627258,-26.0843074,12.97037796,29.29693236
1.214255167,4.837640076,-23.2324379,10.10234207,25.79159257
1.224195167,4.434528351,-14.98773285,7.480693817,17.32795307
1.234134167,2.286195831,-9.361682281,6.281238098,11.50311865
1.244074167,0.7896080017,-6.649472351,7.462282104,10.02619656
1.254013167,0.9779164124,-6.340215454,11.7117952,13.35368111
1.263953167,2.313588867,-9.779313812,11.71763306,15.43666404
1.273892167,3.496279449,-14.57504105,4.511168976,15.65268146
1.283832167,4.780309296,-16.17955444,-4.220323792,17.39081573
1.293772167,7.507937164,-14.19782547,-11.54923325,19.7821171
1.303711167,8.044870605,-11.33532806,-11.28218857,17.90244073
1.313651167,6.789431305,-8.015381927,-2.864293671,10.88792465
1.323590167,7.129075012,-4.404889984,7.709867249,11.38722175
1.333530167,5.931565247,-3.36395462,2.060315552,7.1235214
1.343469167,5.674699402,-2.296524353,-3.136577454,6.878543125
1.353409167,7.791148224,-3.521876221,-7.352560272,11.27677903
1.363349167,10.08557693,-5.3694841,-7.649243317,13.74995072
1.373288167,11.33323242,-5.682632904,-6.562054138,14.27567961
1.383228167,11.72017776,-5.61407547,-5.380261688,14.0651209
1.393167167,11.44939087,-5.920488281,-4.849465485,13.77163927
1.403107167,10.79240707,-6.435567169,-3.842060394,13.13978703
1.413046167,9.828112335,-6.592740326,-2.501897278,12.0960947
1.422986167,8.928034058,-6.513554993,-1.197659454,11.11623043
1.432926167,8.003556519,-6.337071991,-0.002993774414,10.20859478
1.442865167,6.878047028,-6.297853546,1.361568604,9.424667594
1.452805167,5.484295349,-6.812483368,4.204905853,9.704053707
1.462744167,4.60667038,-7.708070984,5.761069794,10.66891257
1.472684167,5.176834717,-7.93440033,2.745291138,9.863617476
1.482624167,5.6760466,-7.913144531,0.3520678711,9.744706931
1.492563167,5.766009521,-8.062533875,-0.659229126,9.934077779
1.502503167,5.553301849,-8.55216568,-0.3710783386,10.20374433
1.512442167,5.159171448,-9.052874451,0.5406756592,10.43378723
1.522382167,4.428989868,-9.284742279,1.220711517,10.35917598
1.532321167,3.686533813,-9.154213715,1.182540894,9.939243596
1.542261167,3.235521698,-8.902586975,0.463585968,9.483647371
1.552201167,2.969075775,-8.679401093,-0.250279541,9.176603627
1.562140167,2.841690674,-8.563691711,-0.5137316895,9.037474308
1.572080167,2.923121338,-8.552015991,-0.4767585754,9.050354391
1.582019167,3.172951813,-8.631351013,-0.2436932373,9.199305947
1.591959167,3.465443573,-8.625513153,0.06526428223,9.295861216
1.601898167,3.746409302,-8.216114502,-0.01616638184,9.029971291
1.611838167,3.915856934,-7.712861023,-0.1535806274,8.651343693
1.621778167,4.298760681,-7.271578674,-0.08143066406,8.447593194
1.631717167,5.33325943,-7.172185364,-0.02080673218,8.937803531
1.641657167,5.732329559,-7.244485016,0.1037342834,9.238664737
1.651596167,5.131179657,-7.470365295,0.3468287659,9.069490201
1.661536167,4.981640625,-7.917635193,0.5257067871,9.36920797
1.671476167,5.180277557,-8.467142487,0.5408253479,9.940838471
1.681415167,5.282664642,-9.180109863,0.676892395,10.6131591
1.691355167,5.487438812,-10.02076172,0.9241781616,11.46218807
1.70129425,5.438640289,-10.5106929,1.328188019,11.90871768
1.71123425,4.720284119,-10.55694672,1.969604187,11.73070956
1.72117325,3.822451172,-10.63867676,2.512974243,11.58048426
1.73111325,2.976111145,-11.19372253,2.773731995,11.9100903
1.74105325,2.47585144,-11.93393326,2.562970276,12.45461441
1.75099225,2.526446228,-12.35231323,2.027982788,12.77009346
1.76093225,2.697540436,-12.44901215,1.625619507,12.84123306
1.77087125,2.734363861,-12.34408035,1.747915192,12.76355252
1.78081125,2.709365845,-11.81987045,2.54605545,12.39081915
1.79075025,2.833607483,-11.11618378,3.717070312,12.05883431
1.80069025,3.084036713,-10.91290649,4.690496063,12.27206437
1.81063025,3.396586761,-11.43546982,5.005890198,12.93698992
1.82056925,3.417543182,-12.47475861,4.585414581,13.72316401
1.83050925,3.074157257,-13.5962265,3.69401825,14.42059599
1.84044825,2.456092529,-14.2837468,2.96263916,14.79307418
1.85038825,1.539698181,-14.32012115,2.827919312,14.67765881
1.86032825,0.553099823,-13.47827179,3.066223755,13.83370731
1.87026725,0.08562194824,-12.15262848,1.707050171,12.27223412
1.88020725,0.4848417664,-11.01664078,-0.2213896179,11.02952669
1.89014625,1.758094025,-10.20398071,0.06571334839,10.35453694
1.90008625,3.916156311,-10.20308258,1.922152863,11.09656911
1.91002525,6.131998444,-10.85587509,3.398233337,12.92282549
1.91996525,7.901768188,-11.47932861,2.642305298,14.18431187
1.92990525,9.56196579,-12.45874191,0.6059399414,15.71682548
1.93984425,11.07786346,-13.64218094,-0.4568499756,17.57944458
1.94978425,12.42087067,-14.50049606,-0.6857240295,19.10530376
1.95972325,13.96670609,-14.66979401,-0.8755293274,20.27407918
1.96966325,15.51613403,-14.36832092,-0.9846524048,21.16999296
1.97960225,15.92732895,-13.44294525,-1.08464447,20.8702908
1.98954225,14.71410187,-11.8020575,-0.7408094788,18.87702714
1.99948225,13.45402222,-9.741891632,-0.6200106812,16.62226157
2.00942125,12.09350143,-7.298372955,-1.22744751,14.17835153
2.01936125,10.43884232,-5.35436554,-1.709295502,11.85581504
2.02930025,8.510402527,-4.196822662,-1.292113037,9.576524825
2.03924025,7.132218475,-3.35691925,-0.3285667419,7.889575612
2.04917925,5.773943024,-3.286116486,0.4125421143,6.656363166
2.05911925,4.491859131,-3.619622955,1.288520508,5.910901276
2.06905925,3.524420929,-4.217779083,1.603764954,5.725667237
2.07899825,2.93569519,-4.675976257,1.254990234,5.661983813
2.08893825,2.896776123,-4.951702881,0.6818321228,5.777159196
2.09887725,3.028651886,-5.124743042,0.173638916,5.955323162
2.10881725,2.818937988,-5.435646515,0.1255888367,6.124413194
2.11875625,2.427202606,-5.684129791,0.172591095,6.18307623
2.12869625,2.30041626,-5.894592133,0.2877017212,6.334106382
2.13863625,2.69709137,-5.902076569,0.3697311401,6.499654667
2.14857525,3.318898315,-5.566624146,0.093256073,6.48159603
2.15851525,3.941154327,-4.974156189,-0.2559677124,6.351412968
2.16845425,4.555027771,-4.173620911,-0.7214996338,6.219963924
2.17839425,5.105283508,-3.271896057,-1.137035522,6.169446757
2.18833425,5.53339325,-2.345023499,-1.389710083,6.168376624
2.19827325,5.882766724,-1.474583588,-1.54568573,6.258632874
2.20821325,6.025569763,-0.7635621643,-1.800605621,6.335037392
2.21815225,6.06568634,-0.21061203,-2.204914856,6.457442042
2.22809225,5.943091278,0.2233355713,-2.346370697,6.393408181
2.23803125,6.223009186,0.6077362061,-1.36905304,6.400741586
2.24797125,7.286996613,0.7327262878,0.4911286926,7.340191744
2.25791125,8.342002716,0.1398092651,2.757715302,8.787124082
2.26785025,6.540349274,-2.882406006,6.662345581,9.770940674
2.27779025,2.819536743,-7.815397797,13.21766373,15.61207432
2.28772925,0.1160087585,-13.4767749,20.43101349,24.47576826
2.29766925,-0.7427554321,-18.52397919,18.36441101,26.09484781
2.30760825,0.4429289246,-22.21081238,14.40319839,26.47580965
2.31754825,1.300794983,-24.67753281,13.74531647,28.27731278
2.32748825,2.662513275,-22.74624893,11.40343643,25.58357246
2.33742725,2.667153625,-15.90083405,7.585475922,17.81824
2.34736725,0.5221142578,-11.07681564,5.169949036,12.23506523
2.35730625,-0.5996530151,-8.729247437,5.316045227,10.23814834
2.36724625,0.1284329224,-8.045768738,5.15887207,9.558496254
2.37718525,3.641627197,-9.453890533,-0.5628295898,10.14663846
2.38712525,8.309370575,-11.6373999,-6.985523529,15.91452968
2.39706525,10.71756271,-13.22410034,-8.659193115,19.09776442
2.40700425,10.07614655,-14.03705978,-7.687563629,18.91207051
2.41694425,8.164172516,-14.72248444,-0.5764512634,16.84451118
2.42688325,8.849746857,-13.66164047,7.540868683,17.93942977
2.43682325,10.83252365,-9.366771698,1.403780823,14.38925228
2.44676225,10.30711624,-3.454216919,0.2679428101,10.87382422
2.45670225,9.508227539,-1.290167084,0.4209246826,9.604587426
2.46664225,8.861123199,-0.3471281433,-0.7153623962,8.896726682
2.47658125,8.552764435,-0.9204359436,-3.994742889,9.484458475
2.48652125,8.709338837,-2.783761139,-6.138435059,11.01282407
2.49646025,9.304650879,-3.699257355,-6.509812775,11.94314428
2.50640025,10.61772034,-4.45802948,-5.973627777,12.97282702
2.51633925,11.12756012,-5.430557098,-4.967120819,13.34113315
2.52627925,9.948013,-6.151308289,-3.947141876,12.34428958
2.53621925,8.488398285,-6.370302887,-3.178490295,11.07864905
2.54615825,7.253616028,-6.415059814,-2.630629578,10.0343485
2.55609825,6.612948303,-6.531517639,-1.936672668,9.494340891
2.56603725,6.389313354,-6.872209167,-1.287173309,9.471399005
2.57597725,6.695576477,-7.383845215,-0.8075706482,10.00020424
2.58591725,6.85080368,-7.959997101,-0.5189707947,10.51496056
2.59585625,6.348747711,-8.50651062,-0.4216731262,10.62285878
2.60579625,5.720204773,-8.945697327,-0.4004173279,10.62575067
2.61573525,5.085674286,-9.17936142,-0.3918850708,10.5013491
2.62567525,4.240980835,-9.296268311,-0.2845582581,10.22191256
2.63561425,2.984493713,-9.753267975,1.351389771,10.28881399
2.64555425,1.560355225,-10.44497955,3.412753143,11.09861209
2.65549425,1.257984009,-9.9785495,2.850522308,10.45368123
2.66543325,1.387315063,-9.304201813,2.010918274,9.619594938
2.67537325,1.570084991,-8.761879578,1.282233582,8.993321053
2.68531225,1.768123169,-8.387059021,0.6489006042,8.595934537
2.69525225,2.039658508,-8.179291077,0.2345622253,8.433032004
2.705191125,2.498304749,-8.137378235,0.2049238586,8.514719311
2.715131125,3.359613647,-8.143515472,0.4784051514,8.822285395
2.725071125,4.333787842,-8.212671661,0.7264393616,9.314365626
2.735010125,4.301904144,-8.593180389,1.186283112,9.682788653
2.744950125,4.739144897,-8.954079895,2.026785278,10.33164555
2.754889125,5.332660675,-9.255702667,2.550246735,10.98221563
2.764829125,5.682333527,-9.572144623,2.446362762,11.39734872
2.774768125,5.592370605,-9.882449341,1.923799438,11.51687537
2.784708125,5.228327637,-9.961484985,1.329535217,11.32847107
2.794648125,4.722379761,-9.536967773,1.133742371,10.70233604
2.804587125,4.03560791,-8.908574524,1.569486237,9.905156147
2.814527125,3.443888397,-8.621022491,2.201771393,9.540974445
2.824466125,3.278332672,-8.824449463,2.308349762,9.692618431
2.834406125,3.608995056,-9.599986725,1.735341339,10.40173063
2.844345125,4.269571381,-10.75378738,1.002315674,11.61369104
2.854285125,4.8651828,-11.6294664,0.5438191223,12.61785369
2.864225125,5.019511871,-11.69024002,0.5031037903,12.73225528
2.874164125,4.898563385,-10.98191299,0.8798703003,12.05705221
2.884104125,4.658612366,-10.09171417,1.616338806,11.23200406
2.894043125,4.460274811,-9.58531723,2.310146027,10.8216973
2.903983125,4.484075317,-9.505383453,2.764002228,10.86733428
2.913922125,4.499792633,-9.791438599,2.951412506,11.17279013
2.923862125,4.326153717,-10.52476364,2.903063049,11.74368046
2.933802125,4.070335693,-11.84157532,2.744542694,12.81885538
2.943741125,3.775598602,-13.3136142,2.686313782,14.09694114
2.953681125,3.563789062,-13.95637756,3.501368866,14.82365175
2.963620125,2.946772156,-13.0269603,4.204905853,14.00237101
2.973560125,1.785487061,-11.61809006,2.956950989,12.12070707
2.983499125,0.9761201477,-10.75603271,0.9535171509,10.84224355
2.993439125,1.190474396,-9.798174591,0.6518943787,9.891734978
3.003379125,2.300116882,-9.18983963,1.991758118,9.680433384
3.013318125,4.037104797,-9.975406036,2.976560211,11.16543109
3.023258125,5.827681274,-10.60589493,2.564018097,12.37016835
3.033197125,6.944658508,-11.44415176,0.8849597168,13.41566417
3.043137125,8.215665436,-12.8450885,-0.4284091187,15.25375336
3.053076125,9.718240814,-13.98601593,-1.148711243,17.06963338
3.063016125,11.28637985,-14.68161942,-1.51170639,18.58003162
3.072956125,12.43089981,-14.97081802,-1.441352692,19.51230791
3.082895125,12.66815643,-14.90450592,-1.264720001,19.60168362
3.092835125,12.04964264,-13.89889709,-1.311422882,18.44161214
3.102774125,11.37454651,-11.74158325,-1.204694824,16.39196069
3.112714125,9.935139771,-9.398805084,-1.200653229,13.72902427
3.122653125,8.109685822,-7.50374588,-1.239871674,11.11802537
3.132593125,6.037095795,-6.338119812,-0.8628057861,8.795608121
3.142533125,4.881798248,-5.787415009,0.0672102356,7.571700194
3.152472125,4.263883209,-5.768703918,1.451232147,7.318792227
3.162412125,3.787723389,-6.111042023,2.365979919,7.568985669
3.172351125,3.860771484,-6.490951996,1.919757843,7.792527475
3.182291125,4.044140167,-6.551126862,1.020877075,7.766242518
3.192230125,4.028871918,-6.431076508,0.1594184875,7.590518311
3.202170125,3.725003815,-6.408473511,-0.3760180664,7.42196576
3.212110125,3.446732483,-6.397546234,-0.5266049194,7.286005447
3.222049125,3.086132355,-6.319109344,-0.6824308777,7.065484252
3.231989125,2.766846313,-6.14292572,-0.8785231018,6.794319522
3.241928125,2.875370636,-5.906417542,-0.8909472656,6.629276846
3.251868125,3.43415863,-5.727240143,-1.054856415,6.760728305
3.261807125,4.243974609,-5.543272705,-1.594633942,7.161148663
3.271747125,5.166655884,-5.199437714,-2.03247345,7.60653889
3.281687125,6.129304047,-4.561314697,-2.160906372,7.939992205
3.291626125,6.918612671,-3.698059845,-2.127825165,8.128375474
3.301566125,7.201674042,-2.840044098,-2.135309601,8.030535883
3.311505125,7.194189606,-2.10147995,-2.103575592,7.784446823
3.321445125,7.061266022,-1.491947479,-1.979184265,7.483619142
3.331384125,6.850204926,-0.9407936096,-1.622476044,7.102311501
3.341324125,6.740782471,-0.2442919922,-0.4650828552,6.761222445
3.351264125,7.218888245,0.662971344,1.24151825,7.354811082
3.361203125,8.056845703,1.130898285,2.94632309,8.652890463
3.371143125,8.348289642,-0.4212240601,5.008285217,9.744449214
3.381082125,5.778134308,-3.865262146,6.334377594,9.404861883
3.391022125,2.915038147,-7.629185028,8.409811707,11.72291962
3.400961125,1.099463654,-11.52124146,12.06940155,16.72179054
3.410901125,0.6632707214,-14.96707581,15.21945099,21.35614606
3.420841125,1.532962189,-17.90351944,16.86438034,24.64332173
3.430780125,2.29338089,-19.76684464,15.1622699,25.0176372
3.440720125,1.603315887,-20.30677185,11.29131958,23.29011599
3.450659125,0.1288819885,-18.8741011,6.465355225,19.95116842
3.460599125,-0.7352709961,-15.7554863,1.669029236,15.86069452
3.470538125,-0.9792636108,-12.89807831,-0.8830137634,12.96530349
3.480478125,-1.20753891,-10.93131821,-0.6857240295,11.019169
3.490418125,-0.7798782349,-10.46458878,0.2538720703,10.49667944
3.500357125,1.024469604,-11.84247345,-0.7361691284,11.90947775
3.510297125,4.019142151,-14.04140076,-4.503085785,15.28372404
3.520236125,6.573131104,-15.45131882,-6.964267731,18.17829284
3.530176125,8.123157806,-15.50131485,-6.593638458,18.70167166
3.540115125,10.70229446,-15.85218521,1.541195068,19.18869889
3.550055125,14.64539474,-13.55685837,13.94634842,24.34700454
3.559995125,12.60393997,-6.489155731,6.829248505,15.73553558
3.569934125,10.43629761,-0.1954934692,3.237317963,10.92862082
3.579874125,9.955647125,2.373464355,1.506018219,10.34486992
3.589813125,8.152347107,3.276386719,-1.53041748,8.91838836
3.599753125,7.090605011,0.1255888367,-6.612499237,9.696267227
3.609692125,7.148684235,-2.082918549,-8.266409912,11.12545589
3.619632125,8.430019684,-2.800675964,-7.739206238,11.78152498
3.629572125,10.36863831,-4.111051025,-6.511758728,12.91558758
3.639511125,10.99867813,-5.708079987,-5.315446472,13.48358517
3.649451125,10.60035645,-7.116800537,-4.039200439,13.39147292
3.659390125,9.457183685,-7.885003052,-3.072211304,12.69055076
3.669330125,8.223898315,-8.163573761,-2.571053467,11.8695727
3.679269125,7.439529419,-8.249345398,-2.084116058,11.30229345
3.689209125,7.164551239,-8.470735016,-1.587299194,11.20730409
3.699149125,7.574997711,-8.846902771,-1.219663696,11.71050206
3.709087875,7.49087265,-9.076824646,-0.9279203796,11.80520881
3.719027875,6.6355513,-9.261839905,-0.7505392456,11.4182104
3.728966875,5.591921539,-9.40628952,-0.7824229431,10.97087301
3.738906875,4.601580963,-9.483678589,-0.9117539978,10.58045378
3.748845875,3.605552216,-9.844727783,-0.8137078857,10.51574022
3.758785875,0.7951464844,-9.69069809,8.211324463,12.72665458
3.768725875,0.003442840576,-8.996292114,9.637109528,13.18359449
3.778664875,0.9815089417,-8.388406219,4.963079224,9.795962132
3.788604875,2.420616302,-7.858807526,1.943109283,8.44961021
3.798543875,3.497776337,-7.609426117,-0.1998344421,8.377215464
3.808483875,4.000730438,-7.424560547,-0.9060658264,8.482387555
3.818422875,4.243525543,-7.074139252,-1.070723419,8.318497691
3.828362875,4.474046173,-6.669231262,-0.876277771,8.078588832
3.838302875,4.248016205,-6.432124329,-0.1941462708,7.710743014
3.848241875,4.336482239,-6.390361176,0.2435435486,7.726649185
3.858181875,4.396208038,-6.972350922,0.885408783,8.290010326
3.868120875,4.600682831,-7.848778381,1.505269775,9.221466352
3.878060875,4.934788055,-8.663983154,1.879940643,10.14647299
3.887999875,5.464536438,-9.338630219,1.931882629,10.99105743
3.897939875,5.788911896,-9.809700623,1.904639282,11.54856606
3.907879875,5.828280029,-10.04815475,1.861229553,11.76428653
3.917818875,5.886808319,-10.23526566,1.781595154,11.94107435
3.927758875,5.809868317,-9.971663818,1.760489044,11.67424391
3.937697875,5.533093872,-9.174122314,1.951342163,10.88978348
3.947637875,5.272785187,-8.347241821,2.421664124,10.16578412
3.957576875,5.422623596,-8.043972473,3.020868073,10.160511
3.967516875,5.84803894,-8.455317078,3.091820526,10.73551585
3.977456875,6.247258759,-9.26827652,2.496059418,11.452489
3.987395875,6.382277985,-9.928852844,1.796863403,11.93919215
3.997335875,6.171965332,-10.44453049,1.31980545,12.2034118
4.007274875,5.82708252,-10.61652283,1.18882782,12.16876161
4.017214875,5.190306702,-10.64496368,1.435963898,11.92964911
4.027153875,4.329746246,-10.7588768,1.705104218,11.72209508
4.037093875,3.44239151,-10.95481934,1.802252197,11.62352094
4.047033875,2.588567047,-11.47917892,1.749711456,11.89679446
4.056972875,1.670526123,-12.44182709,1.547931061,12.64854969
4.066912875,1.100361786,-13.5763179,1.728605347,13.73008668
4.076851875,1.114133148,-14.20486084,2.710263977,14.50396135
4.086791875,1.203347626,-13.63155304,3.924838257,14.23627898
4.096730875,1.369502106,-12.19993011,4.373006287,13.03215311
4.106670875,1.417701874,-11.24072479,3.276985474,11.79416832
4.116609875,2.26643692,-10.69316345,2.598446503,11.23531954
4.126549875,4.250860291,-10.61218185,3.971840515,12.10222021
4.136489875,6.228996735,-10.90467361,4.938380585,13.49443996
4.146428875,7.301815796,-11.1491153,3.361858978,13.74486746
4.156368875,7.580236816,-11.57423126,0.7378157043,13.85522254
4.166307875,7.755971375,-12.41173965,-1.177750854,14.68310152
4.176247875,8.158634033,-13.19027069,-2.250569916,15.67200099
4.186186875,9.048832855,-13.45971039,-2.961741028,16.48687629
4.196126875,10.31190628,-13.40537338,-3.485352173,17.26809562
4.206066875,11.19746475,-13.03519318,-3.859124908,17.61227762
4.216005875,11.18593872,-12.53238876,-3.154091034,17.09193621
4.225945875,10.51533325,-11.60521683,-2.062710571,15.79582432
4.235884875,9.816436615,-9.844129028,-1.463806,13.97898538
4.245824875,8.877888336,-7.824678497,-1.79371994,11.96912387
4.255763875,7.713908844,-6.347101135,-2.088157654,10.20541449
4.265703875,6.500831451,-5.383854218,-1.663490753,8.603132992
4.275643875,5.204676819,-4.895270233,-1.058149567,7.223019587
4.285582875,4.536316681,-4.806055756,0.06182144165,6.609096977
4.295522875,4.203858032,-4.978048096,1.076411591,6.603941786
4.305461875,3.636238403,-5.656886444,1.603465576,6.913298476
4.315401875,3.431314545,-6.22256012,1.799408112,7.330214424
4.325340875,3.655997314,-6.500831451,1.406325531,7.589787706
4.335280875,3.928430786,-6.694378967,0.8325686646,7.806436369
4.345220875,3.804039459,-6.88717804,0.3189866638,7.874369184
4.355159875,3.346291351,-7.04390213,-0.0,7.798347455
4.365099875,3.114573212,-7.243736572,-0.1987866211,7.887445844
4.375038875,3.095263367,-7.483238525,-0.2227368164,8.101180521
4.384978875,3.324586487,-7.607330475,-0.1992356873,8.304459472
4.394917875,4.143683167,-7.350614319,-0.6451583862,8.462734215
4.404857875,5.439987488,-6.548582153,-1.176403656,8.594260739
4.414797875,6.752757568,-5.431155853,-1.500330048,8.794781346
4.424736875,7.581733704,-4.274660797,-1.705702972,8.869319789
4.434676875,7.743696899,-3.270249481,-1.688937836,8.573907181
4.444615875,7.760911102,-2.443967743,-1.457818451,8.266193447
4.454555875,8.022866364,-1.683399353,-1.263522491,8.294378045
4.464494875,8.234526215,-1.004261627,-0.9421408081,8.348867749
4.474434875,8.380772095,-0.2255809021,-0.07035369873,8.384102653
4.484373875,8.364456024,0.3710783386,1.389859772,8.487257148
4.494313875,8.017178192,0.4848417664,3.06322998,8.596138413
4.504253875,7.206913147,-0.6246510315,4.435127106,8.485289533
4.514192875,5.525609436,-3.164569244,5.748046875,8.578280773
4.524132875,3.945046234,-6.084846497,7.526947632,10.4519705
4.534071875,2.465223541,-8.915759583,8.793014832,12.76264886
4.544011875,1.040037231,-11.32904114,9.82287323,15.03055851
4.553950875,0.03158432007,-13.27484482,11.20180573,17.36959856
4.563890875,-0.3282673645,-15.38560547,12.16340607,19.61563311
4.573830875,-0.4831951904,-17.69200928,11.68979095,21.21065493
4.583769875,0.01466949463,-19.51417007,10.68807404,22.24944888
4.593709875,1.488504639,-19.10956146,8.296796722,20.88606763
4.603648875,2.755320282,-16.08794495,4.728816376,16.9933948
4.613588875,2.096989288,-12.84478912,2.223775635,13.20345219
4.623527875,0.8488847351,-10.72953781,1.142424316,10.82352624
4.633467875,0.786763916,-10.05938141,1.179996185,10.15886523
4.643407875,2.776875458,-11.21333176,1.612446899,11.6640401
4.653346875,5.45615387,-13.0070517,2.339784393,14.29781801
4.663286875,7.945926361,-14.42385544,3.328777771,16.80077715
4.673225875,8.860973511,-14.26353882,2.257904663,16.94294911
4.683165875,8.186176758,-12.58223511,-2.021845551,15.14641838
4.693104875,8.232131195,-10.01821701,-5.045108643,13.9135106
4.703045,8.308023376,-7.391329651,-3.808081055,11.7539988
4.712984,8.340805206,-3.948189697,1.278042297,9.31614864
4.722924,7.834258575,1.017134857,6.550827484,10.26272437
4.732864,7.126530304,3.17325119,3.204985199,8.433794366
4.742803,7.878716125,2.361788635,-0.5495072937,8.243432029
4.752743,8.925339661,-0.169896698,-3.315605164,9.522803712
4.762682,9.420659637,-3.153941345,-5.807323608,11.50744027
4.772622,9.578730927,-4.940476227,-5.932463379,12.30262221
4.782561,10.09845016,-6.093528442,-4.980592804,12.80297189
4.792501,10.35726196,-6.957681427,-4.054019623,13.11934759
4.802441,9.774673462,-7.626041565,-3.046764221,12.76650005
4.81238,8.854536896,-8.009993134,-2.310146027,12.16139747
4.82232,7.935747528,-8.272696838,-1.846560059,11.61134729
4.832259,7.137756958,-8.50651062,-1.432071991,11.19638904
4.842199,6.354136505,-8.78972168,-0.9142987061,10.88440169
4.852138,5.678890686,-9.186247101,-0.3385958862,10.80516462
4.862078,5.267097015,-9.530082092,0.1450483704,10.88971141
4.872018,5.073998566,-10.13886612,-0.1525328064,11.33866544
4.881957,3.811972961,-10.55889267,1.964814148,11.39657172
4.891897,1.241967316,-10.87683151,9.502689056,14.4965184
4.901836,1.362317047,-10.53120026,7.875273285,13.22051496
4.911776,2.860401764,-9.645342407,2.891387329,10.46779103
4.921715,3.492986298,-8.876690826,0.6102809143,9.558715191
4.931655,3.502865753,-8.313112793,-0.6536906433,9.044624052
4.941595,3.205883331,-7.873177643,-0.5141807556,8.516395715
4.951534,3.23058197,-7.466174011,-0.103434906,8.135792095
4.961474,3.426225128,-7.213200073,0.1579216003,7.987127967
