Time (s),Acceleration x (m/s^2),Acceleration y (m/s^2),Acceleration z (m/s^2),Absolute acceleration (m/s^2)
0.00624841667,13.57571915,-13.54398514,3.144960022,19.43271616
0.01618841666,11.81493073,-13.67810623,2.398162994,18.23278267
0.02612841665,10.39707916,-13.3228949,1.177750854,16.94065762
0.03606741666,9.930200043,-12.70363266,0.2372566223,16.12598668
0.04600741665,9.314230957,-12.02733902,-0.04430786133,15.21228929
0.05594641666,8.359965363,-11.21527771,0.1645079041,13.98922935
0.06588641665,7.525301056,-10.34768188,0.6420149231,12.81081026
0.07582541666,6.409072266,-8.978479156,0.9342073059,11.07077407
0.08576541665,5.009931793,-7.147037659,1.350791016,8.831998655
0.09570541666,3.608995056,-5.136568451,1.583706665,6.474357695
0.1056444166,2.206860809,-3.406765594,1.657353516,4.384416395
0.1155844167,0.8265811157,-2.056423645,1.763183441,2.832124714
0.1255234167,-0.2002835083,-0.902024231,1.673968964,1.912049499
0.1354634167,-0.942739563,0.06421646118,1.434017944,1.717349441
0.1454024167,-1.522633667,0.6918612671,1.282832336,2.107781796
0.1553424167,-2.118544464,1.180894318,1.21098175,2.71094427
0.1652824167,-2.511926422,1.434916077,0.9304650879,3.038835925
0.1752214167,-2.664010162,1.496138763,0.9912387085,3.212154343
0.1851614167,-3.152594147,1.337768097,1.800455933,3.869123273
0.1951004167,-3.673510895,0.9584568787,2.272424469,4.424616916
0.2050404167,-3.497027893,0.5852828979,1.320254517,3.7834947
0.2149794167,-2.820285187,0.4843927002,-0.02948867798,2.861732763
0.2249194167,-2.284848633,0.5146298218,-0.5792953491,2.412666622
0.2348594167,-1.743574219,0.4885839844,-0.5167254639,1.88302166
0.2447984167,-1.036594391,0.2761756897,-0.3505709839,1.128583607
0.2547384167,-0.7502398682,0.09385482788,-0.45984375,0.8849434236
0.2646774166,-0.7340734863,0.02005828857,-0.5766009521,0.9336674335
0.2746174167,-0.7640112305,0.001796264648,-0.605640564,0.974944552
0.2845564166,-0.758921814,0.0004490661621,-0.6099815369,0.9736734549
0.2944964167,-0.6872209167,0.01975891113,-0.6288423157,0.9317218796
0.3044354166,-0.5294490051,0.04969665527,-0.647403717,0.8378052157
0.3143754167,-0.4135899353,0.08083190918,-0.7259902954,0.8394357278
0.3243154167,-0.390687561,0.08756790161,-0.7673043823,0.8654830575
0.3342544167,-0.3225791931,-0.04745132446,-0.7277865601,0.7974849472
0.3441944167,-0.2683918762,-0.4185296631,-0.5114863586,0.7133159
0.3541334167,-0.5563929749,-1.454225922,2.747835846,3.158314109
0.3640734167,-0.4799020386,-2.962489471,8.001311188,8.545620548
0.3740124167,-0.04355941772,-2.72747818,2.037862244,3.404984166
0.3839524167,1.608105927,-3.98067215,-0.5821394348,4.332509868
0.3938924167,6.505322113,-9.229207764,3.806135101,11.91571048
0.4038314167,10.08991791,-15.04371643,17.17737946,24.96361777
0.4137714167,10.52655991,-16.70795563,6.624324646,20.82896833
0.4237104167,12.67743713,-19.21599014,-4.224814453,23.40557085
0.4336504167,20.73233688,-28.04672653,-2.138752441,34.94313844
0.4435904167,29.00503372,-38.28483627,3.74072113,48.1768997
0.4535294167,30.97239258,-43.22576157,7.338040466,53.68055889
0.4634694167,25.55770248,-40.99465118,6.149512024,48.69880984
0.4734084167,18.33791611,-33.55706772,6.302942963,38.75671621
0.4833484167,15.24609558,-22.27098724,3.483705597,27.21353538
0.4932874167,16.1204274,-15.45101944,2.118843842,22.42970531
0.5032274167,15.91565323,-12.57954071,1.944306793,20.379725
0.5131664167,14.52190155,-12.32731522,1.416204987,19.10115079
0.5231064167,12.78416519,-13.71118744,1.006806335,18.7735239
0.5330464166,11.32649643,-15.42227921,0.9240284729,19.15698426
0.5429852083,10.22583527,-15.87448883,1.477277985,18.94068248
0.5529252083,9.030421143,-14.76514572,2.57180191,17.49777698
0.5628642083,8.251590729,-12.43254639,4.106560364,15.47645945
0.5728042083,7.884254608,-9.561666412,5.214256897,13.44527465
0.5827432083,7.319029999,-6.969806213,5.021607513,11.28551908
0.5926832083,6.202501831,-5.068909149,3.749702454,8.844497579
0.6026232083,4.52119812,-4.058210907,2.439926147,6.547025875
0.6125622083,2.966381378,-3.393143921,1.493144989,4.747875957
0.6225022083,1.578018494,-2.750530243,0.672102356,3.241493569
0.6324412083,0.2119592285,-2.179018707,-0.1447489929,2.194083297
0.6423812083,-0.9957293701,-1.555714874,-0.9240284729,2.065321856
0.6523212083,-1.940414886,-0.7595205688,-1.550924835,2.597585277
0.6622602083,-2.651735687,-0.0715512085,-1.7305513,3.16727478
0.6722002083,-3.040926361,0.4531077576,-1.327289886,3.348766671
0.6821392083,-3.020568695,0.756227417,-0.5752537537,3.166485754
0.6920792083,-2.597099304,0.8376580811,0.103434906,2.73080476
0.7020182083,-2.190844116,0.7644602966,0.4179309082,2.357724269
0.7119582083,-1.900148621,0.6253994751,-0.04236190796,2.000870764
0.7218982083,-1.670526123,0.4975653076,-0.9765692139,1.997978026
0.7318372083,-1.464853821,0.4216731262,-1.252295837,1.972777181
0.7417772083,-1.179696808,0.3525169373,-0.732127533,1.432467617
0.7517162083,-0.8777746582,0.2877017212,-0.3754193115,0.9970959284
0.7616562083,-0.6798861694,0.297431488,-0.2495310974,0.7829281334
0.7715952083,-0.4760101318,0.3183879089,-0.2173480225,0.6125329942
0.7815352083,-0.2812651062,0.2993774414,-0.2195933533,0.4657876696
0.7914742083,-0.1835183716,0.3023712158,-0.1422042847,0.3812209378
0.8014142083,-0.1396595764,0.3502716064,-0.04715194702,0.3800240804
0.8113542083,-0.1073268127,0.4093986511,0.05867797852,0.4272814125
0.8212932083,-0.1089733887,0.4827461243,0.2246827698,0.5435083872
0.8312332083,-0.07439529419,0.6340814209,0.9445358276,1.140062208
0.8411722083,0.2344125366,1.257235565,6.256988525,6.386352317
0.8511122083,0.7667056274,0.8310717773,11.46840134,11.52400742
0.8610512083,0.4207749939,-1.259480896,1.008452911,1.667429458
0.8709912083,1.150357819,-3.228486328,-2.380050659,4.17265961
0.8809312083,0.652792511,-1.990560608,-0.7806266785,2.235586636
0.8908702083,0.615819397,-1.782792664,2.100132751,2.82278954
0.9008102083,1.795665894,-3.73608078,6.873256989,8.026479753
0.9107492083,3.074456635,-6.015091553,-0.119002533,6.756313461
0.9206892083,8.495134277,-15.72988953,3.280278625,18.17572444
0.9306282083,14.42310699,-32.03892471,6.408623199,35.71539113
0.9405682083,20.66767136,-39.05767914,1.133592682,44.20339321
0.9505082083,27.06252319,-53.89901642,0.6834786987,60.31543149
0.9604472083,25.74301712,-62.63889175,1.394949188,67.7368406
0.9703872083,15.11152542,-51.63272919,4.339326324,53.9733886
0.9803262083,10.79510147,-34.7569725,6.843169556,37.03255761
0.9902662083,10.67415298,-21.11973129,6.64842453,24.58011677
1.000205208,11.65566193,-15.47032928,4.828059998,19.96235724
1.010145208,11.66614014,-12.38778946,4.175117798,17.52106623
1.020085208,10.53434372,-10.73402847,3.168910217,15.36989775
1.030024208,10.14380585,-10.21400986,1.808688812,14.50841651
1.039964208,9.99486557,-10.03977219,0.8890013123,14.19453017
1.049903208,9.124874725,-9.687554626,0.01945953369,13.30835948
1.059843208,7.920628967,-9.041498108,-0.460891571,12.02902624
1.069782208,6.440806274,-8.295449524,-0.4643344116,10.51256747
1.079722208,4.919968872,-7.49671051,-0.1972897339,8.969151878
1.089662208,3.312761078,-6.596781921,0.02395019531,7.381902959
1.099601208,1.739532623,-5.531596985,0.2359094238,5.803463811
1.109541208,0.495769043,-4.387077026,0.1598675537,4.417894228
1.119480208,-0.5516029358,-3.133134613,0.005688171387,3.181325299
1.129420208,-1.539548492,-1.73174881,0.01137634277,2.317173477
1.139359208,-2.44666214,-0.2546205139,0.6854246521,2.553584576
1.149299208,-3.318000183,1.258133698,2.489024048,4.334428028
1.159239208,-3.881578217,2.324067078,4.449048157,6.345231811
1.169178208,-3.890858917,2.50983078,4.780608673,6.655242516
1.179118208,-3.741469574,1.879790955,3.219804382,5.281983422
1.189057208,-3.130739594,1.065484314,0.8336164856,3.410528357
1.198997208,-2.404449921,0.4490661621,-0.8972341919,2.605392299
1.208936208,-2.027982788,0.1112187195,-1.354682922,2.441362245
1.218876208,-1.578916626,-0.1664538574,-1.102906494,1.933154762
1.228816208,-0.9934840393,-0.3363505554,-0.9211843872,1.395966657
1.238755208,-0.7228468323,-0.3538641357,-0.8267308044,1.153781259
1.248695208,-0.5349874878,-0.3209326172,-0.7312294006,0.9612001837
1.258634208,-0.426612854,-0.2761756897,-0.7370672607,0.8952874877
1.268574208,-0.4664300537,-0.2393522644,-0.7048841858,0.8784692464
1.278513208,-0.6529421997,-0.2282752991,-0.4520599365,0.8263179258
1.288453208,-0.9839039612,-0.1812730408,0.3302133179,1.053550073
1.298393208,-1.28822113,-0.2155517578,1.298100586,1.84147804
1.308332208,-1.665436707,-0.5066963196,1.730251923,2.454423007
1.318272208,-1.713337097,-1.120719452,1.581461334,2.586997497
1.328211208,-1.488654327,-2.326911163,1.557062073,3.170969815
1.338151208,-1.245709534,-4.646337891,3.038231964,5.689560748
1.348090208,-0.513432312,-5.12728775,2.887345734,5.906729873
1.358030208,1.777254181,-5.328020325,1.808539124,5.900614101
1.367970208,4.87805603,-6.896758118,3.349135437,9.087211417
1.377909208,8.189020844,-9.868378601,7.949069824,15.08750044
1.387849208,10.39737854,-13.07635757,6.264023895,17.84193384
1.397788208,11.51151169,-14.96004044,3.225193176,19.14992382
1.407728208,13.18592972,-16.82845505,3.95372818,21.74161007
1.417667208,15.9611586,-19.68541397,4.370611267,25.71723838
1.427607208,18.88517807,-23.00461166,4.159400482,30.05266579
1.437547208,19.16659286,-24.7797702,0.4852908325,31.33098786
1.447486208,18.49778366,-26.77556992,-0.9282197571,32.5570382
1.457426208,17.45205826,-29.84688309,0.8970845032,34.58634887
1.467365208,16.17296814,-30.18053925,0.9092092896,34.25283213
1.477305208,16.15650238,-29.74569351,0.1451980591,33.85055294
1.487244208,14.90390717,-27.49123169,1.409019928,31.3030287
1.497184208,12.50978577,-21.17691238,2.711162109,24.74483296
1.507124208,11.26198059,-15.89364899,4.282294922,19.94438103
1.517063208,10.47027695,-12.8344606,5.953270111,17.60089496
1.527003208,10.30457153,-11.23114471,6.591393127,16.6063021
1.536942208,11.16138977,-10.54886353,5.991740112,16.48502632
1.546881417,12.20696548,-10.04531067,4.73300766,16.50211
1.556820417,12.0581749,-8.987610168,3.632795563,15.47171361
1.566760417,10.96439941,-7.475005646,2.669249268,13.53582859
1.576700417,9.529782715,-5.825585632,2.093396759,11.36382491
1.586639417,7.763306122,-4.384682007,1.669328613,9.070888394
1.596579417,5.429658966,-3.213367767,1.355281677,6.45319435
1.606518417,3.060535583,-2.565814362,1.04961731,4.12940406
1.616458417,0.9595046997,-2.281854858,0.4951702881,2.524421613
1.626397417,-0.9517208862,-1.970502319,0.1028361511,2.190713881
1.636337417,-2.627336426,-1.561403046,-0.190254364,3.062200661
1.646277417,-3.932322693,-1.146615601,-0.5968089294,4.139332071
1.656216417,-4.86054245,-0.8002359009,-0.750838623,4.982871566
1.666156417,-5.577252045,-0.5492079163,-0.9075627136,5.677238746
1.676095417,-5.71825882,-0.5626799011,-0.9921368408,5.830902855
1.686035417,-5.578748932,-0.9409432983,-0.698896637,5.700550012
1.695974417,-5.424719238,-1.394051056,-0.120050354,5.602264654
1.705914417,-4.647086334,-1.806742859,0.2880010986,4.994264289
1.715854417,-3.247646484,-2.05118454,0.173638916,3.845089879
1.725793417,-1.921554108,-2.093546448,-0.01182540894,2.841733055
1.735733417,-0.9481283569,-1.960772552,-0.04954696655,2.178538796
1.745672417,-0.4914280701,-1.555116119,0.1826202393,1.641108724
1.755612417,-0.3993695068,-0.8412506104,0.6267466736,1.122501664
1.765551417,-0.2871029663,-0.1537303162,0.986149292,1.038533365
1.775491417,-0.06047424316,0.384250946,0.9966275024,1.069846859
1.785431417,0.163460083,0.7120692444,0.7147636414,1.022080658
1.795370417,0.3459306335,0.9110055542,0.3043171692,1.02088592
1.805310417,0.6360273743,0.9684860229,0.1655557251,1.170429278
1.815249417,1.268462219,0.9110055542,0.9868977356,1.847402139
1.825189417,2.033371582,0.1472937012,3.240311737,3.828304531
1.835128417,2.141596527,-1.324445801,4.159250793,4.86209415
1.845068417,1.752106476,-2.131118317,1.279838562,3.041303853
1.855007417,2.036215668,-2.822979584,-0.4372407532,3.508071757
1.864947417,3.911665649,-4.626578979,0.9282197571,6.129270195
1.874887417,6.849755859,-7.925419006,3.108136597,10.92666165
1.884826417,9.589807892,-11.82331329,2.999612274,15.51621173
1.894766417,12.41997253,-16.6419429,3.302432556,21.02655564
1.904705417,14.74838058,-20.45795746,1.630708923,25.27255359
1.914645417,17.18621109,-24.37516159,0.9351054382,29.83938298
1.924584417,19.53018677,-27.87548264,-0.1067280579,34.03648217
1.934524417,21.23199783,-30.6589444,-0.3852987671,37.29500045
1.944464417,20.97109039,-33.38372818,2.85740799,39.52751851
1.954403417,20.17429733,-32.31734573,3.10184967,38.22348204
1.964343417,21.1355983,-27.51039185,1.666783905,34.73202187
1.974282417,21.68660248,-20.74835358,1.129700775,30.03463213
1.984222417,19.65128494,-16.07731705,1.772164764,25.45179151
1.994161417,17.41912674,-13.34534821,3.948788452,22.29612579
2.004101417,16.15156265,-12.53687943,5.649252319,21.21226941
2.014041417,15.44637909,-12.44272522,5.393284607,20.55479401
2.023980417,14.30380508,-12.04245758,4.512516174,19.23492726
2.033920417,12.85646484,-11.41870468,3.455564117,17.53899736
2.043859417,11.29730713,-10.36564453,2.341131592,15.5098882
2.053799417,9.639354858,-9.00961441,1.468596039,13.27580838
2.063739417,7.794441376,-7.646399231,0.6912625122,10.94068469
2.073678417,6.248605957,-6.418652344,0.07349716187,8.958212776
2.083618417,4.594695282,-5.331014099,-0.3100053406,7.044646149
2.093557417,2.620450745,-4.344415741,-0.5725593567,5.105735447
2.103497417,1.01324295,-3.364852753,-0.8931925964,3.625836226
2.113436417,-0.1459465027,-2.560575256,-1.204395447,2.833445679
2.123376417,-1.093326416,-1.681004333,-1.384470978,2.436780275
2.133315417,-1.915566559,-0.7429051208,-1.294508057,2.428385136
2.143255417,-2.657124481,0.03308120728,-0.7887098694,2.771906949
2.153195417,-2.982398071,0.5292993164,-0.1384620667,3.032165524
2.163134417,-2.736609192,0.7743397522,0.1877096558,2.850239786
2.173074417,-2.707419891,0.7080276489,0.060025177,2.799112117
2.183013417,-2.910547485,0.417481842,0.02215393066,2.940419791
2.192953417,-3.433110809,0.0383203125,0.4152365112,3.458343481
2.202892417,-3.884122925,-0.3373983765,0.8021818542,3.980420114
2.212832417,-4.059857483,-0.5786965942,0.8644523621,4.19101544
2.222772417,-4.10581192,-0.7286846924,0.8458909607,4.254903574
2.232711417,-3.609893188,-0.7801776123,1.021775208,3.831974754
2.242651417,-2.627935181,-0.6447093201,1.237177277,2.975281673
2.252590417,-1.695673828,-0.3356021118,1.287921753,2.155616142
2.262530417,-1.101409607,0.1175056458,1.29181366,1.701673656
2.272469417,-0.7933502197,0.5728587341,1.322050781,1.64480697
2.282409417,-0.5948629761,0.8985813904,1.44853775,1.805428506
2.292349417,-0.3917353821,1.018631744,1.556912384,1.90132675
2.302288417,0.02065704346,0.6571334839,1.688039703,1.811554352
2.312228417,0.1017883301,-0.7711962891,2.356699219,2.481760623
2.322167417,-0.2640509033,-2.516117706,4.464017029,5.131083631
2.332107417,-0.2655477905,-3.951931915,6.083648987,7.259412269
2.342046417,0.09864486694,-4.003724213,2.693947906,4.826685582
2.351986417,0.6239025879,-3.650758209,-0.7554789734,3.779952172
2.361926417,2.21614151,-4.776716766,0.2276765442,5.270687134
2.371865417,5.458249512,-8.081394653,5.507946167,11.19995081
2.381805417,8.562943268,-12.31848358,5.776787109,16.07607864
2.391744417,10.96664474,-15.17993317,2.022444305,18.83581559
2.401684417,14.90330841,-19.24907135,4.740492096,24.80136316
2.411623417,19.7155014,-24.40000992,3.647315369,31.58107644
2.421563417,23.97549271,-29.49735992,0.4236190796,38.01444391
2.431503417,28.44190475,-35.18792633,0.6993457031,45.2506485
2.441442417,29.79030075,-37.15603363,1.544637909,47.64891143
2.451382417,25.35352707,-33.65676041,2.207459564,42.19539944
2.461321417,20.3353624,-26.55358154,1.953288116,33.50276095
2.471261417,17.43454468,-18.34300552,1.26486969,25.33829306
2.481200417,17.06047256,-13.21511902,1.297352142,21.61902443
2.491140417,16.5278801,-10.38555313,2.57883728,19.68961493
2.501079417,14.91064316,-9.587412872,3.689976654,18.1069515
2.511019417,12.8835585,-10.10922775,4.041296082,16.86756175
2.520959417,11.37260056,-10.68912186,3.95492569,16.10077038
2.530898417,10.33121613,-11.01050354,3.64836319,15.53305407
2.540838792,9.038803711,-10.70424042,3.406915283,14.41831499
2.550777792,7.535928955,-9.697883148,3.384162598,12.73937672
2.560717792,5.965993652,-8.030051422,3.158581696,10.49054071
2.570656792,4.143832855,-6.260880432,2.575843506,7.937565388
2.580596792,2.310445404,-4.904101868,1.829345856,5.721440322
2.590536792,0.9870474243,-3.814667358,1.222507782,4.125587831
2.600475792,-0.01901046753,-2.953657837,0.9375004578,3.098929351
2.610415792,-0.9470805359,-2.056872711,0.7909552002,2.398603139
2.620354792,-1.864822083,-1.096469879,0.8388555908,2.320234104
2.630294792,-2.829565887,-0.2715353394,0.7412585449,2.937624684
2.640233792,-3.809577942,0.3902384949,0.6830296326,3.889948542
2.650173792,-4.671784973,0.8912466431,1.099014587,4.881365432
2.660113792,-4.934488678,1.079704742,1.788031769,5.358357813
2.670052792,-5.059778137,0.6873706055,1.733096008,5.392351521
2.679992792,-4.644841003,0.2059716797,0.8723858643,4.730542186
2.689931792,-3.275937653,-0.0975970459,-0.1381626892,3.280302062
2.699871792,-1.347048798,-0.2742297363,-0.6668632507,1.527890378
2.709810792,-0.3110531616,-0.3026705933,-0.7241940308,0.8442870078
2.719750792,0.196690979,-0.2685415649,-0.6285429382,0.711244078
2.729690792,0.5533992004,-0.1537303162,-0.5287005615,0.7806458665
2.739629792,0.7129673767,0.03338058472,-0.4632865906,0.8509237385
2.749569792,0.7075785828,0.2734812927,-0.5255570984,0.9228595407
2.759508792,0.6107299805,0.4956193542,-0.5963598633,0.9870535648
2.769448792,0.5126838684,0.6249504089,-0.6559359741,1.0409898
2.779387792,0.4787045288,0.7104226685,-0.8062234497,1.176373514
2.789327792,0.5993536377,0.7292834473,-1.051263885,1.412881767
2.799267792,0.7997868347,0.6616241455,-1.063238983,1.485894554
2.809206792,0.9092092896,0.182769928,-0.6562353516,1.136094721
2.819146792,1.010099487,-0.8765771484,1.631008301,2.109236011
2.829085792,1.705702972,-2.383343811,6.250102844,6.903154056
2.839025792,1.967358856,-2.728975067,2.206860809,4.023436394
2.848964792,3.358865204,-3.675756226,-0.3082090759,4.988802674
2.858904792,6.944059753,-6.75964325,1.942809906,9.883686208
2.868844792,12.40305771,-13.15000443,10.85916824,21.08743682
2.878783792,13.28622116,-14.07987076,5.441035309,20.10898552
2.888723792,15.4568573,-15.95756607,-0.9018745422,22.23447166
2.898662792,22.22652969,-23.65905075,3.668571167,32.66845143
2.908602792,26.83140381,-28.17905136,2.246977386,38.974762
2.918541792,28.0578035,-29.50065308,-0.749790802,40.71966423
2.928481792,27.49407578,-31.29137924,0.7509883118,41.66099616
2.938421792,22.89563828,-29.60708176,4.459676056,37.69188577
2.948360792,19.029478,-24.02249496,5.83875824,31.19763444
2.958300792,19.18395676,-18.08613968,4.867428131,26.81090267
2.968239792,18.14317108,-15.12140488,5.908213806,24.34622214
2.978179792,15.96834366,-13.74741211,6.716083832,22.11526895
2.988118792,14.97261429,-13.37543564,6.346203003,21.05601457
2.998058792,14.52250031,-13.1928154,5.329367523,20.33114732
3.007998792,13.65415604,-12.78132111,4.160148926,19.15998396
3.017937792,12.14978439,-11.96446976,3.281027069,17.36464615
3.027877792,9.843829651,-10.28690826,2.573448486,14.46872838
3.037816792,7.41363327,-8.487200775,1.81482605,11.41438254
3.047756792,5.326074371,-6.846013641,1.00980011,8.73239184
3.057695792,3.423081665,-5.415887604,0.220790863,6.410778052
3.067635792,1.782942352,-4.287833405,-0.2351609802,4.649698853
3.077575792,0.3375480652,-3.520529022,-0.662971344,3.598276573
3.087514792,-1.014141083,-2.975961456,-0.9773176575,3.292412266
3.097454792,-1.999541931,-2.354902954,-1.144519958,3.29448961
3.107393792,-2.802771606,-1.707499237,-1.350341949,3.548873864
3.117333792,-3.577859802,-1.027613068,-1.483265533,4.007136886
3.127272792,-4.21343811,-0.4328997803,-1.143621826,4.38729231
3.137212792,-7.55404129,-0.67045578,-6.311774597,9.866688874
3.147151792,-18.38686432,-1.712888031,-19.99392242,27.21704794
3.157091792,-2.075134735,-0.1829196167,4.0344104,4.540496783
3.167031792,-3.227288818,-0.3980223083,11.41017242,11.86447848
3.176970792,-3.022215271,-0.1832189941,10.68942123,11.10995413
3.186910792,-1.568139038,-0.7870632935,6.995852051,7.212522068
3.196849792,0.12753479,-0.730480957,4.26612854,4.330094719
3.206789792,1.440005493,0.1113684082,1.310225372,1.950053658
3.216728792,2.115101624,0.397124176,0.1893562317,2.160374567
3.226668792,1.999242554,0.5523513794,-0.2874023438,2.093958677
3.236608792,1.379082184,0.360151062,-0.6179150391,1.553510686
3.246547792,0.5043013,0.1784289551,-0.7086264038,0.8878671485
3.256487792,-0.05658233643,0.2522254944,-0.3119512939,0.4051331517
3.266426792,-0.05343887329,0.3457809448,0.08322692871,0.3596482958
3.276366792,0.5631289673,0.1285826111,0.3752696228,0.6888214656
3.286305792,1.255289612,-0.8978329468,1.153351593,1.926674832
3.296245792,1.39000946,-2.691552887,3.955374756,4.98212532
3.306185792,1.405876465,-4.309238892,4.731361084,6.55223673
3.316124792,1.695823517,-4.326752472,0.2308200073,4.652943394
3.326064792,2.900368652,-4.611610107,-1.586101685,5.674046586
3.336003792,5.834866333,-6.734196167,1.684147797,9.068153998
3.345943792,11.67676804,-11.5484848,13.99649414,21.57814314
3.355882792,13.94275589,-13.44698685,8.030949554,20.96945511
3.365822792,12.81036072,-12.72593628,-2.787353668,18.27085483
3.375762792,15.36539749,-16.19781647,-0.5812413025,22.3338877
3.385701792,20.02894958,-20.85238724,1.907333679,28.97617637
3.395641792,23.18977661,-22.45285904,-1.967358856,32.33832276
3.405580792,24.52814346,-24.45389786,-2.251018982,34.70864487
3.415520792,25.26176788,-28.17007004,-1.154249725,37.85554193
3.425459792,23.09981369,-29.92621811,0.997375946,37.8176504
3.435399792,20.2530336,-29.32177505,3.125650177,35.77319599
3.445339792,18.10365326,-24.51991058,5.003794556,30.88699138
3.455278792,16.19527176,-17.95097076,6.438111877,25.01946169
3.465218792,14.64479599,-13.86117554,6.972051544,21.33569168
3.475157792,13.42752731,-11.39640106,7.202721863,19.02775996
3.485097792,12.49781067,-9.859696655,6.699019318,17.27095103
3.495036792,11.71119644,-8.820407867,5.361400909,15.6107763
3.504976792,11.11708191,-8.151448975,3.79924942,14.29929812
3.514916792,10.21221359,-7.407196655,2.468965759,12.85502472
3.524855792,9.154213715,-6.566395111,1.510808258,11.36660526
3.534795792,7.724237366,-5.72289917,0.8207432556,9.648266025
3.544734958,6.159241791,-4.973856812,0.3004252625,7.92248486
3.554674958,4.486769714,-4.184548187,-0.230969696,6.139616682
3.564613958,2.741698608,-3.392395477,-0.726738739,4.42192351
3.574553958,1.094523926,-2.719694366,-1.014141083,3.102128657
3.584492958,-0.4186793518,-2.362237701,-1.16308136,2.666124079
3.594432958,-1.795815582,-2.105072479,-1.222058716,3.024848964
3.604372958,-3.312312012,-1.758243713,-1.142124939,3.920112396
3.614311958,-4.900659027,-1.548380127,-0.899329834,5.217540998
3.624251958,-6.31731308,-1.689985657,-0.5014572144,6.558655
3.634190958,-6.676266632,-2.021995239,-0.06780899048,6.976073319
3.644130958,-6.283483429,-2.599045258,0.2719844055,6.8052315
3.654069958,-4.839885406,-3.119213562,0.6911128235,5.799277621
3.664009958,-3.118764496,-2.957549744,1.249302063,4.475996885
3.673949958,-1.782642975,-2.406096497,1.80659317,3.497269679
3.683888958,-0.726738739,-1.608105927,2.16704361,2.794679207
3.693828958,0.09580078125,-0.6414161682,2.161505127,2.256700446
3.703767958,0.6020480347,0.2273771667,1.878294067,1.985485033
3.713707958,0.8436456299,0.8511300659,1.494043121,1.915287233
3.723646958,0.832868042,1.260828094,1.045725403,1.83763388
3.733586958,0.7378157043,1.470092926,0.6204597473,1.757986212
3.743526958,0.7372169495,1.522483978,0.2472857666,1.709560337
3.753465958,0.6216572571,1.338815918,-0.2387535095,1.495288951
3.763405958,0.4670288086,1.030906219,-0.7066804504,1.334271637
3.773344958,0.6069877625,0.5947132874,-0.6460565186,1.067476961
3.783284958,1.167122955,-0.4987628174,1.139729919,1.705850119
3.793223958,1.874402161,-1.948947144,3.598666534,4.501353047
3.803163958,2.441872101,-2.835553436,1.689536591,4.105805224
3.813103958,3.695814514,-3.721560974,-0.6941065979,5.290637483
3.823042958,5.992937622,-5.498366089,0.2203417969,8.136085146
3.832982958,10.12075378,-9.496551819,6.065386963,15.14605799
3.842921958,13.30912354,-13.71897125,9.119036865,21.17781327
3.852861958,14.73700424,-15.64172287,2.479593658,21.63310364
3.862800958,18.79072449,-19.65532654,1.400936737,27.22840083
3.872740958,23.04038727,-22.39118729,-1.03434906,32.14489993
3.882680958,26.69982742,-25.20249115,-2.791245575,36.82169736
3.892619958,30.12829788,-28.66898254,-2.23140976,41.6485784
3.902559958,30.94305359,-30.2886145,0.3354524231,43.30110001
3.912498958,27.79030975,-27.82174438,3.493435364,39.47853679
3.922438958,24.38504105,-20.43206131,6.321803741,32.43554468
3.932377958,21.91158463,-14.1921373,8.61069397,27.48960444
3.942317958,19.03426804,-11.18114868,9.30330368,23.95564453
3.952257958,16.77800995,-10.72384964,8.378227386,21.60317715
3.962196958,14.90720032,-10.721754,6.138884125,19.3614702
3.972136958,13.38621323,-10.68253555,4.134103088,17.61811791
3.982075958,11.57168655,-10.28930328,2.812501373,15.73797496
3.992015958,9.287586365,-9.583371277,1.875899048,13.47661911
4.001954958,7.268435211,-8.580756226,1.053209839,11.29463496
4.011894958,5.433999939,-7.247179413,0.2420466614,9.061376902
4.021834958,3.667223969,-5.836213531,-0.2818638611,6.898504712
4.031773958,2.049238586,-4.7072612,-0.5984555054,5.168736381
4.041713958,0.6355783081,-3.666774902,-0.798589325,3.806171683
4.051652958,-0.7081773376,-2.889591064,-0.7364685059,3.064904162
4.061592958,-1.84760788,-2.11899353,-0.5388793945,2.862547722
4.071531958,-2.93225235,-1.515448608,-0.493074646,3.337335904
4.081471958,-3.873045959,-0.9948312378,-0.5233117676,4.032868632
4.091411958,-4.472848663,-0.6604266357,-0.2643502808,4.529063874
4.101350958,-4.585115204,-0.440533905,0.3141966248,4.616933081
4.111290958,-4.67911972,-0.4480183411,0.9719288635,4.799950782
4.121229958,-5.16710495,-0.7834707642,1.514700165,5.441242192
4.131169958,-5.651048584,-1.301244049,2.414778442,6.281619306
4.141108958,-5.682782593,-1.683998108,3.708987122,6.991884803
4.151048958,-4.715045013,-1.677112427,3.978875885,6.393419185
4.160987958,-2.915038147,-1.202748871,3.015030212,4.36284992
4.170927958,-0.9954299927,-0.5749543762,1.913620605,2.232352398
4.180867958,0.2317181396,-0.1423539734,1.161285095,1.192703242
4.190806958,0.6885681152,0.0672102356,0.6092330933,0.9218504364
4.200746958,0.8599617004,0.1683998108,0.229921875,0.9059562302
4.210685958,0.8768765259,0.1933978271,0.0001496887207,0.8979505463
4.220625958,0.8084687805,0.2008822632,-0.02125579834,0.8333230236
4.230564958,0.6556365967,0.2380050659,0.1471440125,0.7128514002
4.240504958,0.6508465576,0.2124082947,0.3625460815,0.7746987714
4.250444958,0.8566685486,-0.1196012878,0.3128494263,0.9198153259
4.260383958,1.134341125,-0.9180409241,0.1682501221,1.468957804
4.270323958,1.588796082,-2.227966919,1.56559433,3.152648916
4.280262958,2.431992645,-3.611090698,3.059338074,5.321100798
4.290202958,3.400029602,-4.072431335,1.150956573,5.428590914
4.300141958,4.940625916,-4.86173996,0.62599823,6.95975385
4.310081958,7.657476196,-7.313341827,5.370531921,11.87284816
4.320021958,10.08422974,-10.04007156,5.948480072,15.42333108
4.329960958,11.28428421,-11.2672197,0.9364526367,15.97379896
4.339900958,14.55243805,-14.57938202,2.40804245,20.73958779
4.349839958,20.05155258,-18.90059601,0.8882528687,27.56966238
4.359779958,25.76756607,-23.40862152,-1.480720825,34.84427581
4.369718958,32.70369232,-29.72129425,-0.8967851257,44.20057745
4.379658958,37.6621312,-34.16585175,1.142873383,50.86302892
4.389598958,36.04594208,-33.21068802,3.901636505,49.16790118
4.399537958,29.19663528,-24.98274811,6.895710297,39.04013365
4.409477958,24.01890244,-14.7441893,7.648943939,29.20282753
4.419416958,21.93343918,-10.28017227,6.596332855,25.10516487
4.429356958,19.05702072,-8.075107727,6.088888092,21.57433572
4.439295958,16.29182098,-7.637268219,5.13432312,18.71129527
4.449235958,14.78714996,-8.220605164,3.17908905,17.21466702
4.459175958,13.78498398,-8.321944427,1.482966156,16.17033491
4.469114958,12.13840805,-8.264014893,0.2474354553,14.68659649
4.479054958,10.12838791,-8.027357025,-0.4261637878,12.93075087
4.488993958,7.985294495,-7.435487823,-0.6201603699,10.92867816
4.498933958,5.667963409,-6.688840485,-0.3561094666,8.774577494
4.508872958,3.363804932,-5.96389801,-0.09669891357,6.847818176
4.518812958,1.258582764,-5.020559692,-0.008232879639,5.175917115
4.528752958,-0.7300318909,-4.078718262,0.02874023438,4.143635508
4.538691958,-2.405497742,-2.989283752,0.02155517578,3.837017248
4.548632042,-3.728296967,-1.985022125,0.3141966248,4.235472893
4.558571042,-5.09570343,-1.223405914,0.6909631348,5.285862799
4.568511042,-6.29740448,-0.7417076111,0.8566685486,6.398540018
4.578450042,-6.819369049,-0.4234693909,0.859662323,6.886373491
4.588390042,-6.939569092,-0.4788542175,1.167272644,7.053328715
4.598329042,-6.941515045,-0.9874964905,1.548829193,7.180435384
4.608269042,-6.319857788,-1.655108185,1.749412079,6.763167023
4.618209042,-4.815186768,-2.0968396,1.820364532,5.558460843
4.628148042,-3.110531616,-2.002236328,1.606609039,4.033057135
4.638088042,-1.76677597,-1.659898224,1.368304596,2.783705608
4.648027042,-0.812510376,-1.210083618,1.433718567,2.044510798
4.657967042,-0.03682342529,-0.5599855042,1.416504364,1.523622113
4.667906042,0.466280365,-0.0513432312,0.9005273438,1.01538318
4.677846042,0.5535488892,0.1056802368,0.2727328491,0.626073392
4.687786042,0.4185296631,0.1555265808,-0.02769241333,0.4473504957
4.697725042,0.3327580261,0.2130070496,-0.1082249451,0.4096492962
4.707665042,0.3543132019,0.2619552612,-0.2386038208,0.5010890013
4.717604042,0.4090992737,0.2017803955,-0.5647755432,0.7259813758
4.727544042,0.3113525391,0.200433197,-0.7696994019,0.8541375997
4.737483042,0.3594026184,0.1082249451,-0.6783892822,0.7753031014
4.747423042,0.7385641479,-0.3552113342,0.1830693054,0.8397419027
4.757363042,2.441872101,-1.63460083,7.87347702,8.403945479
4.767302042,3.768712921,-2.832859039,7.342531128,8.725883954
4.777242042,3.862567749,-3.214415588,-0.2636018372,5.032035683
4.787181042,4.588258667,-3.893253937,-0.4796026611,6.036519073
4.797121042,6.905140686,-5.933211823,3.14046936,9.630499376
4.807060042,11.07097778,-10.03468277,9.154363403,17.52323534
4.817000042,15.25747192,-14.18764664,6.37464386,21.78797492
4.826940042,18.2677121,-17.02529572,4.89332428,25.44630861
4.836879042,21.71459427,-19.22976151,0.8822653198,29.01871334
4.846819042,27.64256699,-23.72311752,-0.6264472961,36.43199488
4.856758042,32.91535217,-29.03332489,1.047521667,43.90275236
4.866698042,34.44307526,-32.04146942,2.915636902,47.13260161
4.876637042,30.52646988,-30.77585129,2.701432343,43.43174096
4.886577042,24.49685852,-26.06095596,2.487078094,35.85324338
4.896516042,20.99638779,-18.72770554,2.914439392,28.28549472
4.906456042,18.73653717,-14.12402893,3.621269531,23.74151662
4.916396042,15.92628113,-12.13885712,4.662653961,20.56060857
4.926335042,13.20718552,-11.50896698,5.310955811,18.30552708
4.936275042,11.68051025,-10.59736267,5.189707947,16.60335761
4.946214042,10.91290649,-9.199868774,4.559518433,14.98393546
4.956154042,10.15009277,-8.047565002,3.625760193,13.45116436
4.966093042,9.027277679,-7.008575592,2.452200623,11.68867666
