Time (s),Acceleration x (m/s^2),Acceleration y (m/s^2),Acceleration z (m/s^2),Absolute acceleration (m/s^2)
14.91091738,-0.3393443298,-0.3565585327,11.75340866,11.76371131
14.92085638,-0.2486329651,0.02649490356,11.03849533,11.04132689
14.93079537,-0.2965333557,0.07858657837,11.03205872,11.03632309
14.94073538,-0.1787283325,-0.1919009399,10.72444839,10.72765413
14.95067437,0.06451583862,-0.4129911804,10.43809387,10.44646006
14.96061338,0.1094224548,-0.8373587036,9.972112885,10.00780587
14.97055238,0.2525248718,-1.183888092,9.61345871,9.689372951
14.98049238,0.1606159973,-1.351539459,9.194929047,9.295115738
14.99043138,-0.2478845215,-1.397942963,8.923992462,9.036223366
15.00037037,-0.6620732117,-1.264420624,8.481213226,8.600469652
15.01030938,-1.006656647,-0.9719288635,7.985593872,8.107262967
15.02024937,-1.169667664,-0.7631130981,7.362589417,7.493876631
15.03018838,-1.195713501,-0.7170089722,6.845714264,6.986246233
15.04012737,-0.9788145447,-0.623303833,6.522686005,6.625105154
15.05006637,-0.8029302979,-0.5303471375,6.37344635,6.445679446
15.06000638,-0.556842041,-0.230969696,6.111640778,6.141300599
15.06994537,-0.2917433167,-0.08517288208,6.28213623,6.28948362
15.07988438,-0.3059637451,0.2426454163,6.426286469,6.438140134
15.08982337,-0.4861889648,0.3769161987,6.511159973,6.540156705
15.09976338,-0.5313949585,0.5846841431,6.83448761,6.880004145
15.10970237,-1.145268402,0.5336402893,7.210505676,7.320369101
15.11964138,-1.326541443,0.3927832031,7.544161835,7.669965361
15.12958038,-1.67202301,0.4438270569,7.879913635,8.067569789
15.13952037,-2.081721039,0.2119592285,7.996670837,8.265907916
15.14945938,-2.114053802,0.02859054565,8.223598938,8.491031763
15.15939837,-2.311193848,-0.1481918335,8.160280609,8.482556068
15.16933738,-2.370021515,-0.2118095398,8.071814575,8.415227614
15.17927737,-2.42211319,-0.1270857239,7.968978424,8.329909976
15.18921638,-2.518363037,0.01916015625,8.091573486,8.474436912
15.19915538,-2.646197205,0.1052311707,8.261021118,8.675131305
15.20909437,-2.907853088,0.1296304321,8.45037735,8.937633411
15.21903438,-3.15334259,0.2001338196,8.827592926,9.376034338
15.22897337,-3.260220337,0.3641926575,9.374405823,9.931825485
15.23891238,-3.305725708,0.4992118835,9.950857086,10.49745644
15.24885237,-3.252137146,0.5373825073,10.66187851,11.15978626
15.25879138,-3.27743454,0.3709286499,11.26632156,11.73921491
15.26873038,-3.3230896,-0.09639953613,11.34161499,11.81881754
15.27866937,-3.428769836,-1.046324158,11.1423793,11.70486537
15.28860938,-3.313958588,-1.666484528,11.10450806,11.70767233
15.29854837,-3.225193176,-1.872905273,10.87817871,11.49975727
15.30848738,-2.932701416,-1.288071442,10.72369995,11.19185446
15.31842638,-2.891537018,-0.8307723999,11.00721039,11.41095306
15.32836638,-3.251388702,-0.6902146912,11.533965,12.00334426
15.33830538,-3.853885803,-0.9104067993,12.19005066,12.81712181
15.34824437,-4.449946289,-1.654808807,13.16751801,13.99728347
15.35818338,-4.367018738,-2.459086304,13.82105896,14.70168796
15.36812337,-3.124901733,-2.913241882,14.22342224,14.85118613
15.37806238,-1.506167908,-2.999163208,14.28614182,14.67505944
15.38800138,0.9669891357,-3.384312286,13.18907318,13.6506516
15.39794037,3.577560425,-3.320095825,12.952565,13.84163701
15.40788038,6.277944946,-2.948718109,11.89142166,13.76638807
15.41781937,6.721921692,-2.233954468,13.52332809,15.26614511
15.42775838,5.483696594,-1.198108521,13.62302078,14.73407912
15.43769737,3.433709564,-0.6664141846,13.2711026,13.72430812
15.44763738,1.236578522,-0.6773414612,13.64742004,13.72005801
15.45757637,0.1483415222,-0.9174421692,13.42872482,13.46084528
15.46751537,0.0845741272,-1.37953125,13.02740936,13.10052113
15.47745438,-0.05822891235,-1.88503006,11.61494659,11.76706052
15.48739437,-0.199385376,-2.049537964,10.63852707,10.8359872
15.49733338,-0.3838018799,-2.929707642,9.678273926,10.11926267
15.50727237,-0.3249742126,-3.063529358,9.406588898,9.898218782
15.51721238,-0.5580395508,-3.034639435,9.16529068,9.670728922
15.52715137,-0.8357121277,-2.94512558,8.885073395,9.397696988
15.53709038,-1.133592682,-2.729274445,8.474776611,8.975288852
15.54702938,-1.303788757,-2.621348877,7.967032471,8.487929161
15.55696938,-1.347348175,-2.578388214,7.515122223,8.058566554
15.56690838,-1.744472351,-2.353855133,7.331454163,7.895190809
15.57684737,-2.019749908,-2.044298859,6.675817566,7.268086935
15.58678638,-2.038161621,-1.642983398,6.155649261,6.689208852
15.59672637,-1.871558075,-1.28238327,5.984405365,6.400026879
15.60666538,-1.739382935,-0.9970765686,5.767057343,6.105617501
15.61660438,-1.697919159,-0.9056167603,5.850583649,6.158928496
15.62654337,-1.593735809,-0.975970459,5.824088745,6.116577628
15.63648338,-1.47428421,-1.031654663,6.05640564,6.318059397
15.64642237,-1.572480011,-1.07057373,6.167025604,6.453760632
15.65636138,-1.823507996,-1.208437042,6.583759003,6.937678582
15.66630038,-1.86048111,-1.320104828,7.032076721,7.392845848
15.67624038,-2.020198975,-1.642085266,7.290289764,7.74118678
15.68617938,-2.082319794,-1.747316437,7.538024597,8.01317573
15.69611837,-2.068847809,-1.846260681,7.714657288,8.197850134
15.70605738,-2.105222168,-2.066452789,7.895930328,8.428991829
15.71599737,-2.223775635,-2.20446579,7.960595856,8.5542933
15.72593638,-2.313588867,-2.153122559,8.10519516,8.699587276
15.73587579,-2.471510468,-2.108215942,8.043523407,8.674745371
15.74581479,-2.59530304,-2.053280182,8.108937378,8.758220297
15.75575479,-2.733465729,-2.145638123,8.183482361,8.890724458
15.76569379,-2.841241608,-2.276915131,8.511001282,9.257112898
15.77563279,-2.85261795,-2.450703735,9.051227875,9.801433773
15.78557179,-2.870580597,-2.45010498,9.49176178,10.21453812
15.79551179,-2.883902893,-2.64440094,10.02195923,10.75869039
15.80545079,-2.858755188,-2.424957275,10.79270645,11.42520948
15.81538979,-2.957400055,-2.070644073,11.21482864,11.78160275
15.82532979,-3.269950104,-1.560055847,11.60087585,12.15346323
15.83526879,-3.563789062,-1.392254791,11.72706345,12.33543607
15.84520779,-3.591780853,-1.689087524,11.80026123,12.44990247
15.85514679,-3.506607971,-2.242935791,11.51869675,12.24775225
15.86508679,-3.438948669,-2.903212738,11.49848877,12.34788468
15.87502579,-3.482508087,-3.108435974,12.19229599,13.05535592
15.88496479,-3.635040894,-2.842738495,13.0733638,13.86389287
15.89490379,-3.507805481,-2.405946808,13.91491379,14.55053625
15.90484379,-2.710862732,-2.01376236,14.6964386,15.07943378
15.91478279,-1.635199585,-1.539249115,14.86408997,15.03277539
15.92472179,-0.206869812,-0.9128018188,14.26473633,14.29540852
15.93466079,2.188449097,-0.5313949585,12.91020309,13.10515296
15.94460079,3.758384399,-1.159788208,11.94785431,12.57862411
15.95453979,5.487887878,-2.02304306,10.59556641,12.10271226
15.96447879,4.790039062,-2.560425568,11.19836288,12.44602686
15.97441779,3.32892746,-2.188299408,11.47828079,12.14995236
15.98435779,0.9562115479,-1.422342224,11.3600267,11.48858584
15.99429679,-0.2406994629,-0.8674461365,12.02329742,12.05695152
16.00423579,-0.3372486877,-0.4478686523,11.81403259,11.82732806
16.01417479,-0.5526507568,-0.2915936279,11.30119904,11.31846056
16.02411479,-0.7075785828,-0.1986369324,11.02158051,11.04605635
16.03405379,-0.4939727783,-0.3929328918,10.8650061,10.883325
16.04399279,-0.3294648743,-0.615819397,10.644814,10.66770105
16.05393179,-0.1927990723,-0.8358618164,10.07689499,10.11334015
16.06387179,-0.1312770081,-0.9595046997,9.673783264,9.722137911
16.07381079,-0.2276765442,-1.104702759,9.261989594,9.33041564
16.08374979,-0.6623725891,-0.9653425598,8.867110748,8.94406377
16.09368979,-1.246607666,-0.7482939148,8.376730499,8.501975554
16.10362879,-1.771266632,-0.7512876892,7.71435791,7.950668943
16.11356779,-1.921853485,-0.8363108826,7.085066528,7.388579324
16.12350679,-1.578317871,-0.6283932495,6.594985657,6.810271741
16.13344679,-1.079255676,-0.3872447205,6.273753662,6.377674835
16.14338579,-0.7330256653,-0.3733236694,6.13125,6.186188144
16.15332479,-0.4427792358,-0.2501298523,6.132148132,6.153199096
16.16326379,-0.316741333,-0.2665956116,6.110592957,6.124601585
16.17320379,-0.3679348755,-0.2134561157,6.105653229,6.120452674
16.18314279,-0.4742138672,-0.04819976807,6.350543976,6.368407242
16.19308179,-0.7188052368,0.0426612854,6.74197998,6.780324108
16.20302079,-1.084195404,0.03652404785,7.064559174,7.14736385
16.21296079,-1.516047363,-0.1478924561,7.36917572,7.524959972
16.22289979,-1.838925934,-0.1987866211,7.525750122,7.749714808
16.23283879,-1.839824066,-0.2165995789,7.691156158,7.911115663
16.24277779,-2.248474274,-0.2215393066,8.025411072,8.337382029
16.25271779,-2.541714478,-0.2670446777,7.991880798,8.390577098
16.26265679,-2.573897552,-0.3535647583,7.83021698,8.249985127
16.27259579,-2.745291138,-0.4050576782,8.023016052,8.489374637
16.28253479,-2.888243866,-0.3137475586,8.101902008,8.607043994
16.29247479,-3.050207062,-0.2424957275,8.297844543,8.844025744
16.30241379,-3.23177948,-0.1616638184,8.585246887,9.174802336
16.31235279,-3.373534698,-0.1206491089,9.033863983,9.643961377
16.32229179,-3.445085907,-0.1080752563,9.685908051,10.28091007
16.33223179,-3.513493652,-0.2293231201,10.3407962,10.9237948
16.34217079,-3.565585327,-0.5481600952,10.99523529,11.57190897
16.35210979,-3.661535797,-1.130748596,11.37903717,12.00699478
16.36204879,-3.687581635,-1.83114212,11.46435974,12.18125133
16.37198879,-3.57456665,-2.319277039,11.4184053,12.18755728
16.38192779,-3.439397736,-2.267784119,11.35119507,12.07567518
16.39186679,-3.287014618,-1.628463593,11.23144409,11.81531613
16.40180679,-3.185974731,-1.027014313,11.11004654,11.60337569
16.41174579,-3.333717499,-0.7291337585,11.39610168,11.89606834
16.42168479,-3.748355255,-0.6313870239,11.96671509,12.55591839
16.43162379,-4.291126556,-1.0776091,12.45470032,13.21720729
16.44156379,-4.474495239,-1.907932434,13.05001236,13.92710079
16.45150279,-3.736978912,-2.741848297,13.33921097,14.12151878
16.46144179,-2.149679718,-3.1147229,13.56793533,14.08586138
16.47138079,0.1555265808,-3.282523956,13.38007599,13.77772062
16.48132079,2.090852051,-3.189267883,12.42775635,12.99970076
16.49125979,3.731889496,-2.905907135,11.87151306,12.77904996
16.50119879,6.238427124,-2.820883942,11.72661438,13.57898538
16.51113779,5.124593353,-1.883383484,12.79045212,13.90698586
16.52107779,4.106859741,-0.8475375366,12.69270538,13.36747496
16.53101679,2.071542206,-0.5906716919,12.87846909,13.05737899
16.54095579,0.8289761353,-0.5641767883,13.24924805,13.2871393
16.55089479,0.4059558105,-1.017284546,13.38411758,13.42885965
16.56083479,0.2945874023,-1.551074524,12.9658873,13.06165561
16.57077379,-0.08202941895,-2.016606445,11.93348419,12.10295317
16.58071279,-0.1405577087,-2.263892212,11.55177795,11.77236333
16.59065179,-0.03278182983,-2.476300507,10.9552684,11.23169821
16.60059179,0.01526824951,-2.480342102,10.58987823,10.87648156
16.61053079,-0.3848497009,-2.545905762,9.851613464,10.1825357
16.62046979,-0.7942483521,-2.143991547,9.391769714,9.666067896
16.63040879,-1.264720001,-1.902693329,9.05062912,9.334540484
16.64034879,-1.495989075,-1.716779938,8.555608521,8.853459992
16.65028779,-1.843715973,-1.563498688,7.987090759,8.344904765
16.66022679,-2.019749908,-1.194216614,7.638914795,7.991155252
16.67016579,-1.962119751,-0.9557624817,7.011419678,7.343255527
16.68010579,-1.848056946,-0.8178991699,6.322252808,6.637405675
16.69004479,-1.556762695,-0.6771917725,6.062393188,6.295610372
16.69998379,-1.350940704,-0.6370751953,6.049220581,6.230888799
16.70992379,-1.210233307,-0.7578739929,6.009104004,6.17643656
16.71986279,-0.9523196411,-0.8888516235,5.831273804,5.975008291
16.72980179,-0.9080117798,-1.069825287,5.962101746,6.125003572
16.73974087,-0.9636959839,-1.132844238,6.122717743,6.300771268
16.74968088,-1.215472412,-1.237776031,6.241720276,6.478312642
16.75961987,-1.594933319,-1.324445801,6.587950287,6.90645046
16.76955888,-1.902992706,-1.487007751,7.131020966,7.52887995
16.77949788,-2.262694702,-1.621278534,7.562872925,8.058869541
16.78943788,-2.519560547,-1.662143555,7.765551453,8.33154823
16.79937688,-2.719544678,-1.762434998,8.042325897,8.670703905
16.80931587,-2.808010712,-1.896855469,8.169261932,8.84419727
16.81925488,-2.808908844,-1.890269165,8.292006683,8.956587589
16.82919487,-2.860551453,-2.003433838,8.371641083,9.070880672
16.83913388,-2.894530792,-2.093097382,8.397836609,9.125953367
16.84907287,-2.983894958,-2.264490967,8.52761673,9.314064395
16.85901187,-3.065475311,-2.477797394,8.626860352,9.48468968
16.86895187,-3.123255157,-2.556234283,8.944200439,9.812633591
16.87889087,-3.258124695,-2.733914795,9.17576889,10.1135751
16.88882988,-3.344794464,-2.812351685,9.614207153,10.56077418
16.89876887,-3.427722015,-2.660417633,10.10413834,10.9963954
16.90870888,-3.640279999,-2.539618835,10.28136978,11.19856539
16.91864787,-3.739673309,-2.228415985,10.72100555,11.57112589
16.92858688,-3.857478333,-1.664089508,10.91395432,11.69460268
16.93852588,-4.089944916,-1.650467834,11.24761047,12.08140865
16.94846588,-3.946393433,-2.072590027,11.42708725,12.26572352
16.95840488,-3.508254547,-2.521805878,12.19304443,12.9359069
16.96834387,-2.902613983,-2.698737946,13.38097412,13.95560185
16.97828388,-1.792672119,-2.711012421,14.59509933,14.95259798
16.98822287,-0.5340893555,-2.311044159,15.35252426,15.53467662
16.99816188,-0.1017883301,-1.936373291,15.8482933,15.96647435
17.00810088,2.022294617,-1.676663361,15.81805618,16.03470539
17.01804088,4.197571106,-1.786385193,13.88048538,14.61090859
17.02797988,5.083728333,-2.469115448,12.81395325,14.00493565
17.03791887,5.264402618,-2.912643127,13.40836716,14.69631705
17.04785788,3.827690277,-2.905158691,12.54825577,13.43688516
17.05779787,1.466949463,-2.218087463,11.7595459,12.05648259
17.06773688,0.3332070923,-1.479673004,11.5591127,11.6581965
17.07767588,0.09445358276,-0.4337979126,11.174263,11.18307899
17.08761487,0.09116043091,0.05119354248,10.76606186,10.76656951
17.09755488,-0.04954696655,0.2231858826,10.64316742,10.64562255
17.10749387,-0.2667453003,0.1281335449,10.79495178,10.79900714
17.11743288,-0.3213816833,0.242795105,11.06334366,11.07067336
17.12737188,-0.467328186,-0.0817300415,10.92637848,10.93667326
17.13731188,-0.1481918335,-0.5872288513,10.63059357,10.64783162
17.14725088,-0.1303788757,-0.9092092896,9.925110626,9.967521313
17.15718987,-0.07813751221,-0.8689430237,9.61106369,9.650580952
17.16712888,-0.3378474426,-0.693507843,9.208700409,9.240955429
17.17706887,-0.7011419678,-0.463585968,8.456664276,8.498334113
17.18700788,-1.082848206,-0.2661465454,7.799680481,7.87898533
17.19694687,-1.225351868,-0.2585124207,6.993157654,7.10440496
17.20688587,-1.140029297,-0.2639012146,6.467450867,6.572460069
17.21682588,-0.8399034119,-0.1540296936,6.144871674,6.203918985
17.22676487,-0.7099736023,-0.2290237427,5.77903244,5.826982953
17.23670388,-0.4270619202,-0.1803749084,5.586981812,5.606182547
17.24664387,-0.2811154175,-0.1679507446,5.681285706,5.690715298
17.25658288,-0.3646417236,-0.1721420288,5.871390381,5.885220596
17.26652187,-0.6011499023,-0.07649093628,6.183491364,6.21311496
17.27646088,-0.9403445435,0.06691085815,6.476881256,6.545129161
17.28640087,-1.317859497,0.09265731812,6.766678619,6.894438235
17.29633987,-1.571581879,0.3112028503,7.192692719,7.368958227
17.30627888,-1.86631897,0.452359314,7.406298523,7.651211228
17.31621787,-1.981728973,0.2442919922,7.680079193,7.935398208
17.32615788,-2.152823181,0.2192939758,7.635471954,7.936193638
17.33609687,-2.312541046,0.2113604736,7.525151367,7.875304593
17.34603588,-2.388582916,0.2038760376,7.436086578,7.81295574
17.35597488,-2.370769958,0.3381468201,7.419620819,7.79651631
17.36591488,-2.505489807,0.3405418396,7.458839264,7.875768603
17.37585388,-2.753074951,0.357456665,7.785609741,8.26576772
17.38579287,-3.019820251,0.3785627747,8.121810608,8.673317224
17.39573188,-3.298241272,0.4683760071,8.601113892,9.223715724
17.40567187,-3.526516571,0.5325924683,9.255552979,9.918933148
17.41561088,-3.645519104,0.6625222778,9.851164398,10.52493161
17.42554988,-3.633693695,0.6321354675,10.67355423,11.29283335
17.43548887,-3.570225677,0.502205658,11.76703033,12.3069787
17.44542888,-3.471880188,-0.2113604736,11.96102692,12.45651597
17.45536787,-3.308270416,-1.260528717,11.48232239,12.0157111
17.46530688,-3.098257141,-1.770967255,11.41675873,11.96151755
17.47524588,-2.985391846,-1.772314453,11.24042542,11.76438806
17.48518588,-2.861599274,-1.163829803,10.94029953,11.36808709
17.49512488,-2.823278961,-0.2389031982,11.15899475,11.51308572
17.50506387,-3.249143372,-0.04445755005,11.42259659,11.87579984
17.51500288,-4.012555847,-0.1058299255,12.23271194,12.87443381
17.52494287,-4.778962097,-0.2462379456,13.26885727,14.10537788
17.53488188,-5.052293701,-0.6771917725,14.3659259,15.24349328
17.54482088,-4.520749054,-1.101559296,15.05584122,15.75845677
17.55476088,-3.21770874,-1.755998383,15.22903107,15.6639895
17.56469988,-1.105600891,-2.557431793,14.66874619,14.9310055
17.57463887,1.79252243,-3.957171021,13.43366455,14.11862891
17.58457788,5.067112885,-4.147425385,12.30471222,13.93853339
17.59451787,6.552623749,-3.47517334,13.12186295,15.07305526
17.60445688,6.075715485,-2.299967194,13.47976868,14.9635668
17.61439587,4.790188751,-1.213975525,13.54323669,14.41661906
17.62433487,2.525548096,-0.6676116943,13.34624634,13.59949962
17.63427487,0.9282197571,-0.4731660461,13.27349762,13.31432376
17.64421387,0.3975732422,-0.7108717346,13.22484879,13.24990674
17.65415288,0.1118174744,-1.296603699,12.20232513,12.27152896
17.66409187,-0.2013313293,-1.386267242,11.26362717,11.35039947
17.67403188,-0.3674858093,-1.786534882,10.82848206,10.98101891
17.68397087,-0.5474116516,-2.723436584,9.826465759,10.21157165
17.69390988,-0.1998344421,-2.489024048,9.363927612,9.691146209
17.70384888,-0.2915936279,-2.435285797,9.317973175,9.635365476
17.71378888,-0.5769003296,-2.412084045,9.026229858,9.360757923
17.72372788,-0.9226812744,-2.280956726,8.472680969,8.822722206
17.73366687,-1.207688599,-2.263443146,8.143066406,8.537635335
17.74360625,-1.367107086,-2.177671509,7.679779816,8.098780958
17.75354625,-1.64283371,-2.066752167,7.265291748,7.730124921
17.76348525,-1.872605896,-1.776356049,6.764582977,7.240281521
17.77342425,-1.751807098,-1.583856354,6.25758728,6.688409948
17.78336325,-1.521885223,-1.238374786,6.068231049,6.377549279
17.79330325,-1.324894867,-0.8753796387,5.87154007,6.082484584
17.80324225,-1.240620117,-0.9282197571,5.684728546,5.892102242
17.81318125,-1.153201904,-0.8563691711,5.699398041,5.877616933
17.82312125,-1.126108246,-0.8822653198,5.930218048,6.100327694
17.83306025,-1.219663696,-0.7671546936,6.208938446,6.373933047
17.84299925,-1.531315613,-0.9139993286,6.463409271,6.704922198
17.85293825,-1.687890015,-1.055754547,6.814279633,7.099154687
17.86287825,-1.889520721,-1.09167984,7.336543579,7.654209634
17.87281725,-2.118394775,-1.185834045,7.723189545,8.095767755
17.88275625,-2.324665833,-1.118174744,7.891888733,8.302788313
17.89269525,-2.477198639,-0.9500743103,8.113577728,8.536351553
17.90263525,-2.614463196,-0.7641609192,8.212072906,8.65202295
17.91257425,-2.502196655,-0.5897735596,8.458610229,8.840639568
17.92251325,-2.600841522,-0.7424560547,8.404123535,8.828641459
17.93245225,-2.553689575,-0.9713301086,8.194858704,8.63831707
17.94239225,-2.553988953,-1.110540619,8.220455475,8.679403681
17.95233125,-2.726580048,-1.402134247,8.465346222,9.003460771
17.96227025,-2.949466553,-1.568139038,9.034911804,9.632655101
17.97220925,-3.396287384,-1.808539124,9.702822876,10.4379286
17.98214925,-3.771856384,-2.138752441,10.43569885,11.30066251
17.99208825,-3.984414368,-2.354902954,11.10301117,12.02904746
18.00202725,-4.211641846,-2.476899261,11.45268402,12.45138258
18.01196625,-4.16553772,-2.305954742,11.61000687,12.54836209
18.02190625,-4.119732971,-2.321672058,11.38682098,12.32972234
18.03184525,-3.888912964,-2.492167511,10.99882782,11.92932338
18.04178425,-3.630550232,-2.746039581,11.01723953,11.92062059
18.05172325,-3.650907898,-2.687211914,11.65551224,12.50604661
18.06166325,-4.046984253,-2.598296814,12.70363266,13.58350141
18.07160225,-3.921694794,-2.228116608,13.98421967,14.69362424
18.08154125,-3.362906799,-1.704056396,14.9233667,15.3922001
18.09148125,-2.304607544,-1.06473587,14.88070541,15.09570376
18.10142025,-0.4079017639,-0.6960525513,14.52773941,14.55012321
18.11135925,2.296374664,-0.8137078857,13.4462384,13.66516682
18.12129825,4.306245117,-1.489103394,12.15173035,12.97789376
18.13123825,7.074738007,-2.98254776,10.4351001,12.95526237
18.14117725,6.642436981,-3.680845642,11.2034523,13.53469383
18.15111625,4.207001495,-3.049009552,11.90668991,12.99094244
18.16105525,1.490749969,-1.826950836,12.03796692,12.26673275
18.17099525,-0.1231938171,-0.9077124023,12.6181604,12.65136714
18.18093425,-0.05748046875,-0.2269281006,12.50514542,12.50733634
18.19087325,-0.01826202393,0.1216969299,11.89202042,11.89265711
18.20081225,-0.07499404907,0.2960842896,11.38831787,11.392413
18.21075225,-0.2942880249,0.1091230774,11.30898285,11.31333754
18.22069125,-0.2405497742,-0.2607577515,11.01140167,11.01711512
18.23063025,-0.007484436035,-0.4637356567,10.77504318,10.78502028
18.24056925,0.1760339355,-0.699944458,10.21101608,10.23649157
18.25050925,0.38963974,-1.110690308,9.591454468,9.66340783
18.26044825,0.219743042,-1.384620667,9.059610443,9.167442543
18.27038725,-0.3671864319,-1.326391754,8.797655182,8.904654831
18.28032625,-1.075214081,-1.159339142,8.146359558,8.298393014
18.29026625,-1.464404755,-1.017434235,7.423812103,7.63496168
18.30020525,-1.669029236,-1.062340851,7.08491684,7.355968549
18.31014425,-1.533560944,-1.039139099,6.513405304,6.771710854
18.32008425,-1.307530975,-0.7972421265,6.138734436,6.326870691
18.33002325,-1.146016846,-0.5038522339,5.833219757,5.966043448
18.33996225,-0.995280304,-0.2107617188,5.732928314,5.822496925
18.34990125,-0.9942324829,-0.03023712158,5.878276062,5.961840486
18.35984125,-0.8050259399,-0.1005908203,5.844147034,5.900189813
18.36978025,-1.073417816,-0.03068618774,6.019881592,6.114911433
18.37971925,-1.172661438,0.3623963928,6.29860199,6.417075114
18.38965825,-1.373843079,0.5081932068,6.596332855,6.757019482
18.39959825,-1.758094025,0.436791687,6.764433289,7.002802246
18.40953725,-1.813029785,0.5782475281,6.950646057,7.206450431
18.41947625,-1.977537689,0.7110214233,7.116800537,7.42058331
18.42941525,-2.032772827,0.8041278076,7.2088591,7.53302306
18.43935525,-2.127525787,0.8024812317,7.479346619,7.817350443
18.44929425,-2.427501984,0.8744815063,7.425009613,7.860550333
18.45923325,-2.599793701,0.8547225952,7.558981018,8.039133786
18.46917225,-2.846630402,0.7671546936,7.998916168,8.52493348
18.47911225,-3.123704224,0.6243516541,8.350235596,8.937213076
18.48905125,-3.26216629,0.6719526672,8.984317017,9.581816193
18.49899025,-3.506158905,0.6078858948,9.577383728,10.2170913
18.50892925,-3.603456573,0.6048921204,10.43614792,11.05730424
18.51886925,-3.639531555,0.7325765991,11.29581024,11.89025599
18.52880825,-3.853736115,0.2248324585,11.94051956,12.54901745
18.53874725,-3.99698822,-0.4370910645,12.50394791,13.13452232
18.54868625,-4.121529236,-1.312919769,12.24738144,12.98880725
18.55862625,-3.948489075,-1.946103058,11.86777084,12.6578777
18.56856525,-3.783981171,-1.782792664,11.42574005,12.16734971
18.57850425,-3.470832367,-1.019679565,11.2274025,11.79580394
18.58844425,-3.469185791,-0.340841217,11.31152756,11.83647238
18.59838325,-4.016148376,-0.2583627319,11.65641037,12.33158959
18.60832225,-5.001549225,-0.5421725464,12.34243378,13.32835764
18.61826125,-5.845643921,-1.017434235,13.09566742,14.37717742
18.62820125,-6.114933929,-1.535806274,13.55596024,14.95042393
18.63814025,-5.200784912,-2.185155945,13.91281815,15.01298035
18.64807925,-2.992576904,-2.524200897,13.88587418,14.42721762
18.65801825,-0.2754272461,-2.794089661,13.42677887,13.71718586
18.66795825,1.471739502,-3.189118195,12.43075012,12.91743166
18.67789725,4.30355072,-2.866089935,11.86941742,12.94674052
18.68783625,6.813082123,-2.598296814,11.74547516,13.82481179
18.69777525,7.415728912,-2.072290649,12.93280609,15.05140848
18.70771525,6.624474335,-1.18179245,14.25425812,15.76274621
18.71765425,5.172344055,-0.9241781616,14.34616699,15.27808089
18.72759325,2.928510132,-0.9009764099,14.37730225,14.70016156
18.73753162,0.9391470337,-1.093625793,14.35035828,14.42257942
18.74747163,0.3403921509,-1.379381561,14.4124791,14.482338
18.75741062,0.1414558411,-1.576820984,13.09566742,13.1910151
18.76734963,-0.05777984619,-1.769769745,11.69637726,11.82965191
18.77728863,-0.2179467773,-1.907782745,10.81905167,10.98813063
18.78722863,-0.1899549866,-2.383194122,9.950557709,10.23373323
18.79716763,0.1947450256,-2.321971436,9.299711151,9.587184387
18.80710662,0.02050735474,-2.258653107,9.028026123,9.306298409
18.81704563,-0.4972659302,-2.065105591,9.109606476,9.353975874
18.82698562,-0.9252259827,-2.003882904,8.507558441,8.789205905
18.83692463,-1.356928253,-2.039059753,8.080047455,8.4431147
18.84686362,-1.654359741,-1.948049011,7.403304749,7.832031812
18.85680363,-2.056573334,-1.929786987,6.901099091,7.455115046
18.86674262,-2.223925323,-1.666334839,6.742429047,7.292658301
18.87668162,-2.113604736,-1.39000946,6.220614166,6.715317706
18.88662063,-1.850152588,-1.030157776,5.880970459,6.250608225
18.89656062,-1.6708255,-0.8011340332,5.627248077,5.924474197
18.90649963,-1.491947479,-0.6373745728,5.535488892,5.768343861
18.91643862,-1.372346191,-0.5480104065,5.505102081,5.699982316
18.92637763,-1.353635101,-0.4960684204,5.64805481,5.829145306
18.93631762,-1.371148682,-0.4987628174,5.870641937,6.049235473
18.94625663,-1.536854095,-0.4812492371,6.050717468,6.261365923
18.95619563,-1.950893097,-0.622256012,6.338269501,6.660844292
18.96613462,-2.247576141,-0.712817688,6.748266907,7.148343431
18.97607463,-2.569706268,-0.9857002258,7.12353653,7.636738042
18.98601362,-2.533930664,-1.069525909,7.336094513,7.834728648
18.99595263,-2.580334167,-1.121467896,7.47799942,7.989761572
19.00589163,-2.761906586,-1.237626343,7.663314056,8.23931
19.01583163,-2.849025421,-1.347048798,7.803722076,8.416030214
19.02577063,-2.90650589,-1.523531799,7.914940796,8.56826782
19.03570962,-3.019820251,-1.713187408,8.106093292,8.818337367
19.04564863,-3.146756287,-1.817819824,8.366551666,9.121717537
19.05558862,-3.189118195,-1.972148895,8.864266663,9.624711403
19.06552763,-3.325484619,-2.161804504,9.516460419,10.30995953
19.07546663,-3.303031311,-2.285447388,10.15398468,10.91955542
19.08540663,-3.204386444,-2.231559448,10.70618637,11.39606847
19.09534563,-3.078947296,-2.028132477,11.25494522,11.84343826
19.10528462,-2.975662079,-1.576222229,11.84681442,12.3160892
19.11522363,-3.143163757,-1.266815643,12.06655746,12.53339975
19.12516362,-3.381019135,-1.193767548,11.68544998,12.22317932
19.13510263,-3.254681854,-1.587897949,11.30509094,11.87095005
19.14504163,-3.013233948,-2.029180298,11.0840007,11.66414262
19.15498062,-3.037483521,-2.324815521,11.39445511,12.0193461
19.16492063,-3.440744934,-2.440225525,12.10532684,12.81921855
19.17485962,-3.912264404,-2.552492065,13.18997131,13.99272567
19.18479863,-3.566483459,-2.551144867,14.11130539,14.77691051
19.19473763,-2.113305359,-2.313738556,14.83909195,15.16634747
19.20467763,-0.3112028503,-1.676962738,15.28516434,15.38002926
19.21461663,1.535357208,-0.783021698,14.91827728,15.01750451
19.22455562,3.89519989,-0.1700463867,13.37902817,13.93556216
19.23449463,6.321354675,-0.7797285461,11.7966687,13.40630053
19.24443462,5.983058167,-2.200424194,11.97015793,13.56184104
19.25437363,4.785847778,-2.906206512,12.71021896,13.88884593
19.26431262,2.248773651,-2.591261444,12.21444992,12.68717485
19.27425163,0.362845459,-1.873953094,12.28495331,12.43235436
19.28419162,-0.314046936,-1.228046265,11.85175415,11.9193456
19.29413062,-0.2499801636,-0.8187973022,11.01783829,11.0510488
19.30406963,-0.2686912537,-0.4986131287,10.39782761,10.41324296
19.31400962,-0.3486250305,-0.4046086121,10.5651796,10.5786704
19.32394863,-0.4105961609,-0.4781057739,10.58987823,10.60861421
19.33388762,-0.4819976807,-0.2865042114,10.51398605,10.52892726
19.34382663,-0.1218466187,-0.4605921936,10.23885818,10.24993701
19.35376662,0.001945953369,-0.6378236389,9.924362183,9.944837229
19.36370563,-0.1764830017,-0.6976991272,9.397607574,9.425123789
19.37364463,-0.2787203979,-0.7673043823,8.918304291,8.955590014
19.38358362,-0.8556207275,-0.56866745,8.494535522,8.556436363
19.39352363,-1.380429382,-0.2564167786,7.779322815,7.905010962
19.40346262,-1.69432663,-0.3396437073,6.779551849,6.99631502
19.41340163,-1.62053009,-0.4141886902,6.420897675,6.635178746
19.42334063,-1.257085876,-0.2728825378,6.149212646,6.282320109
19.43328063,-0.9419911194,-0.4010160828,6.07272171,6.158417827
19.44321963,-0.665665741,-0.2573149109,6.006858673,6.049105137
19.45315862,-0.4602928162,-0.1496887207,5.696404266,5.716930799
19.46309763,-0.5037025452,-0.173638916,5.811065826,5.835439381
19.47303762,-0.6210585022,0.060025177,6.103557587,6.135367299
19.48297663,-0.8887019348,0.1995350647,6.395450592,6.459984028
19.49291563,-1.090033264,0.2968327332,6.645580444,6.740921423
19.50285462,-1.586999817,0.008981323242,6.996450806,7.174187965
19.51279463,-1.784738617,0.05029541016,7.178771667,7.397471474
19.52273362,-2.069147186,0.1571731567,7.315587158,7.604202059
19.53267263,-2.254312134,0.2558180237,7.562872925,7.895847829
19.54261163,-2.318378906,0.2333647156,7.747439117,8.090250473
19.55255163,-2.553240509,0.3213816833,7.891140289,8.300145682
19.56249063,-2.700234833,0.4128414917,8.019124146,8.471603054
19.57242962,-2.861599274,0.5507048035,8.319250031,8.814870802
19.58236963,-3.124901733,0.5715115356,8.580606537,9.149778403
19.59230862,-3.340752869,0.6718029785,9.227860565,9.836938527
19.60224763,-3.544329529,0.6692582703,9.840835876,10.48104142
19.61218662,-3.699407043,0.720302124,10.54048096,11.19402459
19.62212663,-3.864214325,0.6661148071,11.21288269,11.8787457
19.63206563,-4.00402359,0.1941462708,11.69353317,12.36157821
19.64200462,-4.140689392,-0.6197113037,11.665242,12.39383806
19.65194363,-4.048181763,-1.625320129,11.72646469,12.51157125
19.66188362,-3.844305725,-2.034718781,11.64638123,12.43209406
19.67182263,-3.482807465,-1.712139587,11.350746,11.99586615
19.68176162,-3.112776947,-0.7445516968,11.37379807,11.81554146
19.69170063,-3.133583679,-0.09789642334,11.66958298,12.08338104
19.70164062,-3.740571442,-0.0288899231,12.42236755,12.97335442
19.71157963,-4.579576721,-0.1715432739,13.09776306,13.87635929
19.72151863,-5.027445374,-0.7586224365,13.72016876,14.63194265
19.73145762,-4.778962097,-1.387315063,14.14139282,14.99140129
19.74139804,-3.295546875,-1.882185974,14.31458267,14.80913672
19.75133704,-0.8280780029,-2.584974518,14.35380112,14.60819677
19.76127604,2.077080688,-3.385210419,13.10809158,13.69656814
19.77121504,5.005141754,-3.765569458,11.73574539,13.3025816
19.78115504,7.403304749,-3.990252228,12.09948898,14.73528648
19.79109404,6.811285858,-2.855162659,13.6095488,15.48435944
19.80103304,4.974156189,-1.453776855,13.6055072,14.55903579
19.81097204,2.374661865,-0.6496490479,12.96379166,13.19549002
19.82091204,0.7289840698,-0.3203338623,13.4317186,13.45529992
19.83085104,0.5490582275,-0.6423143005,13.39923615,13.42585423
19.84079004,0.612077179,-1.146465912,12.06326431,12.13306921
19.85073004,0.3186872864,-1.527872772,10.92967163,11.04054703
19.86066904,0.1463955688,-1.817969513,10.19260437,10.35449799
19.87060804,0.02185455322,-2.153421936,9.762848053,9.997544987
