Time (s),Acceleration x (m/s^2),Acceleration y (m/s^2),Acceleration z (m/s^2),Absolute acceleration (m/s^2)
24.84941762,21.64603683,11.29595993,1.981579285,24.49645439
24.85935662,19.13665512,10.54152878,0.5921685791,21.85603033
24.86929562,17.34113892,9.762398987,1.379381561,19.94798803
24.87923462,16.09722565,8.306676178,2.607278137,18.30080441
24.88917362,14.60273346,6.527476044,2.766696625,16.23275633
24.89911262,12.77383667,5.44208313,2.681224365,14.14129188
24.90905162,10.75827805,4.752317505,3.222798157,12.19473231
24.91899062,8.717871094,4.02857254,3.88352417,10.35917145
24.92892962,6.818919983,3.407064972,4.109703827,8.659990012
24.93886863,4.886887665,2.581381989,4.138444061,6.904485735
24.94880762,3.023861847,1.442849579,3.590583344,4.910992173
24.95874763,1.632505188,0.9166937256,3.043620758,3.573377659
24.96868662,0.5255570984,0.540226593,2.609224091,2.715898634
24.97862562,-0.4022135925,0.322130127,2.413730621,2.468124613
24.98856463,-1.496288452,0.08277786255,2.615810394,3.014663385
24.99850362,-2.162852325,-0.3586541748,2.752925262,3.519255674
25.00844262,-2.506537628,-0.8529263306,2.748883667,3.816618349
25.01838162,-2.568808136,-0.89394104,3.101999359,4.125567336
25.02832062,-2.041454773,-0.6469546509,2.999312897,3.685371862
25.03825962,-1.371148682,-0.4294569397,2.58003479,2.953144339
25.04819862,-0.9279203796,-0.2254312134,2.281106415,2.472913654
25.05813762,-0.7970924377,-0.06975494385,2.033820648,2.185554514
25.06807663,-0.4237687683,0.1285826111,2.238594818,2.28197726
25.07801562,-0.2306703186,0.2389031982,2.28874054,2.312707675
25.08795563,-0.2671943665,0.3044668579,2.334545288,2.369429172
25.09789462,-0.3234773254,0.2941383362,2.136207733,2.180490408
25.10783362,-0.2341131592,0.4314028931,1.82186142,1.886821788
25.11777263,-0.05897735596,0.5523513794,1.221909027,1.342248876
25.12771162,0.1920506287,0.4179309082,0.7605683899,0.8888272969
25.13765062,0.2817141724,0.2845582581,0.6635700989,0.7750235824
25.14758963,-0.02993774414,0.04565505981,0.8759783936,0.8776780725
25.15752862,0.07005432129,-0.1944456482,0.9633966064,0.9853170755
25.16746762,0.3802093506,-0.1911524963,1.199605408,1.272851744
25.17740662,0.6315367126,-0.08158035278,1.244062958,1.39756453
25.18734562,0.9247769165,-0.22348526,1.237326965,1.560812617
25.19728462,1.279539185,-0.1778302002,1.298250275,1.831474237
25.20722362,1.465751953,0.007783813477,1.388811951,2.019229559
25.21716262,2.131567383,0.1471440125,1.541793823,2.63483568
25.22710262,4.017794952,0.6280938721,1.518592072,4.340887014
25.23704162,6.260131989,1.141825562,1.587299194,6.558394381
25.24698063,9.314380646,1.773362274,2.591860199,9.829559495
25.25691962,14.32895279,2.878813477,2.862198029,14.89290545
25.26685862,22.84534286,4.991370392,3.713178406,23.67722878
25.27679763,34.07558945,9.886940002,8.208480377,36.4180797
25.28673662,37.70494217,15.73602676,13.16033295,42.92411403
25.29667562,30.58829132,16.83339478,13.07755508,37.28309527
25.30661388,22.4573497,8.371042328,2.218237152,24.0692227
25.31655287,24.4360849,10.86066513,-10.03632935,28.56228631
25.32649187,38.03710144,19.53467743,-4.832850037,43.03232678
25.33643088,37.05469437,17.47376312,2.715054016,41.05793822
25.34636987,28.19027802,12.94927185,-0.6219566345,31.02841031
25.35630887,25.98416565,11.80475189,4.20999527,28.84879706
25.36624887,23.27944016,10.68777466,1.877695312,25.68436491
25.37618787,20.78113541,9.512119446,-0.0419128418,22.85470984
25.38612688,18.71767639,8.381819916,0.6042933655,20.51758965
25.39606587,16.37579636,7.063361664,1.733994141,17.91827335
25.40600487,13.6373909,6.16522934,2.026186523,15.10277839
25.41594387,10.63538361,5.383854218,2.564167786,12.19312212
25.42588287,8.633446655,4.34336792,3.978127441,10.45115993
25.43582187,7.124434662,3.303031311,5.023852844,9.322375368
25.44576087,5.568121033,2.015109558,5.376968536,7.998526677
25.45569987,3.218307495,0.6230044556,4.961282959,5.946424664
25.46563888,1.586999817,-0.3505709839,3.542383575,3.897428618
25.47557787,0.05987548828,-0.3951782227,2.599045258,2.629598287
25.48551687,-0.62599823,-0.2643502808,1.999541931,2.111852928
25.49545588,-1.540446625,-1.015787659,2.989134064,3.512794162
25.50539587,-2.62329483,-2.10267746,4.11868515,5.316624458
25.51533488,-2.865790558,-2.470462646,4.291725311,5.721437525
25.52527387,-1.869911499,-1.795366516,3.474275208,4.334800821
25.53521287,-0.6526428223,-0.7640112305,3.356470184,3.503647801
25.54515187,0.1332229614,-0.4296066284,3.007545776,3.040993556
25.55509087,0.1234931946,-0.04430786133,3.167263641,3.169979926
25.56502987,0.07394622803,0.3827540588,2.92282196,2.948704279
25.57496887,-0.1701960754,0.7571255493,2.575993195,2.690343238
25.58490787,-0.6810836792,0.9256750488,2.048490143,2.348842511
25.59484687,-0.7259902954,0.8114625549,1.112935638,1.556971137
25.60478587,-0.6691085815,0.6033952332,0.6586303711,1.116058272
25.61472487,-0.3721261597,0.800684967,0.8686436462,1.238594397
25.62466388,-0.4022135925,0.7646099854,0.9740245056,1.301970791
25.63460387,-0.1206491089,0.4361929321,0.7734416199,0.8961207624
25.64454288,0.1092727661,0.226179657,0.6060896301,0.6560811035
25.65448187,0.2100132751,0.1435514832,0.4939727783,0.5556273119
25.66442087,0.01466949463,0.001347198486,0.7237449646,0.72389487
25.67435988,0.03607498169,-0.2251318359,0.7750881958,0.8079278799
25.68429887,0.2812651062,-0.3480262756,0.6843768311,0.817682087
25.69423787,0.2291734314,-0.4938230896,0.9285191345,1.076350077
25.70417687,0.4017645264,-0.3600013733,0.9178912354,1.064678376
25.71411587,0.6294410706,-0.3857478333,0.9589059448,1.210164478
25.72405487,1.221459961,-0.6396199036,1.276395721,1.878899703
25.73399387,2.248324585,-0.4079017639,1.517693939,2.743126352
25.74393287,3.904779968,-0.3558100891,1.661844177,4.258595248
25.75387188,5.986051941,-0.3969744873,2.252066803,6.407980296
25.76381087,8.846154327,0.1001417542,3.082240448,9.368280575
25.77374987,14.2969194,2.088307343,3.330723724,14.82756394
25.78368987,20.0247583,4.177961884,4.654121704,20.97873112
25.79362887,27.15637802,6.854695587,5.864205322,28.61546126
25.80356788,34.26584381,11.94994995,6.312073975,36.83465262
25.81350687,36.44561096,17.26135483,8.606203308,41.23473856
25.82344587,32.7517424,20.3127594,6.264472961,39.04521029
25.83338488,24.15841232,14.88998611,11.28158981,30.53874328
25.84332387,30.10599426,15.73452988,6.744674377,34.63288832
25.85326287,42.10728745,20.51783295,-4.5586203,47.06151447
25.86320187,30.95038834,13.53739883,-5.716761932,34.26177276
25.87314087,23.32344864,9.695637817,1.994452515,25.33705764
25.88307987,24.0777301,10.2878064,3.727698212,26.44752883
25.89301887,21.39949951,9.730066223,1.905238037,23.58479807
25.90295787,17.71057068,7.99517395,0.8578660583,19.45052838
25.91289787,14.7733786,7.333549805,1.393152924,16.55217639
25.92283687,11.99964661,6.20848938,3.004252625,13.84060667
25.93277588,9.096134491,5.058730316,4.32226181,11.26997614
25.94271487,7.177723846,4.08710083,4.017345886,9.184943156
25.95265387,5.710475006,3.409310303,4.278702393,7.908237206
25.96259288,4.543052673,2.544558563,4.865482178,7.126501435
25.97253187,3.35931427,1.859133911,5.027595062,6.325984775
25.98247087,2.396666107,1.046473846,3.755390625,4.576251161
25.99240987,1.395248566,-0.02080673218,1.889820099,2.349163997
26.00234887,0.2320175171,-0.9633966064,0.867146759,1.316779652
26.01228787,-0.5459147644,-1.425335999,0.6809339905,1.671309887
26.02222687,-1.601519623,-1.815125427,1.188678131,2.696757519
26.03216587,-2.410587158,-2.01600769,2.803370361,4.211187818
26.04210487,-2.338586884,-2.230062561,4.13739624,5.249782404
26.05204387,-1.776954803,-2.1857547,5.053191833,5.78531241
26.06198387,-1.124012604,-1.651066589,4.378694458,4.812732111
26.07192287,-0.868793335,-1.023122406,3.335064697,3.595029604
26.08186187,-0.7496411133,-0.3763174438,2.407892761,2.549808653
26.09180088,-0.3673361206,0.04864883423,1.869163055,1.905537473
26.10173987,-0.4342469788,0.4975653076,1.606159973,1.736632239
26.11167887,-0.0296383667,0.7973918152,1.554816742,1.74761759
26.12161788,0.2945874023,0.9428892517,1.185534668,1.543150779
26.13155687,0.3255729675,0.8807684326,0.7689509583,1.213687095
26.14149587,0.2850073242,0.610430603,0.1877096558,0.6993494197
26.15143487,0.2507286072,0.4411326599,-0.01437011719,0.5076114246
26.16137387,0.1236428833,0.512384491,0.2520758057,0.584266755
26.17131287,-0.07768844604,0.7345225525,0.6462062073,0.9813976447
26.18125187,-0.2451901245,0.5487588501,0.8062234497,1.005609628
26.19119187,-0.2176473999,0.5463638306,0.8662486267,1.047029374
26.20113087,-0.3888912964,0.4547543335,0.8637039185,1.050724704
26.21106987,0.01347198486,0.3348536682,0.5731581116,0.6639417854
26.22100887,0.4882846069,0.4180805969,0.4031117249,0.7587570794
26.23094787,1.360071716,0.5995033264,0.5516029358,1.585391154
26.24088687,2.296524353,0.6604266357,0.7144642639,2.494122417
26.25082588,3.709585876,0.7976911926,0.8399034119,3.886229066
26.26076487,6.594386902,1.125060425,1.241967316,6.803982832
26.27070387,11.51345764,1.829495544,2.052831116,11.83726642
26.28064288,16.88264236,2.748883667,4.54694458,17.69900222
26.29058187,24.18041656,4.223167877,5.455704803,25.14542517
26.30052087,34.3150914,7.450756073,6.794371033,35.76594388
26.31045975,39.01082657,11.77780792,13.39130264,42.89391956
26.32039875,34.84783356,12.80347504,10.57999878,38.60358598
26.33033775,27.58508652,14.07193726,6.962471466,31.74007601
26.34027775,23.73883484,13.72570724,10.06417145,29.20984193
26.35021675,35.81766678,17.98644699,4.450545044,40.32647865
26.36015575,34.70158768,16.61065796,-9.633217621,39.65996756
26.37009475,24.6311293,11.31107849,-2.395318909,27.20975156
26.38003375,24.30046692,9.394913177,7.185058594,27.02595332
26.38997275,22.07175156,9.454189911,4.097429352,24.35842464
26.39991175,18.87559799,7.052883453,2.096989288,20.25904066
26.40985075,14.77936615,6.271358643,1.454525299,16.1206466
26.41978975,12.5278981,6.0224263,2.041604462,14.04941273
26.42972875,10.4550087,5.150788879,2.650837555,11.95260527
26.43966775,7.24044342,3.987557831,2.757266235,8.713618965
26.44960675,5.328020325,3.227588196,2.782264252,6.82247173
26.45954575,4.03680542,2.981649628,2.806064758,5.749785381
26.46948475,2.241438904,2.698887634,3.603007507,5.028887145
26.47942475,1.367705841,2.106569366,4.759801941,5.381818306
26.48936375,0.5533992004,1.222058716,5.517975311,5.678708455
26.49930275,0.5840853882,-0.05882766724,5.138664093,5.172087112
26.50924175,0.5249583435,-1.403631134,3.983366547,4.255933584
26.51918075,0.05194198608,-2.430944824,2.72747818,3.653946898
26.52911975,-0.4234693909,-2.964136047,1.440604248,3.322765329
26.53905875,-1.703307953,-3.491339722,1.386267242,4.124614879
26.54899775,-3.128194885,-4.353397064,2.582878876,5.950540524
26.55893675,-3.623365173,-4.324507141,3.715573425,6.755414352
26.56887575,-2.145039368,-2.253114624,4.230053558,5.250816366
26.57881475,0.6893165588,-0.3186872864,2.847229156,2.946766495
26.58875375,-0.4465214539,-0.1422042847,1.187929688,1.277020129
26.59869275,-0.1148112488,0.1481918335,0.909508667,0.9286271898
26.60863175,0.1122665405,0.679586792,1.246907043,1.424506637
26.61857175,0.1213975525,1.034049683,1.050066376,1.478727664
26.62851075,0.3073109436,1.241069183,0.5876779175,1.407145362
26.63844975,0.3905378723,1.211131439,0.1847158813,1.285876802
26.64838875,0.2186952209,1.082997894,0.003592529297,1.10486422
26.65832775,0.2857557678,0.9184899902,-0.3116519165,1.011141502
26.66826675,0.2134561157,0.4887336731,-0.1487905884,0.5536810957
26.67820575,0.09535171509,-0.03233276367,0.2496807861,0.2692171097
26.68814475,0.07095245361,-0.1489402771,0.3643423462,0.3999534999
26.69808375,0.270637207,-0.2924917603,0.4105961609,0.5721757903
26.70802275,0.4857398987,-0.3047662354,0.767454071,0.9580247693
26.71796175,1.326391754,-0.4604425049,1.477727051,2.038381618
26.72790075,3.963907013,-0.9062155151,2.624342651,4.839520608
26.73783975,6.661447449,-0.9632469177,3.414699097,7.547376806
26.74777875,9.473649445,0.1269360352,3.491040344,10.09720304
26.75771775,13.47333206,1.632804565,4.054618378,14.16462699
26.76765775,18.76153519,3.339854736,4.283043365,19.53187888
26.77759675,26.73844711,5.86794754,5.828579407,27.9883851
26.78753575,33.66634048,10.1378183,10.1577269,36.59750343
26.79747475,32.04820541,14.5876149,11.27036316,36.97170627
26.80741375,28.32649475,17.6598262,7.037914581,34.11439591
26.81735275,23.35278763,15.93107117,5.412744141,28.78279899
26.82729175,26.98258942,13.93542114,-1.85464325,30.42524931
26.83723075,33.52233994,18.85389313,-4.259392548,38.69572309
26.84716975,27.44437912,14.62892899,-2.443069611,31.19564229
26.85710875,22.83396652,9.222771149,2.297123108,24.73310149
26.86704775,23.10819626,9.218280487,1.056353302,24.90143192
26.87698675,21.09233826,8.302035828,1.019080811,22.69028554
26.88692575,18.80180145,6.470444641,1.985920258,19.98294951
26.89686575,16.2849353,5.662873993,2.196083221,17.38073765
26.90680475,13.92105103,4.518653412,2.731220398,14.88870227
26.91674375,11.80145874,3.425027618,3.782484283,12.85738815
26.92668275,8.954528961,3.257825317,4.895569611,10.71277819
26.93662175,6.569089508,3.320395203,5.484744415,9.179345432
26.94656075,4.797822876,2.948418732,5.721102905,8.027658178
26.95649975,3.076402588,2.046843567,5.809568939,6.885122565
26.96643875,1.707948303,0.8509803772,4.907544708,5.265477193
26.97637775,1.292113037,0.1228944397,3.51499054,3.746974464
26.98631675,0.526305542,-0.6349795532,3.375031586,3.474339471
26.99625575,-0.2097138977,-1.050515442,3.356021118,3.522845492
27.00619475,-1.212628326,-1.365909576,3.112327881,3.608706315
27.01613375,-2.133962402,-2.027234344,2.52390152,3.877312665
27.02607275,-2.948867798,-2.081721039,2.345771942,4.304884409
27.03601175,-2.807262268,-1.33627121,2.574346619,4.0365335
27.04595175,-1.580712891,0.3453318787,2.788850555,3.224220025
27.05589075,-0.09205856323,0.9345066833,2.424957275,2.60042214
27.06582975,-0.02200424194,0.6171665955,1.973795471,2.068150709
27.07576875,-0.1083746338,0.7723937988,1.684297485,1.856123719
27.08570775,-0.352666626,0.9098080444,1.447639618,1.74579062
27.09564675,-0.2619552612,0.8840615845,0.886456604,1.279058542
27.10558575,-0.1592687988,0.7312294006,0.6319857788,0.9795248906
27.11552475,0.02679428101,0.3852987671,0.6706054688,0.7738764553
27.12546375,0.05029541016,0.2737806702,0.7261399841,0.7776662267
27.13540275,-0.1706451416,0.1068777466,0.8252339172,0.8494431324
27.14534175,-0.02589614868,0.01422042847,0.6664141846,0.6670687345
27.15528075,0.2538720703,0.05448669434,0.5267546082,0.5872735693
27.16521975,0.482895813,0.03817062378,0.3713777161,0.610382479
27.17515875,0.7125183105,-0.06975494385,0.3161425781,0.7826201025
27.18509775,0.8484356689,-0.276026001,0.3649411011,0.9639582174
27.19503775,1.241069183,-0.5060975647,0.7608677673,1.541203174
27.20497675,1.782642975,-0.5104385376,1.620230713,2.462419753
27.21491575,2.806064758,-0.5447172546,2.587968292,3.855942971
27.22485475,4.965623932,-0.4878355408,2.94512558,5.793890681
27.23479375,8.375383301,-0.3670367432,3.511847076,9.089270119
27.24473275,12.89792862,0.1327738953,5.225932617,13.91706015
27.25467175,18.3114212,1.307980042,5.755980377,19.23928971
27.26461075,23.62507141,3.433410187,6.122268677,24.64578013
27.27454975,26.29252441,7.740703125,7.835755463,28.50639207
27.28448875,28.65745651,13.46195572,8.627159729,32.81618428
27.29442775,27.84644302,16.89820999,7.345524902,33.39057691
27.30436675,23.09352676,14.31323547,-0.1193019104,27.16972435
27.3143065,24.26828384,14.79134125,-4.755311279,28.81573116
27.3242455,32.29953278,19.00986877,-2.275268555,37.54746031
27.3341845,34.33964035,17.43738876,1.323996735,38.53604019
27.3441245,27.86680069,10.89299789,1.086291046,29.93987328
27.3540635,24.90505966,9.175918579,2.656376038,26.67425373
27.3640025,22.71017395,8.822952576,1.12910202,24.38998492
27.3739415,20.03104523,6.624474335,0.3041674805,21.10021211
27.3838805,17.4156839,6.844217377,1.163680115,18.74842683
27.3938195,15.43305679,6.986421661,2.878514099,17.18357277
27.4037585,13.19730606,6.42029892,3.14406189,15.0091389
27.4136975,11.27964386,5.749094696,3.039429474,13.02000718
27.4236365,9.556726685,4.736600189,3.619173889,11.26342869
27.4335755,8.194259949,3.498674469,4.387526093,9.931616402
27.4435145,6.63435379,1.817071381,4.641847229,8.29838203
27.4534535,4.949607239,-0.144150238,4.56805069,6.736948732
27.4633925,3.45526474,-1.517095184,4.175566864,5.628124986
27.4733315,2.713557129,-1.990111542,3.550616455,4.891913067
27.4832715,1.891915741,-2.755320282,3.5208284,4.854623327
27.4932105,0.2083666992,-3.431015167,4.790787506,5.896348589
27.5031495,-0.9972262573,-3.538641357,5.037923584,6.236755318
27.5130885,-1.717378693,-3.173700256,4.149371338,5.499004036
27.5230275,-2.720143433,-2.308798828,3.723656616,5.157068054
27.5329665,-1.812880096,-0.819994812,3.726650391,4.224553097
27.5429055,-0.8626560974,0.1474433899,3.631148987,3.735124906
27.5528445,-0.4981640625,0.6506968689,2.867137756,2.98195452
27.5627835,0.08187973022,0.9780661011,2.258054352,2.462138713
27.5727225,0.6605763245,0.7872129822,1.340761871,1.689292087
27.5826615,0.5463638306,0.606688385,0.6146218872,1.021931649
27.5926005,0.2752775574,0.2812651062,0.3080593872,0.4997883348
27.6025395,-0.2284249878,-0.157023468,-0.05119354248,0.2818778518
27.6124785,-0.3528163147,-0.4614903259,-0.4397854614,0.7286040934
27.6224175,-0.7493417358,-0.3402424622,-0.3511697388,0.8947615076
27.6323575,-1.112187195,-0.2345622253,-0.1564247131,1.14736589
27.6422965,-1.120869141,-0.1824705505,-0.1627116394,1.147221953
27.6522355,-0.6622229004,-0.1149609375,-0.3841012573,0.7741375607
27.6621745,-0.1345701599,-0.06271957397,-0.3085084534,0.3423745591
27.6721135,-0.01332229614,-0.04490661621,-0.1419049072,0.1494359075
27.6820525,0.1046324158,-0.05987548828,-0.03772155762,0.126316794
27.6919915,0.1917512512,-0.02978805542,-0.0,0.1940512061
27.7019305,0.3553610229,-0.01856140137,0.2179467773,0.4172850105
27.7118695,1.420995026,0.002245330811,1.33043335,1.946608538
27.7218085,4.535568237,0.0773890686,3.744014282,5.881752396
27.7317475,8.507259064,0.2227368164,4.864284668,9.802261667
27.7416865,10.35396881,0.8945397949,4.481231232,11.31752203
27.7516255,15.09296402,3.567830658,4.803660736,16.23582874
27.7615645,22.53818161,6.577472076,7.406747589,24.61894959
27.7715035,25.88312576,6.241720276,9.489666138,28.26568652
27.7814435,26.53187668,6.571334839,7.455546112,28.33210351
27.7913825,25.73418549,8.25608139,6.965016174,27.90918546
27.8013215,23.30788101,10.37597305,5.670508118,26.13566139
27.8112605,20.68533463,13.91281815,1.058598633,24.95135684
27.8211995,28.20360031,16.77636337,7.057823181,33.56638656
27.8311385,36.07977173,14.36832092,11.97659454,40.64034192
27.8410775,27.78507065,8.083340607,16.82052155,33.47059144
27.8510165,16.96586929,5.314997406,-1.619332581,17.8525112
27.8609555,14.93474304,7.010820923,-4.832999725,17.19174354
27.8708945,23.65006943,11.4742392,8.272996216,27.55769249
27.8808335,21.80231186,10.55679703,0.2320175171,24.22479304
27.8907725,19.20266785,9.197324066,1.276695099,21.32986575
27.9007115,17.63812134,7.990832977,2.149829407,19.48277451
27.9106505,16.13779129,6.274202728,2.321821747,17.46953874
27.9205905,14.56605972,5.784271545,2.065554657,15.80804887
27.9305295,12.92532166,5.104235687,1.432820435,13.97033057
27.9404685,11.76703033,4.045786743,2.122136993,12.62279124
27.9504075,11.20105728,3.481160889,2.386636963,11.96988727
27.9603465,9.41916275,2.583926697,2.267784119,10.02697107
27.9702855,7.210805054,0.04819976807,3.281027069,7.922321085
27.9802245,5.467530212,-2.841990051,4.378844147,7.559435835
27.9901635,4.254003754,-4.150419159,3.96660141,7.145379897
28.0001025,3.100801849,-4.55278244,3.355572052,6.450012702
28.0100415,1.632954254,-4.149521027,2.579136658,5.151408569
28.0199805,-0.0245489502,-3.592080231,1.578018494,3.923491481
28.0299195,-1.428928528,-2.788401489,0.1010398865,3.13484109
28.0398585,-2.345023499,-1.934876404,-1.110540619,3.236693123
28.0497975,-3.069965973,-2.077529755,0.1498384094,3.709888476
28.0597365,-3.121009827,-1.349743195,3.163521423,4.644391976
28.0696755,-1.926793213,0.7448510742,4.408033447,4.868068825
28.0796155,-1.69657196,2.133962402,5.553900604,6.186918771
28.0895545,-1.181044006,1.406175842,4.04144577,4.439085419
28.0994935,-1.661245422,0.2773731995,1.900447998,2.539365046
28.1094325,-1.229842529,0.4234693909,1.499282227,1.984864269
28.1193715,-0.4526586914,0.4644841003,1.933080139,2.038981166
28.1293105,-0.2727328491,0.1618135071,1.555116119,1.587120967
28.1392495,-0.1371148682,-0.4399351501,0.8369096375,0.9553853488
28.1491885,0.2597099304,-0.6956034851,0.5285508728,0.9114161956
28.1591275,0.3234773254,-0.852177887,0.7328759766,1.169594771
28.1690665,0.4626878357,-1.02267334,0.8548722839,1.410938487
28.1790055,0.3203338623,-1.059945831,0.8910969543,1.42132077
28.1889445,0.2302212524,-0.8065228271,0.7875123596,1.150502765
28.1988835,0.1863624573,-0.5084925842,0.7089257812,0.8921162688
28.2088225,-0.04311035156,-0.3576063538,0.6517446899,0.7446555899
28.2187615,-0.1372645569,-0.3285667419,0.6559359741,0.7463575984
28.2287005,-0.007933502197,-0.2583627319,0.5797444153,0.6347580868
28.2386405,0.9991722107,-0.04146377563,0.3171903992,1.049130164
28.2485795,3.119812317,0.1384620667,0.3652404785,3.144169404
28.2585185,7.155869293,0.6390211487,0.8461903381,7.234006598
28.2684575,12.58507919,1.766476593,2.856958923,13.02562368
28.2783965,18.12865128,3.526815948,7.107968903,19.78912958
28.2883355,23.27569794,6.18858078,9.763596497,25.98816006
28.2982745,27.76770676,9.876461792,9.229058075,30.88309487
28.30821325,29.07523773,13.40282867,8.038284302,33.0093817
28.31815225,27.52880356,15.08802429,7.374714203,32.247014
28.32809125,22.99712723,14.72383163,8.27598999,28.53333295
28.33803025,24.05033707,17.60324387,9.724378052,31.35054124
28.34796925,37.88561646,18.44898514,17.73182648,45.71764055
28.35790825,41.64175552,17.17079315,9.87316864,46.11237794
28.36784725,29.14080139,14.05651932,-7.159162445,33.13647006
28.37778625,18.22879303,7.680827637,-3.062780914,20.01660899
28.38772625,23.52492966,10.49542465,5.435796204,26.32725079
28.39766525,22.50959106,11.84786224,1.734592896,25.49632017
28.40760425,18.0632373,10.13946487,1.891466675,20.80064749
28.41754325,14.97575775,7.823630676,2.441123657,17.07166078
28.42748225,12.5186174,6.1511586,3.316802673,14.33714455
28.43742125,9.937235413,4.602479095,4.553081818,11.86010183
28.44736025,8.347092133,3.466641083,5.082979889,10.36958206
28.45729925,7.336094513,2.666105804,5.348377991,9.462111286
28.46723825,5.427114258,2.011517029,4.783901825,7.509027007
28.47717725,3.80628479,1.445394287,4.363875275,5.968280821
28.48711625,1.997745667,0.8054750061,4.132905579,4.660545704
28.49705525,0.9587562561,0.422870636,2.691403198,2.888197415
28.50699425,0.3984713745,-0.1242416382,1.527423706,1.583426221
28.51693325,-0.1905537415,-0.5957611084,0.8126600647,1.025503977
28.52687225,-0.710123291,-0.9586065674,0.4355941772,1.270017294
28.53681225,-1.412911835,-1.531315613,0.3511697388,2.112952329
28.54675125,-2.030976563,-2.25356369,0.8726852417,3.156737974
28.55669025,-2.315534821,-2.904410248,2.261646881,4.348832833
28.56662925,-2.663261719,-2.869383087,3.916755066,5.53780575
28.57656825,-2.41971817,-2.295326843,4.99047226,6.002364094
28.58650725,-0.6831793213,-0.6497987366,5.479056244,5.559588987
28.59644625,-0.5189707947,-0.2317181396,2.834206238,2.890631243
28.60638525,-1.010847931,-0.3920347595,1.223256226,1.634582695
28.61632425,-0.3469784546,-0.1378633118,1.10919342,1.170346267
28.62626325,-0.5388793945,0.1871109009,0.7596702576,0.950000206
28.63620225,0.1697470093,0.06735992432,0.2323168945,0.295503885
28.64614125,0.5105882263,-0.2010319519,0.06810836792,0.5529493036
28.65608025,0.5691165161,-0.2201921082,-0.2077679443,0.6446283364
28.66601925,0.5297483826,-0.1960922241,-0.3041674805,0.6415632201
28.67595825,0.3288661194,-0.03682342529,-0.3490740967,0.4810006384
28.68589825,0.169896698,0.03607498169,-0.2891986084,0.337345709
28.69583725,0.03083587646,0.04999603271,-0.1552272034,0.1659696937
28.70577625,-0.0520916748,0.06316864014,0.03921844482,0.09078494421
28.71571525,-0.0426612854,0.03293151855,0.2633024597,0.2687613355
28.72565425,0.06271957397,0.01332229614,0.5013075256,0.5053913966
28.73559325,0.14040802,-0.007035369873,0.5755531311,0.5924738941
28.74553225,0.2841091919,-0.01437011719,0.5385800171,0.6090919208
28.75547125,0.9830058289,0.2134561157,0.6447093201,1.194786207
28.76541025,5.728437653,0.8761280823,0.9172924805,5.867198978
28.77534925,13.82599869,2.005679169,2.171534271,14.13847763
28.78528825,16.70346497,4.576433258,5.539979553,18.18353257
28.79522725,20.31710037,7.002588043,9.200617218,23.37674409
28.80516625,27.40800476,8.75454483,7.677085419,29.77882504
28.81510525,31.23344971,10.95062805,8.738677826,34.23169767
28.82504425,32.63214111,13.04267761,13.5192865,37.65287745
28.83498425,29.52116043,11.79562088,15.29609161,35.27897396
28.84492325,30.54892319,12.20531891,12.0209024,35.02440024
28.85486225,37.49418045,13.34654572,12.24333984,41.63944309
28.86480125,39.66421783,13.6758609,-11.511362,43.50621568
28.87474025,28.07292206,16.00995712,-7.473957825,33.17028377
28.88467925,22.07729004,13.0016629,5.521717529,26.20952762
28.89461825,23.92534698,12.76335846,5.983656921,27.76922213
28.90455725,21.27465912,10.94718521,3.702700195,24.21078217
28.91449625,15.96894241,8.876690826,1.547332306,18.33567558
28.92443525,12.95316376,7.232659607,2.80352005,15.09819661
28.93437425,11.12950607,5.992638245,3.976031799,13.25090365
28.94431325,8.27838501,4.84886673,4.14907196,10.45265349
28.95425225,6.112838287,4.380490723,3.441194,8.270266443
28.96419125,4.023483124,3.732937317,3.574267273,6.549704115
28.97413025,2.705324249,2.403851166,4.430037689,5.720359573
28.98406925,1.717528381,1.505718842,4.988226929,5.486301201
28.99400925,0.6357279968,0.9605525208,5.226681061,5.352102964
29.00394825,0.1067280579,0.4044589233,4.362228699,4.382238825
29.01388725,0.2013313293,-0.3646417236,2.620899811,2.653792326
29.02382625,0.06496490479,-1.116977234,1.370849304,1.769487608
29.03376525,-0.1869612122,-1.71184021,0.7032376099,1.860079174
29.04370425,-0.3918850708,-2.40564743,0.6827302551,2.531172469
29.05364325,-0.7845185852,-2.981200562,0.60025177,3.140593636
29.06358225,-1.246607666,-2.995570679,0.7810757446,3.337297362
29.07352125,-1.607507172,-2.976410522,1.170266418,3.579472363
29.08346025,-1.81482605,-2.498454437,1.4438974,3.408915937
29.09339925,-1.504072266,-1.289568329,1.708547058,2.616171421
29.10333825,0.03592529297,-0.3034190369,2.061513062,2.084032111
29.11327725,0.1654060364,0.2079176331,1.631607056,1.653097239
29.12321625,-0.3820056152,0.5580395508,1.314865723,1.478583207
29.13315525,-0.3861968994,1.045575714,1.135089569,1.590850385
29.14309525,-0.3525169373,1.357077942,1.142274628,1.808513217
29.15303425,-0.1315763855,1.364861755,1.285077667,1.879251066
29.16297325,0.3330574036,0.6655160522,1.290466461,1.489678669
29.17291225,0.2318678284,-0.1968406677,1.177750854,1.216390568
29.18285125,-0.1992356873,-0.1868115234,1.200204163,1.230887256
29.19279025,-0.09939331055,-0.1959425354,1.043180695,1.066066822
29.20272925,0.05284011841,-0.02200424194,0.5489085388,0.5518848148
29.21266825,0.09131011963,0.129181366,0.2386038208,0.2862815861
29.22260725,0.4784051514,0.2049238586,-0.01317260742,0.5206138629
29.23254625,1.218466187,0.2016307068,0.0470022583,1.23593042
29.24248525,1.807341614,0.2230361938,0.4031117249,1.865134825
29.25242425,2.438578949,0.5063969421,0.818946991,2.621789337
29.26236325,4.666396179,0.8318202209,1.400337982,4.942481628
29.27230225,8.118517456,1.146016846,3.384461975,8.87007684
29.28224125,11.96985855,2.179767151,5.214705963,13.23714685
29.29218025,16.22086853,3.257226562,4.349505157,17.10684938
29.30211925,20.62680634,4.68855011,5.052892456,21.74808874
29.31205937,27.353069,7.921078033,9.871821442,30.13945453
29.32199838,33.14617218,12.26399689,18.94026352,40.09748037
29.33193737,31.60737213,12.90301804,15.38844955,37.44753967
29.34187637,23.94390839,10.5690715,-3.289409637,26.37870802
29.35181538,20.21710831,12.77263916,-12.83835251,27.1421273
29.36175437,30.22185333,21.56924652,-2.896626434,37.24222414
29.37169337,34.71685593,19.92985565,4.776716766,40.31471511
29.38163237,27.30471954,13.55850494,-0.2125579834,30.48648793
29.39157137,24.6378653,11.95848221,4.760400696,27.79732213
29.40151037,23.52852219,8.062084808,5.562432861,25.48586328
29.41144937,20.03149429,6.970854034,3.803889771,21.54815878
29.42138837,17.32033218,7.400011597,3.191812592,19.10344854
29.43132738,15.80787735,7.373367004,3.374133453,17.76626871
29.44126637,13.15150131,7.117099915,4.256548462,15.54777485
29.45120537,10.74136322,6.863976288,4.483027496,13.51253455
29.46114537,9.211245117,6.352639618,4.35743866,12.00792815
29.47108437,8.256680145,4.99631012,4.724176025,10.74493932
29.48102338,7.049290924,3.29494812,4.692292328,9.086627149
29.49096237,4.981490936,1.920805664,4.181554413,6.781603325
29.50090137,3.183430023,0.5101391602,4.108656006,5.222597328
29.51084037,1.853745117,-0.4128414917,4.196523285,4.606258431
29.52077937,1.150507507,-1.219813385,4.06838974,4.400387176
29.53071837,0.4692741394,-1.899250488,3.844754791,4.313874134
29.54065737,-0.8515791321,-2.489772491,3.960164795,4.754688137
29.55059637,-1.708996124,-2.621199188,3.579057312,4.754051344
29.56053537,-1.871558075,-2.366428986,3.202440491,4.399811458
29.57047437,-1.39120697,-1.784738617,2.81519577,3.611935214
29.58041337,-1.029858398,-1.252445526,2.95096344,3.367107563
29.59035238,-0.7705975342,-1.036145325,2.483784943,2.799393744
29.60029137,-0.2191442871,-0.6036946106,2.059267731,2.157094107
29.61023037,-0.3944297791,-0.4475692749,1.774709473,1.872294533
29.62017037,-0.3405418396,-0.2089654541,1.121467896,1.190514824
29.63010937,-0.4445755005,-0.03098556519,0.4686753845,0.6467334048
29.64004838,-0.5593867493,0.08981323242,0.3297642517,0.6555336862
29.64998737,-0.483943634,0.1143621826,0.38963974,0.6317430464
29.65992637,-0.5050497437,0.01362167358,0.3153941345,0.5955957133
29.66986537,-0.2902464294,0.08337661743,0.1664538574,0.3448210214
29.67980437,-0.1685494995,0.09864486694,0.1645079041,0.2553479862
29.68974337,-0.396076355,0.1194515991,0.1556762695,0.4420183983
29.69968237,-0.4125421143,0.0462538147,0.01901046753,0.4155620402
29.70962137,-0.192948761,0.07843688965,-0.04819976807,0.2137867808
29.71956038,-0.1041833496,0.04385879517,-0.1294807434,0.1718808516
29.72949937,-0.01841171265,0.01751358032,-0.1631607056,0.1651276249
29.73943837,0.1387614441,0.03802093506,-0.190254364,0.2385310313
29.74937738,0.2612068176,0.1321751404,-0.123792572,0.3178425242
29.75931637,0.3255729675,0.2832110596,0.02649490356,0.4323288579
29.76925537,0.8303233337,0.3264710999,0.1959425354,0.9134624758
29.77919537,5.700146484,1.144519958,0.873583374,5.879178836
29.78913437,21.85470291,3.317401428,1.141226807,22.1344887
29.79907338,31.49839874,5.88201828,3.895499268,32.27881932
29.80901237,33.24751144,11.43457169,24.13685715,42.64662143
