Time (s),Acceleration x (m/s^2),Acceleration y (m/s^2),Acceleration z (m/s^2),Absolute acceleration (m/s^2)
0.0001955416519,0.1595681763,-4.639901276,-1.724414063,4.952549819
0.01013454166,-1.296903076,-4.523443451,-1.103505249,4.833344813
0.02007354167,-2.349214783,-4.440216522,-1.086440735,5.139521994
0.03001354166,-2.765648804,-4.401447144,-1.180145874,5.330506031
0.03995254167,-2.915038147,-4.386777649,-1.098116455,5.380253274
0.04989154165,-3.055745544,-4.314777374,-0.8461903381,5.354523575
0.05983154167,-3.04451889,-4.188739471,-0.6650669861,5.220818684
0.06977054165,-2.859353943,-4.171974335,-0.2305206299,5.063044003
0.07971054167,-2.471959534,-4.376000061,1.176553345,5.161805715
0.08964954165,-0.758921814,-4.955894165,4.153412933,6.510582792
0.09958854166,3.019520874,-5.776787109,10.73462723,12.55870206
0.1095285417,8.000263367,-6.476132812,20.95582214,23.34718381
0.1194675417,11.84606598,-8.422535248,20.70299789,25.2958989
0.1294075417,12.10622498,-12.48164429,12.36743179,21.33788875
0.1393465417,13.02261932,-17.10478043,17.58393402,27.77331207
0.1492855417,14.0487355,-19.63766327,18.87664581,30.64853251
0.1592255417,13.05674835,-18.21142914,13.48006805,26.15046966
0.1691645417,11.37768997,-14.01236115,6.973997498,19.35031615
0.1791045417,9.097332001,-8.855584717,3.599265289,13.1961184
0.1890435417,6.065386963,-4.434228973,3.76302475,8.403074489
0.1989825417,4.052073669,-1.369801483,5.986051941,7.357205649
0.2089225417,3.504811707,0.8565188599,8.544531555,9.275039038
0.2188615417,4.862488403,0.3278182983,6.928192749,8.470602876
0.2288015417,6.927294617,-3.894900513,-1.269659729,8.04796226
0.2387405417,7.775430908,-9.189989319,-11.18339401,16.43111473
0.2486795417,7.510032806,-14.30784668,-16.03959549,22.76804104
0.2586195417,7.084767151,-17.94528259,-12.50843857,22.99321918
0.2685585417,7.506589966,-20.32563263,-3.604055328,21.96518722
0.2784975417,13.90099274,-24.28534836,33.86482773,43.92997042
0.2884375417,4.92954895,-20.43206131,13.54159012,25.00288474
0.2983765417,-2.058519287,-12.67938309,-10.38660095,16.51925351
0.3083165417,-4.682263184,-8.585097198,-7.518864441,12.33534778
0.3182555417,-6.834936676,-5.548811188,-3.537892914,9.488010921
0.3281945417,-5.823639679,-4.855752411,-3.60151062,8.394283134
0.3381345417,-2.990930328,-5.223537598,-3.922592926,7.184549013
0.3480735417,-1.990710297,-5.450166321,-2.580483856,6.350286398
0.3580135417,-1.769620056,-6.065985718,-2.05118454,6.643425012
0.3679525417,-1.773212585,-7.116800537,-2.235151978,7.667400936
0.3778915417,-1.58310791,-8.520132294,-2.327060852,8.972964792
0.3878315417,-0.8267308044,-9.661209412,-1.892813873,9.879534173
0.3977705417,-0.08996292114,-10.39947418,-1.57023468,10.51773709
0.4077105417,0.2490820312,-10.80857346,-1.503922577,10.91554328
0.4176495417,0.460891571,-10.80992065,-1.649420013,10.94474266
0.4275885417,0.4643344116,-10.44932053,-1.922003174,10.63475444
0.4375285417,0.2441423035,-9.826765137,-2.222278748,10.07786889
0.4474675417,0.2884501648,-9.402547302,-2.508333893,9.735647805
0.4574065417,0.6255491638,-9.316625977,-2.748284912,9.733647893
0.4673465417,1.161584473,-9.353150024,-2.844085693,9.844771064
0.4772855417,1.654359741,-9.213939514,-2.869233398,9.791122909
0.4872255417,2.229613495,-8.975934448,-2.6104216,9.6100404
0.4971645417,2.816992035,-8.76277771,-2.323917389,9.493277061
0.5071035417,3.221450958,-8.609646149,-2.068398743,9.422421474
0.5170435417,3.577261047,-8.539442139,-1.456022186,9.372239287
0.5269825417,4.499642944,-8.127349091,0.3135978699,9.295102662
0.5369225417,5.381908264,-8.430319061,1.825154572,10.16692703
0.5468615417,5.854625244,-8.791517944,2.282303925,10.80631
0.5568005417,5.744154968,-8.751551056,2.991529083,10.88734166
0.5667405417,5.163961487,-8.584348755,3.681893463,10.67304461
0.5766795417,4.553231506,-8.311615906,2.947221222,9.924766448
0.5866185417,4.378993835,-7.925568695,1.491498413,9.176861864
0.5965585417,4.428091736,-7.418123932,1.231339417,8.726554638
0.6064975417,4.616998901,-6.944359131,1.654659119,8.501688032
0.6164375417,4.840035095,-7.025789795,1.100511475,8.60225479
0.6263765417,5.439837799,-7.761809235,0.322130127,9.48373796
0.6363155417,6.443800049,-8.686586151,0.06032455444,10.81586691
0.6462555417,7.064259796,-9.633816376,-0.1010398865,11.9467315
0.6561945417,7.189399567,-10.21775208,-0.03293151855,12.4936387
0.6661345417,7.251670074,-10.33870056,0.5322930908,12.63957215
0.6760735417,7.432044983,-10.04411316,1.330583038,12.56542689
0.6860125417,7.37621109,-9.564660187,2.242935791,12.28503055
0.6959525417,6.888674927,-9.213939514,3.264411621,11.95854953
0.7058915417,6.155349884,-9.191935272,3.841012573,11.7103964
0.7158315417,5.667364655,-9.462422791,3.241509247,11.49625371
0.7257705417,5.781726837,-9.733359375,2.029329987,11.50151425
0.7357095417,6.224955139,-9.86852829,0.9596543884,11.70721374
0.7456495417,6.601871338,-9.958790588,0.237406311,11.95067265
0.7555885417,6.779252472,-10.13602203,-0.1073268127,12.19461872
0.7655275417,7.071893921,-10.43016037,-0.08681945801,12.60188345
0.7754675417,7.46512619,-10.66217789,0.4819976807,13.02468687
0.7854065417,8.216563568,-10.95481934,1.633553009,13.79088391
0.7953465417,9.389225006,-11.40283768,3.216062164,15.11705359
0.8052855417,10.43584854,-11.73769135,4.740791473,16.40595735
0.8152245417,10.40097107,-11.19701569,5.458848267,16.22813556
0.8251645417,9.398505707,-10.04396347,5.234015808,14.71760963
0.8351028333,7.937693481,-9.244476013,4.38543045,12.94987702
0.8450428333,7.140151978,-8.971743164,3.406615906,11.96156251
0.8549818333,6.627617798,-9.601333923,1.508712616,11.76380655
0.8649208333,6.393504639,-10.88147186,-0.748742981,12.64294062
0.8748608333,6.481371918,-11.70610703,-3.101101227,13.7352813
0.8847998333,6.612499237,-12.14634155,-4.434079285,14.52307882
0.8947388333,6.288123779,-13.06782532,-4.279301147,15.12021751
0.9046788333,5.955964508,-14.45903229,-3.278182983,15.97759718
0.9146178333,5.686375122,-16.0394458,-2.03950882,17.13937805
0.9245578333,5.004093933,-17.80352737,-0.6150709534,18.50364438
0.9344968333,3.597618713,-19.41762085,1.85344574,19.83487134
0.9444358333,1.86392395,-19.96158966,6.001469879,20.92742017
0.9543758333,1.187929688,-18.84566025,6.687343597,20.0322403
0.9643148333,1.272952881,-16.71648788,2.063009949,16.89134057
0.9742548333,1.055604858,-14.64764008,-1.245410156,14.73834142
0.9841938333,0.6864724731,-12.6208548,-2.950514374,12.9793203
0.9941328333,0.6071374512,-10.63268921,-4.052971802,11.39514265
1.004072833,0.5266049194,-8.940308533,-3.660787354,9.675112064
1.014011833,0.3571572876,-7.730524292,-3.503464508,8.494870848
1.023951833,0.6740483093,-7.0509375,-3.273991699,7.803145673
1.033890833,1.344953156,-6.331533508,-2.721340942,7.021603242
1.043829833,2.253264313,-5.462889862,-1.506018219,6.098233891
1.053769833,2.911595306,-4.877307587,-0.1760339355,5.683001361
1.063708833,2.973117371,-4.44635376,0.6926097107,5.39344017
1.073647833,2.479294281,-4.192032623,0.476459198,4.893572418
1.083587833,2.053729248,-4.300257568,-0.630788269,4.807069047
1.093526833,1.887724457,-4.54350174,-1.316063232,5.093027991
1.103466833,1.731299744,-4.692142639,-1.494492188,5.219876267
1.113405833,1.439406738,-4.912783813,-1.956880646,5.480576468
1.123344833,1.1373349,-5.119054871,-2.220482483,5.694628688
1.133284833,0.6614744568,-5.022355957,-2.236499176,5.537466603
1.143223833,-0.3595523071,-4.624932404,-2.107617188,5.095225982
1.153163833,-1.413809967,-4.115990753,-2.132465515,4.846405645
1.163102833,-2.300266571,-3.758085022,-2.21150116,4.93002705
1.173041833,-3.010240173,-3.658691711,-1.978735199,5.134487699
1.182981833,-3.329526215,-3.672463074,-1.716330872,5.2458099
1.192920833,-3.337160339,-3.727548523,-1.377884674,5.189395273
1.202859833,-3.16980835,-3.933370514,-0.5463638306,5.08110244
1.212799833,-2.447111206,-4.427343292,1.243164825,5.209143947
1.222738833,-0.05104385376,-5.34493515,4.220174103,6.810345563
1.232678833,3.061284027,-6.740932159,10.37836807,12.74841755
1.242617833,6.599476318,-8.210725708,21.02842117,23.51943029
1.252556833,9.723180542,-10.68118835,21.87670715,26.21484962
1.262496833,9.176068268,-14.54405548,12.93235703,21.51686866
1.272435833,9.100625153,-19.06779831,19.71595047,28.8984604
1.282375833,10.86755081,-22.45555344,23.45786911,34.24364414
1.292314833,10.46548691,-19.61326401,13.8072876,26.16959557
1.302253833,8.265811157,-12.60438904,6.713239746,16.50035894
1.312193833,6.416257324,-6.827601929,4.228107605,10.27917312
1.322132833,4.729265442,-3.01068924,5.099745026,7.578759835
1.332071833,2.938239899,-0.6360273743,8.168064423,8.703738331
1.342011833,2.690804443,-0.6038442993,9.361532593,9.7592699
1.351950833,5.20332962,-3.931574249,1.303040314,6.65055105
1.361890833,7.101532288,-7.808212738,-11.09103607,15.31048752
1.371829833,6.345604248,-11.57587784,-16.46111893,21.10061794
1.381768833,5.860014038,-14.9565976,-12.54077133,20.37916882
1.391708833,4.945116577,-17.77613434,-6.733447723,19.64139629
1.401647833,4.910538483,-21.00611755,6.039790192,22.40199608
1.411587833,4.761298828,-21.93328949,15.08937149,27.04493088
1.421526833,1.065184937,-15.34129761,-0.8967851257,15.40435831
1.431465833,-0.6794371033,-10.81231567,-4.602479095,11.77075269
1.441405833,-1.712738342,-8.354127502,-3.26575882,9.13181798
1.451344833,-1.666933594,-7.218888245,-2.74379425,7.900596306
1.461284833,-1.279688873,-6.772067413,-2.427352295,7.306883045
1.471223833,-0.7447013855,-6.591991882,-2.107617188,6.960674345
1.481162833,-0.3670367432,-6.906787262,-2.152673492,7.243785572
1.491102833,-0.5203179932,-7.642507324,-2.461930389,8.046101556
1.501041833,-1.125210114,-8.625213776,-2.584974518,9.074277036
1.510980833,-1.428479462,-9.219028931,-2.154020691,9.574489706
1.520920833,-1.120420074,-9.282796326,-1.752256165,9.512941208
1.530859833,-0.5137316895,-9.115743713,-1.471140747,9.247970523
1.540799833,0.05852828979,-8.826395416,-1.245260468,8.913997714
1.550738833,0.3731739807,-8.653055878,-1.012793884,8.720113892
1.560677833,0.8219407654,-8.624764709,-0.9922865295,8.720480805
1.570617833,1.12790451,-8.580756226,-1.23208786,8.741829699
1.580556833,1.272952881,-8.52177887,-1.595232697,8.76275593
1.590496833,1.508712616,-8.50531311,-1.768123169,8.817189144
1.600435833,1.929038544,-8.482560425,-1.57607254,8.84075934
1.610374833,2.500400391,-8.437204742,-1.191073151,8.880150969
1.620314833,3.614084473,-8.208779755,0.1862127686,8.971083927
1.630253833,4.636907501,-8.186027069,1.452729034,9.519578352
1.640193833,4.975653076,-8.426726532,2.12138855,10.01334774
1.650132833,5.055586853,-8.670569458,2.405946808,10.32115852
1.660071833,4.96113327,-8.740773468,2.14473999,10.27686109
1.670011833,4.537813568,-8.621321869,1.258882141,9.823631049
1.679950833,4.115092621,-8.340954895,0.1300794983,9.301743735
1.689889833,3.953578491,-7.857011261,-0.3146456909,8.801273246
1.699829833,4.080215149,-7.318131866,-0.1398092651,8.379901927
1.709768833,4.30355072,-7.108567657,-0.1407073975,8.310961528
1.719708833,4.594395905,-7.429649963,-0.3522175598,8.742552803
1.729647833,5.035229187,-8.037236481,-0.2537223816,9.487627641
1.739586833,5.743855591,-8.678353271,0.1010398865,10.40749257
1.749526833,6.480024719,-9.283544769,0.4688250732,11.33113943
1.759465833,7.106472015,-9.797276459,0.8681945801,12.13434516
1.769405833,7.52125946,-10.17329453,1.443598022,12.73378344
1.779344833,7.379803619,-10.14919464,2.257904663,12.75012889
1.789283833,6.753655701,-9.899663544,3.385210419,12.45290541
1.799223833,5.932164001,-9.719288635,4.385131073,12.20182428
1.809162833,5.398523712,-9.718839569,3.916455688,11.78721876
1.819102833,5.498815155,-9.878707123,2.08037384,11.49581567
1.829041917,5.922284546,-9.96208374,0.6655160522,11.60859502
1.838980917,6.2891716,-9.834698639,-0.09370513916,11.67406345
1.848920917,6.428232422,-9.662107544,-0.609382782,11.62109468
1.858859917,6.643634491,-9.625882874,-0.8517288208,11.72693235
1.868798917,6.847211151,-9.672136688,-0.6212081909,11.86677834
1.878738917,7.059320068,-9.832004242,0.1612147522,12.10488734
1.888677917,7.303462372,-10.08647507,1.585652618,12.5535587
1.898617917,7.902666321,-10.46443909,3.712429962,13.62860068
1.908556917,8.776698761,-11.05526047,5.612129517,15.19030029
1.918495917,9.556876373,-11.54893387,5.907315674,16.11235979
1.928435917,9.791588287,-11.25958557,5.165608063,15.79040769
1.938374917,9.269773407,-10.16955231,4.359983368,14.43460939
1.948314917,8.533304901,-9.094637604,3.466641083,12.94400734
1.958253917,8.430618439,-8.397088165,2.98015274,12.26652874
1.968192917,8.194709015,-8.739875336,2.302960968,12.20009451
1.978132917,7.860154724,-10.18511993,-0.02245330811,12.86542671
1.988071917,7.774233398,-11.46061752,-3.418890381,14.26440571
1.998011917,7.622748413,-12.1602626,-4.752167816,15.11824656
2.007950917,7.365882568,-13.2684082,-4.395160217,15.79950365
2.017889917,7.041806488,-14.76514572,-3.315006409,16.69089076
2.027829917,6.777755585,-16.3725032,-2.205962677,17.85673832
2.037768917,6.113437042,-17.64874924,-1.828148346,18.76684812
2.047707917,4.734953613,-18.16113373,-1.65331192,18.84091304
2.057647917,3.163072357,-18.14811081,-0.4406835938,18.42696814
2.067586917,2.140249329,-17.3426358,3.265908508,17.77677817
2.077526917,1.890269165,-15.44158905,6.813231812,16.98340124
2.087465917,1.491199036,-13.44324463,4.938081207,14.39892867
2.097404917,0.4773573303,-11.99740128,1.247954865,12.071574
2.107344917,0.3206332397,-10.66292633,-1.172062683,10.73193992
2.117283917,0.4778063965,-9.406888275,-2.213596802,9.675632112
2.127223917,0.1317260742,-8.478219452,-2.533631287,8.849680465
2.137162917,-0.05987548828,-7.844437408,-3.683540039,8.666443939
2.147101917,0.4722679138,-7.24283844,-3.728895721,8.160049568
2.157041917,1.115630035,-6.466403046,-2.590962067,7.05493325
2.166980917,1.667232971,-5.704487457,-0.7872129822,5.995043554
2.176920917,1.958227844,-5.006039886,0.1785786438,5.37838098
2.186859917,1.850152588,-4.589456177,0.08397537231,4.949062988
2.196798917,1.731000366,-4.425397339,-0.4574487305,4.773862505
2.206738917,1.413360901,-4.509372711,-0.9967771912,4.829657964
2.216677917,0.8839118958,-5.035378876,-1.422192535,5.306502829
2.226616917,0.3582051086,-5.627248077,-1.844614105,5.932691887
2.236556917,-0.01077758789,-6.068829803,-2.120490417,6.428630566
2.246495917,-0.1059796143,-6.305337982,-2.141895905,6.660047809
2.256435917,-0.1895059204,-6.205345917,-1.894161072,6.490768568
2.266374917,-0.4917274475,-5.795647888,-1.749112701,6.073773586
2.276313917,-1.139729919,-5.244793396,-1.820813599,5.667645386
2.286253917,-1.988315277,-4.621190186,-1.812580719,5.347358716
2.296192917,-2.861599274,-4.063000946,-1.501377869,5.191422021
2.306132917,-3.401227112,-3.656596069,-1.324296112,5.166507609
2.316071917,-3.411855011,-3.469036102,-1.526226196,5.099444332
2.326010917,-3.018023987,-3.587140503,-1.012045441,4.795860897
2.335950917,-2.044448547,-4.356690216,0.7475454712,4.87025089
2.345889917,0.5842350769,-5.531896362,4.435127106,7.114320799
2.355829917,4.884941711,-6.478827209,13.72465942,15.94378041
2.365768917,10.40007294,-7.581733704,26.13520157,29.13233537
2.375707917,13.45746506,-11.0389444,20.3658989,26.79051132
2.385647917,13.52976471,-16.76363983,19.09968201,28.79013731
2.395586917,14.46457077,-21.73839478,23.38751541,35.05363736
2.405526917,12.71396118,-21.46386566,15.04162079,29.13061438
2.415465917,10.76785812,-16.70226746,7.393574982,21.20324168
2.425404917,8.814869385,-10.81680634,3.871698761,14.48085884
2.435344917,5.663772125,-5.865851898,3.651955719,8.934389389
2.445283917,3.396137695,-2.499502258,6.746620331,7.956013366
2.455222917,2.465073853,0.1986369324,10.26205994,10.55584766
2.465162917,2.9169841,0.5451663208,8.88791748,9.370223034
2.475101917,5.187761993,-2.692900085,3.771706696,6.956317759
2.485041917,7.486082611,-6.795718231,-3.824696503,10.80978827
2.494980917,8.144413605,-11.57782379,-12.32327362,18.76807261
2.504919917,7.185657349,-16.07297607,-15.12320114,23.2095981
2.514859917,6.526577911,-18.75315262,-10.44827271,22.43754342
2.524798917,5.583988037,-19.9650325,-3.263663177,20.98654194
2.534738917,8.387059021,-21.53436905,21.64708466,31.6649346
2.544677917,2.281256104,-16.62667465,10.66023193,19.88192607
2.554616917,-0.9196875,-9.967622223,-6.533313904,11.95338899
2.564556917,-2.295177155,-6.590345306,-4.880301361,8.515740179
2.574495917,-4.750670929,-4.032614136,-2.03127594,6.554153873
2.584435917,-4.462520142,-3.234623566,-2.379302216,6.003162055
2.594374917,-1.927391968,-4.543651428,-3.605103149,6.111986323
2.604313917,-0.9520202637,-5.318140869,-2.998863831,6.179170588
2.614253917,-0.8129594421,-6.766828308,-3.096909943,7.486101763
2.624192917,-0.5692662048,-8.779393158,-2.966381378,9.284461574
2.634132917,0.136665802,-10.28122009,-2.356998596,10.54882015
2.644071917,0.7834707642,-11.14193024,-1.811383209,11.31536765
2.654010917,1.285227356,-11.41630966,-1.448986816,11.57944292
2.663950917,1.321901093,-11.11079498,-1.269210663,11.26090953
2.673889917,1.108894043,-10.30127838,-1.282682648,10.43988779
2.683829917,0.9758207703,-9.415570221,-1.52113678,9.587442092
2.693768917,1.10335556,-8.892408142,-1.845661926,9.148703952
2.703707917,1.42638382,-8.662635956,-2.14009964,9.03636315
2.713647917,1.841021576,-8.526269531,-2.323168945,9.0268348
2.723586917,2.178120575,-8.364156647,-2.326611786,8.950779187
2.733525917,2.522254944,-8.153394928,-1.978735199,8.76099377
2.743465917,2.929258575,-7.982151031,-1.27894043,8.598312597
2.753404917,4.028273163,-7.598798218,0.2086660767,8.603037868
2.763344917,4.379293213,-7.904312897,1.810784454,9.216035577
2.773283917,4.19831955,-8.438102875,2.719095612,9.809227702
2.783222917,3.862268372,-8.793014832,3.577410736,10.24851669
2.793162917,3.37098999,-9.262139282,4.009711761,10.64089216
2.803101917,3.041974182,-9.458231506,2.843636627,10.33431272
2.813041917,2.920127563,-9.057514801,1.190773773,9.590811308
2.822980917,2.670895844,-8.396639099,0.2778222656,8.815578142
2.832920458,2.375709686,-7.961194611,-0.3031196594,8.313633241
2.842860458,2.29682373,-7.751480713,-0.852177887,8.129394789
2.852799458,2.684667206,-7.808362427,-0.8765771484,8.303393842
2.862739458,3.146157532,-8.207582245,-0.3083587646,8.795328229
2.872678458,3.511248322,-8.868757324,0.3399430847,9.544594415
2.882617458,4.065246277,-9.593699799,0.7306306458,10.44505262
2.892557458,4.752616882,-10.19514908,1.04018692,11.29647825
2.902496458,5.553152161,-10.44632675,1.599573669,11.9382527
2.912436458,6.264023895,-10.25756927,2.362686768,12.24900043
2.922375458,6.807992706,-9.843679962,2.855462036,12.30448956
2.932314458,7.300019531,-9.618997192,2.816842346,12.39959648
2.942254458,7.645650787,-9.575288086,2.168839874,12.44371264
2.952193458,7.851921844,-9.592053223,1.21337677,12.45521758
2.962133458,7.997119904,-9.606273651,0.5275030518,12.51050277
2.972072458,8.015830994,-9.597891083,0.2167492676,12.50679975
2.982011458,7.945926361,-9.799372101,0.2664459229,12.6188919
2.991951458,7.873776398,-10.14380585,0.7708969116,12.86419192
3.001890458,7.890691223,-10.53883438,1.696422272,13.27433187
3.011829458,8.197253723,-11.18144806,2.96383667,14.17759067
3.021769458,8.783135376,-11.94291458,3.975133667,15.34856226
3.031708458,9.565258942,-12.56936188,4.062102814,16.3090072
3.041648458,9.917177124,-12.68237686,4.076323242,16.60751324
3.051587458,9.201365662,-11.93064011,4.789589996,15.809664
3.061526458,7.983348541,-10.49108368,5.41753418,14.25294241
3.071466458,6.622528381,-9.065897369,4.710554352,12.17529053
3.081405458,5.889652405,-8.346194,3.217559052,10.70979206
3.091345458,5.833070068,-8.61997467,1.639540558,10.53644926
3.101284458,5.822891235,-9.645941162,-0.5745053101,11.2818571
3.111223458,6.146817627,-10.75992462,-3.023712158,12.75547647
3.121163458,6.488257599,-11.72197403,-4.326004028,14.0789372
3.131102458,6.636000366,-12.75317963,-4.325405273,15.01296847
3.141042458,6.688092041,-14.09439056,-3.456761627,15.97909952
3.150981458,6.686595154,-15.89394836,-2.211351471,17.38442477
3.160920458,6.445446625,-17.97881287,-0.8020321655,19.11608615
3.170860458,5.276377716,-19.69604187,1.14437027,20.42262986
3.180799458,3.29958847,-20.42502594,4.637506256,21.20319393
3.190739458,1.723964996,-19.58482315,7.340585175,20.98622272
3.200678458,1.238823853,-17.28949631,4.411925354,17.88648798
3.210617458,0.9107061768,-14.97006958,0.2748284912,15.00026332
3.220557458,0.7450007629,-12.84269348,-2.233505402,13.05673575
3.230496458,0.6117778015,-10.71696396,-3.562441864,11.31010966
3.240436458,0.3056643677,-9.091643829,-3.831731873,9.870845322
3.250375458,0.5819897461,-7.971223755,-4.074676666,8.971182205
3.260314458,1.361867981,-7.050488434,-3.253933411,7.883663755
3.270254458,2.012864227,-6.308631134,-1.594334564,6.811193132
3.280193458,2.719993744,-5.361849976,-0.0505947876,6.012517024
3.290133458,2.641556854,-4.641547852,0.8280780029,5.404396567
3.300072458,2.230511627,-4.316274261,0.6872209167,4.90690108
3.310011458,1.822609863,-4.367467804,-0.1857637024,4.736157713
3.319951458,1.585203552,-4.624932404,-0.7093748474,4.94025128
3.329890458,1.015488281,-4.882546692,-0.9779164124,5.082007394
3.339830458,0.2119592285,-5.127138062,-1.452429657,5.333106349
3.349769458,-0.2883004761,-5.242548065,-1.950144653,5.600936667
3.359708458,-0.7170089722,-5.170248413,-2.117047577,5.632713464
3.369648458,-1.254391479,-4.910688171,-1.994003448,5.446504021
3.379587458,-1.995500336,-4.62178894,-1.787732391,5.342185106
3.389526458,-2.653681641,-4.311633911,-1.657952271,5.327383876
3.399466458,-3.172951813,-3.991300049,-1.526226196,5.322355276
3.409405458,-3.596720581,-3.739373932,-1.28118576,5.344226164
3.419345458,-4.046684875,-3.559597778,-1.024768982,5.486031926
3.429284458,-3.966451721,-3.444636841,-1.187031555,5.385843122
3.439223458,-3.497027893,-3.422333221,-1.471140747,5.109385859
3.449163458,-3.023412781,-3.642076263,-0.6756948853,4.781454583
3.459102458,-1.43686203,-4.294868774,1.528920593,4.77996532
3.469042458,2.293979645,-5.287903748,5.128335571,7.715185959
3.478981458,7.632927246,-6.537355499,13.88317978,17.138882
3.488920458,13.66029327,-8.280480652,25.38032135,29.98884266
3.498860458,15.3174971,-12.58148666,24.28699493,31.34928463
3.508799458,13.54233856,-17.89768158,20.69716003,30.53022065
3.518739458,12.23091568,-21.13005981,20.69386688,32.0048567
3.528678458,10.39722885,-19.93943573,14.27326859,26.63474537
3.538617458,9.541608124,-15.30671951,7.652237091,19.59323047
3.548557458,8.054450684,-9.184750214,4.706812134,13.09151988
3.558496458,5.766308899,-4.377047882,4.975952454,8.784587031
3.568436458,4.447700958,-1.217867432,6.532415771,7.996105346
3.578375458,4.186045074,0.2987786865,8.226742401,9.235341499
3.588314458,5.256169739,-3.001707916,7.666158142,9.767678916
3.598254458,7.542066193,-8.756341095,5.62814621,12.85427173
3.608193458,9.960586853,-14.29377594,-1.977238312,17.53381854
3.618133458,9.882299652,-19.11240555,-13.00615356,25.14167701
3.628072458,7.714208221,-20.53220306,-14.33898193,26.204709
3.638011458,5.227579193,-19.62,-5.735473022,21.09899607
3.647951458,1.524280243,-17.10852264,6.657854919,18.42150942
3.657890458,-4.011957092,-12.8331134,9.012907562,16.18694233
3.667830458,-3.872746582,-8.484656067,0.6014492798,9.346084522
3.677769458,-3.384012909,-5.363047485,-2.690505066,6.888587606
3.687708458,-3.053200836,-3.68114502,-3.769161987,6.089289457
3.697648458,-2.199975128,-3.773952026,-4.651876373,6.381422902
3.707587458,-1.772913208,-4.502786407,-4.007316742,6.283064073
3.717527458,-1.413959656,-5.827531586,-3.038082275,6.722302448
3.727466458,-1.48251709,-7.849526825,-2.716251526,8.437473001
3.737405458,-1.451531525,-9.785750427,-2.374661865,10.17383282
3.747345458,-1.086590424,-11.23368942,-1.888772278,11.44307291
3.757284458,-0.545615387,-12.1616098,-1.501976624,12.26614784
3.767224458,0.2865042114,-12.39272919,-1.110690308,12.44570023
3.777163458,1.1771521,-12.08227478,-0.7737409973,12.16411633
3.787102458,1.698068848,-11.47618515,-0.5614823914,11.61471161
3.797042458,1.654958496,-10.62864761,-0.390687561,10.76381319
3.806981458,1.595532074,-9.749076691,-0.3920347595,9.886551986
3.816921458,1.7106427,-9.045839081,-0.7303312683,9.235089977
3.826860458,1.946851501,-8.543633423,-1.28358078,8.85615506
3.836799208,2.202968903,-8.26191925,-1.669627991,8.712062862
3.846739208,2.656825104,-7.985593872,-1.555565186,8.558516937
3.856678208,3.265010376,-7.529342651,-0.9660910034,8.263451176
3.866617208,4.730163574,-6.85439621,2.229912872,8.621467755
3.876557208,5.779481506,-6.864724731,2.83046402,9.409483444
3.886496208,6.035748596,-7.5154216,0.8918453979,9.680248507
3.896436208,5.768404541,-8.034392395,0.7679031372,9.920465077
3.906375208,5.512436829,-8.470435638,0.7048841858,10.13075029
3.916314208,5.413043518,-8.680299225,0.182769928,10.23142412
3.926254208,4.983287201,-8.686286774,-0.1727407837,10.01571608
3.936193208,4.275109863,-8.468040619,-0.3233276367,9.491512895
3.946133208,3.444487152,-8.055947571,-0.4870870972,8.774966487
3.956072208,2.891836395,-7.74010437,-0.5414241028,8.280402977
3.966011208,2.824925537,-7.710765381,-0.3080593872,8.21772521
3.975951208,2.980003052,-8.034691772,0.3980223083,8.578759341
3.985890208,3.126398621,-8.567733307,1.674717407,9.272815147
3.995830208,3.357667694,-9.060059509,3.175197144,10.17056968
4.005769208,3.765719147,-9.563013611,3.723057861,10.93128674
4.015708208,4.519701233,-10.03797592,2.746488647,11.34600633
4.025648208,5.67260376,-10.18167709,1.638492737,11.76986152
4.035587208,6.82161438,-9.892478485,1.322948914,12.08907553
4.045527208,7.557484131,-9.440568237,1.379980316,12.17145187
4.055466208,8.085585938,-9.010961609,1.495540009,12.19880195
4.065405208,8.647517395,-8.747060394,1.411714325,12.3807738
4.075345208,8.942703552,-8.638985138,1.313518524,12.50317328
4.085284208,8.745114441,-8.629554749,1.163380737,12.34097632
4.095224208,8.373437347,-8.803193665,1.158890076,12.20465886
4.105163208,7.986342316,-9.226064301,1.566342773,12.30265645
4.115102208,7.582631836,-9.914782104,2.495610352,12.72899371
4.125042208,7.311246185,-10.69331314,3.93037674,13.53695416
4.134981208,7.678731995,-11.47663422,4.900060272,14.65218921
4.144921208,8.941955109,-12.08377167,4.472698975,15.68378574
4.154860208,10.09740234,-12.20696548,4.167333984,16.38091002
4.164799208,10.21924896,-11.51375702,5.05588623,16.20375375
4.174739208,8.857081604,-10.32882111,5.509742432,14.67956749
4.184678208,7.084168396,-9.419611816,4.952750702,12.78453238
4.194618208,6.831344147,-9.191935272,3.028951263,11.8462434
4.204557208,6.934030609,-9.999655609,0.3724255371,12.17425947
4.214496208,7.348518677,-11.0733728,-2.972967682,13.61832768
4.224436208,7.919730835,-11.73005722,-5.16126709,15.06502761
4.234375208,7.852071533,-12.54765701,-5.243446198,15.70326246
4.244315208,7.530839539,-13.84515884,-4.297114105,16.33606921
4.254254208,7.11530365,-15.45700699,-3.047362976,17.28678779
4.264193208,6.681954803,-17.23261459,-1.741328888,18.56458327
4.274133208,5.831423492,-18.98936142,-0.2781216431,19.86652206
4.284072208,4.150868225,-20.5263652,2.907104645,21.14267327
4.294012208,1.94236084,-21.3134285,7.253616028,22.59756503
4.303951208,1.084494781,-19.98823425,6.073470154,20.91871595
4.313890208,1.435963898,-17.41179199,1.416803741,17.52825792
4.323830208,1.319955139,-14.98369125,-0.9651928711,15.07265346
4.333769208,1.007105713,-12.54720795,-2.344724121,12.80407827
4.343709208,0.8454418945,-10.31415161,-3.144361267,10.81589124
4.353648208,0.6864724731,-8.607700195,-3.624263306,9.364776111
4.363587208,0.6824308777,-7.525750122,-4.135300598,8.614135931
4.373527208,1.065634003,-6.687343597,-4.162693634,7.948846363
4.383466208,1.610650635,-5.841003571,-3.353027344,6.924905093
4.393406208,2.112856293,-4.907095642,-1.218166809,5.479751794
4.403345208,2.402054901,-4.117188263,0.3508703613,4.779562423
4.413284208,2.198178864,-3.611988831,0.9864486694,4.341835396
4.423224208,1.757644958,-3.497027893,0.4622387695,3.941089261
4.433163208,1.281036072,-3.694766693,-0.742306366,3.980373484
4.443102208,0.8574169922,-3.925886078,-1.515149231,4.294580607
4.453042208,0.2085163879,-4.335434418,-2.139351196,4.839038563
4.462981208,-0.4990621948,-4.760700073,-2.49576004,5.39834664
4.472921208,-1.103056183,-4.941374359,-2.529290314,5.659613325
4.482860208,-1.72935379,-4.731061707,-2.380499725,5.571390163
4.492799208,-2.364483032,-4.348607025,-2.104024658,5.378483321
4.502739208,-2.976260834,-3.976630554,-1.918410645,5.324661352
4.512678208,-3.566932526,-3.626358948,-1.561253357,5.320808106
4.522618208,-3.877386932,-3.26575882,-1.419647827,5.264476236
4.532557208,-3.876339111,-3.034489746,-1.839824066,5.255386334
4.542496208,-3.410208435,-3.065325623,-1.895208893,4.961608559
4.552436208,-2.678979034,-3.526815948,-0.6848258972,4.481556193
4.562375208,-0.6450086975,-4.490960999,2.146386566,5.019137595
4.572315208,3.110830994,-5.610033875,8.048762512,10.29234315
4.582254208,7.943381653,-6.987319794,18.86916138,21.63250335
4.592193208,11.89231979,-9.37710022,25.46444641,29.6276106
4.602133208,10.545271,-13.8590799,15.49098633,23.30767027
4.612072208,9.33608551,-18.67067413,18.49718491,27.89090201
4.622012208,10.82833237,-22.76765442,24.76360382,35.33914181
4.631951208,10.40755737,-21.3465097,16.2437709,28.77239685
4.641890208,8.591234436,-14.59390182,7.147187347,18.38133745
4.651830208,6.971452789,-8.05834259,3.026855621,11.07699843
4.661769208,5.546416168,-4.122876434,3.619772644,7.801512443
4.671709208,4.176614685,-1.645228729,8.590635681,9.692776135
4.681648208,4.604425049,-1.046623535,11.30748596,12.25379083
4.691587208,6.698869629,-4.118535461,1.92484726,8.095815316
4.701527208,7.813900909,-8.224347382,-11.68215683,16.28403284
4.711466208,6.411018219,-12.34827164,-18.2849263,22.97649879
4.721406208,5.555696869,-15.60939011,-14.43313614,21.97348962
4.731345208,5.299429779,-18.4507814,-8.210875397,20.87902692
4.741284208,4.808301086,-21.0731781,6.320456543,22.51991931
4.751224208,5.07938736,-22.99757629,28.87989395,37.26576131
4.761163208,0.1086740112,-15.28202087,0.2203417969,15.28399563
4.771103208,-1.624871063,-9.662107544,-7.696994019,12.45954434
4.781042208,-3.853885803,-6.750811615,-3.581901398,8.558966694
4.790981208,-4.9740065,-4.889282684,-2.049088898,7.269428529
4.800921208,-3.131338348,-4.952002258,-3.349285126,6.74872707
4.810860208,-1.936223602,-5.286107483,-3.244053955,6.497367176
4.820800208,-1.509610748,-5.928571472,-3.020119629,6.822609976
4.830739208,-1.348246307,-7.200925598,-3.123404846,7.964091625
4.840678292,-1.088985443,-8.514294434,-2.468666382,8.931596313
4.850618292,-0.6462062073,-9.369316406,-1.695823517,9.543452718
4.860557292,-0.3585044861,-9.725575562,-1.18298996,9.80381613
4.870496292,0.1131646729,-9.758806458,-0.9788145447,9.80842432
4.880436292,0.3608995056,-9.581275635,-0.7899073792,9.620553254
4.890375292,0.2859054565,-9.269324341,-0.8460406494,9.312244651
4.900315292,0.2249821472,-8.984017639,-1.197509766,9.066268226
4.910254292,0.4406835938,-8.946146393,-1.629361725,9.103985772
4.920193292,0.8472381592,-8.876391449,-2.01960022,9.142588403
4.930133292,1.276096344,-8.743318176,-2.426454163,9.163062502
4.940072292,1.74462204,-8.614436188,-2.363435211,9.101540688
4.950012292,2.340233459,-8.482410736,-1.862876129,8.994347781
4.959951292,2.849324799,-8.403375092,-1.40288269,8.983509591
