Time (s),Acceleration x (m/s^2),Acceleration y (m/s^2),Acceleration z (m/s^2),Absolute acceleration (m/s^2)
19.88536942,-0.703686676,-2.734064484,-0.08322692871,2.824395557
19.89530942,-0.904119873,-2.194736023,-0.1396595764,2.377772856
19.90524842,-0.8045768738,-1.584155731,-0.2543211365,1.79487397
19.91518842,-0.386945343,-1.033450928,-0.4959187317,1.209827635
19.92512742,-0.05852828979,-0.5993536377,-0.8686436462,1.056973097
19.93506742,0.1245410156,-0.2501298523,-1.272054749,1.30238193
19.94500642,0.4475692749,0.02499801636,-1.478026428,1.544508103
19.95494642,0.659229126,0.1043330383,-1.46500351,1.609876923
19.96488642,0.8126600647,0.02409988403,-1.392853546,1.612773445
19.97482542,1.068927155,-0.1318757629,-1.29181366,1.681897443
19.98476542,1.25199646,-0.5602848816,-1.19930603,1.822017903
19.99470442,1.484912109,-1.347497864,-1.035845947,2.256920754
20.00464442,2.003284149,-2.397115173,-0.7746391296,3.218598191
20.01458342,3.522924042,-4.01105896,2.079026642,5.729043512
20.02452342,7.544610901,-6.712640991,10.61652283,14.65234656
20.03446242,10.95062805,-8.558302917,8.645421753,16.36777691
20.04440242,10.54886353,-8.197253723,-1.317709808,13.42422621
20.05434142,13.70040985,-9.773625641,-1.336720276,16.88229278
20.06428142,20.56962524,-14.30335602,3.417393494,25.28584692
20.07422142,29.30755463,-20.07864624,3.59806778,35.70757461
20.08416042,34.93974243,-25.29859131,3.462898865,43.27581301
20.09410042,37.1736969,-30.3324733,6.116281128,48.36684373
20.10403942,36.0085199,-32.13741989,6.327192535,48.67710579
20.11397942,29.19768311,-30.1121315,6.798861694,42.4908188
20.12391842,23.23558136,-24.03671539,6.795269165,34.11497635
20.13385842,21.95484467,-17.51477783,4.981640625,28.52366369
20.14379742,20.5197789,-14.03975418,4.597389679,25.28462014
20.15373742,18.21547073,-11.90399551,4.945715332,22.31520969
20.16367642,16.56335632,-10.99388809,3.58743988,20.20099188
20.17361642,15.69695801,-10.16401382,2.100581818,18.81791996
20.18355542,14.86259308,-9.071136475,0.9117539978,17.43598249
20.19349542,13.54488327,-8.011040955,-0.2865042114,15.73920978
20.20343542,11.64159119,-6.810238037,-1.137933655,13.53517198
20.21337442,9.24956543,-5.723497925,-1.704056396,11.00984547
20.22331442,6.887627106,-4.613556061,-1.697320404,8.461985773
20.23325342,4.880151672,-3.390748901,-1.12565918,6.04815402
20.24319342,3.235521698,-2.225122833,-0.4549040222,3.953063363
20.25313242,1.641037445,-1.46021347,0.05748046875,2.197391927
20.26307242,0.1682501221,-0.9403445435,0.1797761536,0.9720470304
20.27301142,-1.211580505,-0.629740448,-0.03682342529,1.365963513
20.28295142,-2.4034021,-0.1848655701,-0.3224295044,2.431969925
20.29289042,-3.426374817,0.3561094666,-0.4773573303,3.477747598
20.30283042,-4.102668457,0.9036708069,0.1028361511,4.20227137
20.31277042,-4.263434143,1.27894043,1.017583923,4.565964997
20.32270942,-4.029620361,1.428928528,1.875150604,4.668604372
20.33264942,-3.50795517,1.030606842,3.271896057,4.906445123
20.34258842,-2.464774475,-0.7631130981,5.07818985,5.696092254
20.35252842,-2.06166275,-2.962938538,6.19561615,7.170433568
20.36246742,-2.410587158,-4.227209473,6.014043732,7.736210466
20.37240742,-2.572700043,-4.37031189,4.643793182,6.87628
20.38234642,-2.407294006,-3.817511444,2.879711609,5.353615321
20.39228642,-1.905836792,-2.697690125,1.4239888,3.596872251
20.40222542,-1.196312256,-1.453028412,0.6354286194,1.986510536
20.41216542,-0.4312532043,-0.7450007629,0.07948471069,0.8644786187
20.42210542,0.2830613708,-0.4031117249,-0.3694317627,0.6157131066
20.43204442,0.8128097534,-0.06301895142,-0.7217990112,1.088864039
20.44198442,1.086889801,0.1995350647,-1.125509491,1.577312682
20.45192342,1.15844101,0.347277832,-1.459914093,1.895768083
20.46186342,1.325643311,0.3841012573,-1.641935577,2.144951375
20.47180242,1.366208954,0.4197271729,-1.60765686,2.151106317
20.48174242,1.245260468,0.4278103638,-1.44973526,1.958424791
20.49168142,1.143322449,0.3668870544,-1.419198761,1.859009805
20.50162142,1.13493988,0.2137554932,-1.395997009,1.811791266
20.51156042,1.236279144,-0.2480342102,-1.266366577,1.787062226
20.52150042,1.582658844,-1.089883575,-1.072669373,2.200744149
20.53144042,2.254312134,-2.129771118,-0.8774752808,3.223012734
20.54137942,3.535198517,-3.219055939,-0.6950047302,4.831457468
20.55131942,5.941295013,-5.051395569,2.289039917,8.127440395
20.56125821,10.78731766,-8.662635956,12.06161774,18.35456636
20.57119821,16.82201843,-12.2584584,6.427933044,21.78459157
20.58113721,18.44988327,-12.50739075,-0.9461824036,22.30982468
20.59107721,23.94675247,-16.82156937,0.6635700989,29.27204255
20.60101621,31.90630051,-23.33886658,2.443069611,39.6066067
20.61095621,37.97647751,-28.66074966,2.807561646,47.66061076
20.62089521,36.82282654,-30.01677979,4.61954361,47.73120369
20.63083521,32.64366714,-29.26100143,8.286019135,44.61472092
20.64077521,25.41953979,-23.1474147,9.019643555,35.54306938
20.65071421,22.78082703,-16.54269928,7.428153076,29.11708154
20.66065421,22.07938568,-13.85683456,7.145540771,27.02905639
20.67059321,20.56438614,-12.98414932,6.856342163,25.26839011
20.68053321,18.98921173,-13.41794724,5.361849976,23.86170374
20.69047221,17.77942749,-13.45387253,3.191064148,22.52326837
20.70041221,16.51440811,-12.09559708,1.983076172,20.56603353
20.71035121,14.79373627,-10.42297531,1.469943237,18.15637024
20.72029121,13.03743851,-8.70424942,0.9966275024,15.70770598
20.73023021,11.17650833,-6.828949127,0.6707551575,13.11483119
20.74017021,9.050180054,-5.028343506,0.425565033,10.36200285
20.75011021,6.744674377,-3.408112793,0.4085005188,7.567875391
20.76004921,4.746779022,-2.071392517,0.5011578369,5.203242953
20.76998921,3.172203369,-1.116677856,0.5875282288,3.413946846
20.77992821,1.651365967,-0.4134402466,0.5848338318,1.799992501
20.78986821,0.1466949463,0.07858657837,0.3409909058,0.3794338617
20.79980721,-1.266216888,0.2691403198,-0.1372645569,1.301761606
20.80974721,-2.397414551,0.3376977539,-0.6590794373,2.509187519
20.81968621,-3.210823059,0.5888754272,-1.098864899,3.444366858
20.82962621,-3.78877121,0.9120533752,-1.10455307,4.050514304
20.83956521,-4.250560913,1.22744751,-0.5882766724,4.46317879
20.84950521,-4.521347809,1.299298096,0.3312611389,4.715982983
20.85944521,-4.682263184,0.6571334839,1.433568878,4.940701637
20.86938421,-4.092190247,-0.8123606873,2.401605835,4.813902937
20.87932421,-3.363655243,-2.544109497,3.301684113,5.356098179
20.88926321,-3.07969574,-3.642974396,3.695066071,6.034012062
20.89920321,-2.83749939,-3.876788177,3.11831543,5.727545764
20.90914221,-2.25356369,-3.317102051,1.91197403,4.442674871
20.91908221,-1.316961365,-2.0079245,0.6114784241,2.477913214
20.92902121,-0.4861889648,-1.133143616,-0.3890409851,1.292960576
20.93896121,-0.1972897339,-0.790506134,-0.999022522,1.289135054
20.94890021,-0.1371148682,-0.4433779907,-1.294807434,1.375467492
20.95884021,-0.109871521,-0.1043330383,-1.296154633,1.304980446
20.96878021,-0.08008346558,0.2263293457,-1.202299805,1.226035544
20.97871921,0.04730163574,0.4499642944,-1.137484589,1.224163592
20.98865921,0.0845741272,0.519868927,-1.117875366,1.235743428
20.99859821,0.04565505981,0.4846920776,-1.096469879,1.199690373
21.00853821,0.07679031372,0.3020718384,-0.9976753235,1.045227343
21.01847721,0.150586853,-0.09026229858,-0.8479866028,0.8659705315
21.02841721,0.07259902954,-0.5941145325,-0.7015910339,0.9222107545
21.03835621,-0.06990463257,-1.549577637,0.3986210632,1.601554327
21.04829621,0.1573228455,-2.982697449,2.476599884,3.880049166
21.05823521,1.288520508,-3.467090149,0.4462220764,3.725602413
21.06817521,3.162623291,-3.785927124,-0.7713459778,4.993035638
21.07811421,5.934559021,-5.065615997,0.09355545044,7.803089698
21.08805421,12.61531631,-9.445208588,10.37013519,18.86525576
21.09799421,16.98443069,-12.36578522,6.390660553,21.95960092
21.10793321,18.13583633,-13.35971832,-4.510570221,22.97250263
21.11787321,24.55179428,-18.40377914,-4.465962982,31.00700751
21.12781221,33.16832611,-26.40359344,1.311572571,42.41471238
21.13775221,39.15916809,-33.47084702,6.31851059,51.90049732
21.14769121,34.89393768,-31.19527908,3.698059845,46.95112321
21.15763121,29.16445221,-26.16154678,4.220772858,39.40566871
21.16757021,27.61277893,-19.10581924,8.20698349,34.56663807
21.17751021,27.15443207,-14.42101135,7.604187012,31.67258135
21.18744921,25.20623337,-11.86268143,6.001769257,28.49734453
21.19738921,23.05341019,-9.307794342,7.287745056,25.90764337
21.20732921,21.25924118,-8.525670776,6.91172699,23.92518271
21.21726821,19.66969666,-8.464298401,4.43108551,21.86723194
21.22720821,17.98450104,-8.228987732,2.715503082,19.96327813
21.23714721,16.2093425,-7.946674805,1.846560059,18.14668589
21.24708721,14.44436279,-7.814499664,0.6301895142,16.43481549
21.25702621,12.89643173,-7.37276825,-0.5216651917,14.86431289
21.26696621,10.94344299,-6.610104218,-2.077380066,12.95252602
21.27690521,8.169112244,-5.532644806,-7.437134399,12.35538431
21.28684521,3.742367706,-3.866459656,-12.37985596,13.49872808
21.29678421,3.378923492,-2.580633545,-5.823939056,7.210759987
21.30672421,1.706750793,-2.17752182,-2.548749847,3.761744985
21.31666421,-0.01287322998,-1.54329071,-0.5801934814,1.648798476
21.32660321,-1.625619507,-1.401984558,1.833387451,2.823031886
21.33654321,-3.434008942,-1.296004944,2.959645386,4.71503415
21.34648221,-5.190755768,-0.9746232605,2.914888458,6.032446491
21.35642221,-6.507567444,-0.479153595,2.119741974,6.860854775
21.36636121,-6.815477142,0.009729766846,1.269809418,6.932765632
21.37630121,-6.945556641,-0.006137237549,1.018332367,7.019814494
21.38624021,-6.948700104,-0.5746549988,1.123114471,7.062297616
21.39618021,-5.416785736,-1.639091492,1.509610748,5.857227436
21.40611921,-3.3522789,-3.05155426,2.235900421,5.054602647
21.41605921,-2.386187897,-4.160597992,3.083437958,5.701934581
21.42599821,-1.661844177,-4.616699524,3.406466217,5.973244734
21.43593821,-1.004561005,-4.218677216,2.935395813,5.236690638
21.44587821,-0.4415817261,-3.126847687,1.998643799,3.737211248
21.45581721,0.001347198486,-1.953886871,0.978664856,2.185282733
21.46575721,0.2246827698,-1.160386963,0.009879455566,1.18198048
21.47569621,0.3438349915,-0.7279362488,-0.6782395935,1.052674038
21.48563621,0.5505551147,-0.1203497314,-0.9244775391,1.08270666
21.49557521,0.8845106506,0.5542973328,-1.029858398,1.466360442
21.50551521,1.046922913,0.9987231445,-1.16427887,1.857159334
21.51545421,1.034798126,1.115630035,-1.363065491,2.042886455
21.52539421,1.047970734,1.087638245,-1.420545959,2.073439276
21.53533321,1.136287079,0.886456604,-1.16427887,1.852700441
21.54527321,1.312021637,0.5339396667,-0.8256829834,1.639586757
21.55521321,1.603764954,0.1164578247,-0.702638855,1.75480079
21.56515146,1.938169556,-0.4712200928,-0.5625302124,2.072435727
21.57509146,2.637066193,-1.604513397,1.267115021,3.336789149
21.58503046,4.153562622,-3.773203583,6.452182617,8.551012119
21.59497046,7.285350037,-5.645061035,8.543483734,12.56718559
21.60490946,12.12538513,-8.085885315,9.994266815,17.67178189
21.61484946,12.56067993,-8.659642181,3.012635193,15.55107886
21.62478846,14.95061005,-10.25412643,-0.5800437927,18.13847569
21.63472846,20.58324692,-12.89732986,-3.521576843,24.54409654
21.64466746,27.93984879,-17.09639786,-2.955005035,32.88850901
21.65460746,35.3754863,-23.9994429,1.609902191,42.77838327
21.66454746,35.55795685,-26.6284259,1.459165649,44.44739054
21.67448646,30.5580542,-26.93379089,2.707719269,40.82346766
21.68442646,27.77878372,-26.90879288,4.972359924,38.99318302
21.69436546,26.40733566,-24.62349518,5.557493134,36.53148808
21.70430546,24.45674194,-19.06106232,5.068160706,31.41882519
21.71424446,21.84018311,-15.35476959,4.963827667,27.15514928
21.72418446,18.70001312,-13.30418381,4.134103088,23.31914677
21.73412346,16.41875702,-12.13017517,3.638633423,20.73538967
21.74406346,15.57600952,-10.95631622,3.20483551,19.31123788
21.75400246,15.27274017,-9.315129089,2.497107239,18.06277296
21.76394246,14.44855408,-7.292385406,1.668280792,16.27030303
21.77388146,13.22275314,-5.237009583,0.9196875,14.25178217
21.78382146,11.47573608,-3.451073456,0.4450245667,11.99168352
21.79376146,9.130712585,-2.162702637,0.2305206299,9.386177858
21.80370046,6.824907532,-1.278341675,0.03787124634,6.943698905
21.81364046,5.137017517,-0.6953041077,0.09624984741,5.184752724
21.82357946,3.829037476,-0.4767585754,0.1179547119,3.86040672
21.83351946,2.307900696,-0.3902384949,0.1224453735,2.34386104
21.84345846,0.6984475708,-0.4614903259,0.1074765015,0.8440103841
21.85339846,-0.7834707642,-0.6785389709,0.03847000122,1.037169954
21.86333746,-2.26179657,-0.8701405334,0.05463638306,2.424015966
21.87327746,-3.799698486,-0.8675958252,0.2034269714,3.902795618
21.88321646,-5.421575775,-0.7979905701,0.7420069885,5.529995227
21.89315646,-6.821464691,-1.149309998,1.482367401,7.074652438
21.90309646,-7.070397034,-2.101929016,2.210453339,7.700306732
21.91303546,-5.422773285,-3.744163971,2.988535309,7.235784493
21.92297546,-3.564986572,-5.483097839,3.67994751,7.504365719
21.93291446,-2.217638397,-6.352190552,3.397784271,7.537452011
21.94285446,-1.050365753,-5.953270111,1.85224823,6.322619452
21.95279346,-0.1432521057,-4.488715668,-0.1724414062,4.494310353
21.96273346,0.5962101746,-2.857557678,-1.699416046,3.377738497
21.97267246,0.9268725586,-2.033371582,-2.161355438,3.108882446
21.98261246,0.7723937988,-1.090182953,-1.811233521,2.25070165
21.99255146,0.4935237122,-0.07454498291,-1.18763031,1.288250116
22.00249146,0.4231700134,0.743354187,-0.4923262024,0.9869313032
22.01243046,0.4258644104,1.272952881,-0.1817221069,1.354545111
22.02237046,0.1716929626,1.409019928,-0.2046244812,1.43411534
22.03231046,-0.01601669312,1.430575104,-0.08202941895,1.433014476
22.04224946,-0.1914518738,1.526525574,0.08068222046,1.54059851
22.05218946,-0.3839515686,1.631008301,0.3237767029,1.706586721
22.06212846,-0.3412902832,1.572330322,0.7363188171,1.769425641
22.07206846,0.0375718689,0.6840774536,1.314865723,1.48264813
22.08200746,0.4857398987,-1.009351044,2.067051544,2.351049737
22.09194746,1.355730743,-2.63976059,3.289259949,4.430075939
22.10188646,2.788401489,-3.766018524,1.252295837,4.850394134
22.11182646,4.704117737,-4.165986786,-1.523681488,6.465738539
22.12176546,7.367529144,-5.502557373,-0.9738748169,9.247002514
22.13170546,13.48949844,-9.461075592,9.354197845,18.94675531
22.14164546,18.11293396,-11.40178986,10.76636124,23.9581661
22.15158446,18.01638474,-10.47536636,-3.686683502,21.16400375
22.16152446,20.31156189,-11.93138855,-4.228856049,23.93325725
22.17146346,23.83074371,-14.64075439,-1.705403595,28.0207858
22.18140346,26.88154953,-18.74596756,2.640359344,32.87857209
22.19134246,26.89097992,-22.59132111,6.256689148,35.6740627
22.20128246,26.66045929,-24.28385147,4.277355194,36.31502856
22.21122146,27.43509842,-25.49079163,3.998485107,37.66235476
22.22116146,26.82676346,-24.73561203,3.285218353,36.63766368
22.23110046,24.48323685,-21.96532288,2.532284088,32.98964623
22.24104046,22.2410495,-18.30872681,3.296894073,28.99557329
22.25097946,20.71976303,-15.54861649,3.967349854,26.20702042
22.26091946,19.22946213,-13.53620132,3.69282074,23.80415689
22.27085946,17.94198944,-11.58875107,3.331472168,21.6174199
22.28079846,16.89761124,-9.364676056,3.114573212,19.56852037
22.29073846,15.4833522,-7.235503693,2.191891937,17.23052812
22.30067746,13.6002681,-5.530249786,0.956660614,14.71278881
22.31061746,11.84861069,-4.287384338,0.1654060364,12.60153161
22.32055646,10.23661285,-3.190465393,-0.06706054688,10.72249081
22.33049646,8.552914124,-2.07453598,0.1160087585,8.801675839
22.34043546,6.896159363,-1.141376495,0.3962260437,7.001196279
22.35037546,5.113516388,-0.6204597473,0.686023407,5.196503465
22.36031446,3.362308044,-0.392334137,0.7382647705,3.464689933
22.37025446,1.59837616,-0.3722758484,0.4348457336,1.697788699
22.38019446,0.08846603394,-0.3447331238,-0.04206253052,0.3583802761
22.39013346,-1.247505798,-0.03457809448,-0.5131329346,1.349359763
22.40007346,-2.459834747,0.2354603577,-0.6072871399,2.544607285
22.41001246,-3.340752869,0.4986131287,-0.1848655701,3.382812448
22.41995246,-4.167932739,0.6397695923,0.4683760071,4.242681291
22.42989146,-4.65457077,0.3626957703,1.10919342,4.798633902
22.43983146,-4.650229797,-0.6277944946,1.705702972,4.992813408
22.44977046,-3.802692261,-2.23140976,2.225871277,4.939044532
22.45971046,-2.826272736,-3.592379608,2.582130432,5.249800605
22.46964946,-2.718347168,-4.273762665,2.620151367,5.702600444
22.47958946,-3.035088501,-4.416416016,2.097588043,5.754682288
22.48952846,-2.746488647,-4.010310516,1.079555054,4.979079176
22.49946846,-1.760638733,-3.14630722,0.001197509766,3.60542637
22.50940846,-0.8177494812,-2.307751007,-0.6846762085,2.542284491
22.51934746,-0.3367996216,-1.714235229,-1.016386414,2.021157527
22.52928746,-0.1814227295,-1.239721985,-1.063388672,1.643356405
22.53922646,-0.15328125,-0.8102650452,-0.9449848938,1.254201353
22.54916646,-0.1907034302,-0.4085005188,-0.8354127502,0.9492918073
22.55910579,-0.2189945984,-0.00419128418,-0.8289761353,0.8574250019
22.56904579,-0.1745370483,0.3623963928,-0.8247848511,0.9176406581
22.57898479,-0.0722996521,0.7089257812,-0.3353027344,0.7875474123
22.58892479,0.2547702026,1.003812561,1.150657196,1.548082523
22.59886379,0.8536747742,0.8705895996,3.323239288,3.539859635
22.60880379,1.280587006,-0.08711883545,5.175487518,5.33227567
22.61874279,1.909878387,-1.523531799,6.469995575,6.915896713
22.62868279,2.748733978,-3.071612549,6.451134796,7.655552383
22.63862279,3.344944153,-4.064647522,2.822530518,5.972996684
22.64856179,5.339546356,-4.820575562,1.358574829,7.320821648
22.65850179,9.21214325,-6.600374451,4.404590607,12.15849269
22.66844079,13.22260345,-9.493408356,4.575984192,16.90862726
22.67838079,17.44172974,-12.99552567,2.000140686,21.84257737
22.68831979,22.30017654,-16.63056656,1.299597473,27.84892406
22.69825979,28.91806458,-21.37779465,1.240171051,35.98336542
22.70819879,35.50002731,-25.95482666,1.76453064,44.01157273
22.71813879,37.60420166,-28.07516739,2.887345734,47.01731353
22.72807779,32.97088669,-27.5082962,5.564079437,43.29832224
22.73801779,24.29477875,-23.09816711,8.403674469,34.55985161
22.74795779,21.337229,-17.18306763,7.069049835,28.29322569
22.75789679,21.55637329,-13.66553238,5.607339478,26.13170987
22.76783679,21.41716278,-11.78334641,5.13896347,24.97901238
22.77777579,21.32764893,-11.46136597,3.678600311,24.49007184
22.78771579,20.70329727,-12.35740265,2.025587769,24.19576252
22.79765479,18.99235519,-12.78775772,1.184337158,22.92681744
22.80759479,16.7335524,-11.909534,0.9958790588,20.5630871
22.81753379,14.51351898,-10.33256332,1.362616425,17.86787121
22.82747379,12.63327896,-8.310717773,2.197729797,15.28063426
22.83741279,10.50530411,-6.215075684,2.862647095,12.53727756
22.84735279,8.412805481,-4.110751648,3.085683289,9.858753295
22.85729179,6.315816193,-2.175725555,2.748883667,7.223550186
22.86723179,4.16553772,-1.339414673,2.126178589,4.864809508
22.87717179,2.330952759,-1.170416107,1.347198486,2.935670007
22.88711079,0.8416996765,-0.9473799133,0.7075785828,1.451431878
22.89705079,-0.2444416809,-0.4821473694,0.2270777893,0.5863293815
22.90698979,-1.436113586,-0.1020877075,-0.1981878662,1.453314337
22.91692979,-2.734962616,0.2005828857,-0.6144721985,2.810307828
22.92686879,-3.818259888,0.5776487732,-0.6589297485,3.917521549
22.93680879,-4.529880066,0.7994874573,-0.602946167,4.639238912
22.94674779,-4.725523224,0.735869751,-0.3335064697,4.794090174
22.95668779,-4.633614349,0.1996847534,0.8640032959,4.717706819
22.96662679,-4.377496948,-0.9942324829,2.401156769,5.090828183
22.97656679,-3.882925415,-3.107537842,3.973038025,6.365448324
22.98650579,-3.47053299,-4.864733734,5.178181915,7.907199345
22.99644579,-2.962190094,-5.536237335,4.941524048,7.990191105
23.00638579,-2.140698395,-5.298232269,3.299438782,6.598496122
23.01632479,-1.43566452,-4.265230408,1.59598114,4.774984696
23.02626479,-0.6298901367,-2.931503906,0.4622387695,3.033832793
23.03620379,-0.07065307617,-2.071542206,-0.2906954956,2.093031973
23.04614379,0.1657054138,-1.631307678,-0.7110214233,1.787225361
23.05608279,0.2469863892,-1.166973267,-0.9452842712,1.521969525
23.06602279,0.2884501648,-0.6212081909,-1.242266693,1.418566054
23.07596179,0.2839595032,-0.1067280579,-1.605860596,1.634261953
23.08590179,0.399818573,0.2956352234,-1.769769745,1.838298133
23.09584079,0.5510041809,0.4237687683,-1.792073364,1.9221635
23.10578079,0.3969744873,0.5108876038,-1.736089783,1.852728426
23.11571979,0.06556365967,0.6608757019,-1.673968964,1.800896271
23.12565979,0.0845741272,0.6119274902,-1.748364258,1.854288439
23.13559979,0.6737489319,0.2324665833,-1.71303772,1.855391216
23.14553879,1.435065765,-0.4574487305,-1.491947479,2.12004254
23.15547879,2.174078979,-1.268611908,-1.257085876,2.813584988
23.16541779,3.109932861,-2.252665558,-1.034199371,3.97690242
23.17535779,5.235213318,-3.855083313,2.902164917,7.119809481
23.18529679,11.16543137,-6.909481659,19.22332489,23.27969102
23.19523679,18.80030457,-9.921069031,22.74041107,31.1288509
23.20517579,18.46215775,-10.50455566,4.625680847,21.73922449
23.21511579,18.79341888,-11.62452667,-3.691174164,22.40417328
23.22505479,23.54379044,-14.40634186,-5.053341522,28.06045285
23.23499479,29.27088089,-17.55040375,-4.778962097,34.46214762
23.24493379,32.70024948,-21.07632156,-2.336191864,38.97403545
23.25487379,31.91333588,-29.56217514,10.3407962,44.7137034
23.26481379,25.97922592,-28.93722473,7.264543304,39.56079807
23.27475279,25.77579895,-26.41437103,2.26643692,36.97631059
23.28469279,26.70611435,-23.2629744,8.797655182,36.49357831
23.29463179,24.32232147,-17.07693832,7.687863007,30.6969116
23.30457179,21.1939769,-13.52632187,4.396208038,25.52396296
23.31451079,18.58639938,-11.60342056,4.145928497,22.29982811
23.32445079,16.1588974,-10.44782364,3.890409851,19.63166505
23.33438979,14.51292023,-9.529034271,4.203109589,17.86318779
23.34432979,13.77480515,-8.317453766,4.760999451,16.78071541
23.35426879,13.25792999,-7.155569916,4.579127655,15.74621537
23.36420879,11.94695618,-5.451214142,3.668571167,13.63465848
23.37414779,10.01073257,-3.692221985,2.327210541,10.92076823
23.38408779,7.840844879,-2.269879761,0.9958790588,8.223319138
23.39402779,5.661377106,-1.399140472,0.2053729248,5.835320285
23.40396679,3.83083374,-0.7884104919,-0.07753875732,3.911890912
23.41390679,2.179467773,-0.2986289978,-0.1951940918,2.208474539
23.42384579,0.4749623108,-0.07708969116,-0.3617976379,0.6020212189
23.43378579,-1.581012268,-0.1398092651,-0.8313711548,1.791737821
23.44372479,-3.918850708,-0.5307962036,-1.955832825,4.411849671
23.45366479,-5.917045441,-1.064286804,-2.628384247,6.561443202
23.46360379,-6.671626282,-1.43222168,-1.723665619,7.037959885
23.47354379,-6.543043671,-1.583706665,-0.7550299072,6.774187585
23.48348279,-6.460864563,-2.062710571,0.1721420288,6.784333326
23.49342279,-5.629643097,-2.590363312,1.302142181,6.332332725
23.50336279,-4.153862,-3.209775238,1.851799164,5.566541721
23.51330179,-2.664758606,-3.721710663,2.204615479,5.080590329
23.52324179,-1.428778839,-3.736978912,2.289039917,4.60935181
23.53318079,-0.5164260864,-3.238216095,1.866468658,3.773121338
23.54312079,-0.09340576172,-2.449655914,1.192570038,2.726125828
23.55305979,-0.06227050781,-1.635948029,0.4629872131,1.701340862
23.56299979,-0.1281335449,-0.987197113,-0.2209405518,1.019701463
23.57293879,-0.07753875732,-0.5878276062,-0.6634204102,0.8897641227
23.58287879,0.04221221924,-0.3522175598,-0.7376660156,0.8185293101
23.59281779,0.1398092651,-0.06855743408,-0.4108955383,0.4394108508
23.60275779,0.04146377563,0.3852987671,0.04580474854,0.3902210394
23.61269679,-0.2402503967,0.8776249695,0.3993695068,0.9937010834
23.62263679,-0.2785707092,1.176253967,0.5152285767,1.314015039
23.63257679,-0.03981719971,1.140178986,0.4085005188,1.211802873
23.64251579,0.3852987671,0.8137078857,0.44697052,1.005165812
23.65245579,0.8520281982,0.1100212097,1.077908478,1.378384345
23.66239479,1.577569427,-0.912203064,2.456691284,3.058786
23.67233479,2.825823669,-2.250270538,5.131628723,6.27555657
23.68227379,4.26029068,-4.126019897,5.596861267,8.15469024
23.69221379,6.582561493,-6.225254517,5.148244171,10.42057233
23.70215279,10.74794952,-8.415350189,7.746840363,15.69554311
23.71209279,14.41756851,-10.27433441,8.325986023,19.56400451
23.72203179,16.65990555,-11.01409607,3.097359009,20.21030425
23.73197179,18.61918121,-11.99186279,-2.777923279,22.32029435
23.74191079,23.01733521,-14.74448868,-3.501967621,27.55832803
23.75185079,28.30972961,-17.75098663,-2.366129608,33.4983117
23.76179079,31.79104019,-22.62934204,3.040327606,39.14078371
23.77172979,31.45169586,-25.25982193,5.371729431,40.69549427
23.78166979,29.05158691,-24.60927475,4.234394531,38.3085004
23.79160879,27.80303329,-23.34245911,7.021299133,36.97536611
23.80154879,26.70267151,-19.18844742,8.402926025,33.93874402
23.81148779,24.30720291,-15.61822174,6.06344101,29.52175944
23.82142779,21.37569901,-13.51763992,5.646408234,25.91387704
23.83136679,19.01121597,-12.89463547,4.796775055,23.46714741
23.84130679,17.87672516,-12.77817764,2.989732819,22.17651074
23.85124579,16.79148193,-11.93108917,2.439477081,20.74260839
23.86118579,15.39129364,-10.08782227,2.704426117,18.60026878
23.87112479,13.89650208,-7.885751495,3.139870605,16.28363086
23.88106479,12.21909027,-5.553301849,3.410058746,13.84824282
23.89100379,10.3315155,-3.352578278,3.145858154,11.30824554
23.90094379,8.31116684,-1.623823242,2.443219299,8.81371753
23.91088379,6.27629837,-0.5990542603,1.564247131,6.495972316
23.92082279,4.39022049,-0.4171824646,0.7435038757,4.472233801
23.93076279,2.927612,-0.3083587646,0.2321672058,2.95294747
23.94070179,1.49539032,-0.04565505981,-0.1580712891,1.504414546
23.95064179,-0.06541397095,0.2445913696,-0.347277832,0.429774148
23.96058079,-1.484163666,0.4767585754,-0.3535647583,1.598451927
23.97052079,-2.860551453,0.6024971008,-0.2817141724,2.936855503
23.98045979,-4.223167877,0.5945635986,-0.612077179,4.308513812
23.99039979,-5.218298492,0.4989125061,-1.28477829,5.397240786
24.00033879,-5.576054535,0.1848655701,-0.5891748047,5.610141389
24.01027879,-5.475912781,-0.8574169922,0.9051676941,5.616058514
24.02021879,-4.647685089,-2.648442535,1.830543365,5.65385829
24.03015779,-3.268902283,-4.446054382,3.219804382,6.389073639
24.04009779,-2.625839539,-5.637127533,4.62418396,7.749536593
24.05003679,-2.264490967,-5.876629486,4.265380096,7.606323739
24.05997679,-1.87559967,-5.233716431,2.52734436,6.107137735
24.06991579,-1.325194244,-3.875590668,0.8536747742,4.183910065
24.07985579,-0.70907547,-2.446512451,-0.2716850281,2.561644774
24.08979479,-0.2341131592,-1.734443207,-0.8192463684,1.932425114
24.09973479,-0.06586303711,-1.217867432,-0.9737251282,1.560666411
24.10967379,-0.05284011841,-0.5551954651,-1.005459137,1.14977483
24.11961379,0.003742218018,0.04565505981,-0.8858578491,0.8870414407
24.12955279,0.1417552185,0.5887257385,-0.596509552,0.8500095192
24.13949279,0.1640588379,0.9948312378,-0.2848576355,1.047734874
24.14943279,0.2444416809,1.142424316,-0.03143463135,1.168705776
24.15937179,0.3478765869,1.280287628,0.1193019104,1.332061364
24.16931179,0.4918771362,1.3350737,0.173638916,1.433358076
24.17925079,0.8361611938,1.339264984,0.4481680298,1.641234542
24.18919079,1.541943512,1.060993652,1.073567505,2.157740603
24.19912979,2.246079254,0.1513352966,1.900597687,2.946191772
24.20906979,3.35467392,-1.413211212,4.505331116,5.792150853
24.21900879,4.814438324,-3.442241821,6.552773438,8.829874566
24.22894879,6.657854919,-4.983287201,4.033961334,9.242998837
24.23888779,9.32905014,-6.756799164,2.430795135,11.77260704
24.24882779,13.99050659,-10.76142151,10.13946487,20.35561877
24.25876679,19.33933365,-14.1351059,8.108039246,25.28935241
24.26870679,23.47702927,-15.57451263,-2.514920197,28.28535258
24.27864579,30.52138046,-19.02693329,-4.237837372,36.21516425
24.28858579,38.87041855,-25.06148438,-1.446442108,46.27180169
24.29852579,40.50636658,-31.4512468,6.147715759,51.65017974
24.30846479,31.71634552,-31.70047852,8.803193665,45.69839308
24.31840479,22.8302243,-29.34258179,10.17509079,38.54528143
24.32834379,20.32024384,-22.72888504,11.46391068,32.57200904
24.33828379,20.85657852,-15.5152359,9.536818085,27.68881203
24.34822279,20.31201096,-11.0548114,7.357050934,24.2675265
24.35816279,18.91601395,-8.789122925,5.243895264,21.50727093
24.36810179,17.21914261,-7.863896942,3.248694305,19.20660725
24.37804179,15.94469284,-7.563022614,1.866468658,17.74587969
24.38798079,14.80556168,-7.293433228,0.9648934937,16.53269017
24.39792079,13.45282471,-6.788982239,0.9300160217,15.09747337
24.40785979,12.02748871,-6.197113037,1.214723969,13.58455921
24.41779979,10.32118698,-5.480553131,0.8171507263,11.7145678
24.42773979,8.335117035,-4.278552704,0.3528163147,9.375748961
24.43767879,6.425088959,-2.934647369,0.5599855042,7.085725586
24.44761879,4.789440308,-2.048639832,0.8967851257,5.285819443
24.45755779,3.045566711,-1.495989075,0.6414161682,3.453241174
24.46749779,1.347198486,-1.118174744,0.3433859253,1.784144729
24.47743679,-0.1745370483,-0.7340734863,0.1908531189,0.7783006987
24.48737679,-1.788929901,-0.3234773254,0.08622070312,1.819984006
24.49731579,-3.247197418,0.0592767334,0.2483335876,3.25721881
24.50725579,-4.696333923,0.3119512939,0.6267466736,4.748228862
24.51719479,-6.089636536,0.2441423035,0.9479786682,6.167815023
24.52713479,-6.940167847,-0.2471360779,0.8348139954,6.994563631
24.53707379,-7.468868408,-1.514849854,0.9264234924,7.677045386
24.54701379,-6.65306488,-3.42832077,1.936223602,7.730822559
24.55695279,-5.076393585,-5.159620514,3.27863205,7.946123822
24.56689329,-4.104165344,-6.461463318,4.271667023,8.765946642
24.57683329,-3.068768463,-6.892566833,3.632047119,8.373564576
24.58677229,-2.071392517,-6.10789856,1.767823792,6.687472821
24.59671229,-1.183738403,-4.54350174,0.04251159668,4.695364938
24.60665129,-0.5477110291,-3.291056213,-0.9322613525,3.464123208
24.61659129,-0.4411326599,-2.412533112,-1.109941864,2.692003897
24.62653029,-0.6486012268,-1.48251709,-0.5806425476,1.719210936
24.63647029,-0.7183561707,-0.4355941772,0.2067201233,0.865165351
24.64640929,-0.3911366272,0.5104385376,0.6686595154,0.9277073403
24.65634929,-0.1065783691,1.121617584,0.4998106384,1.232556542
24.66628829,-0.0005987548828,1.391506348,0.09340576172,1.394637914
24.67622829,0.0715512085,1.463207245,-0.3104544067,1.497490219
24.68616729,0.3423381042,1.569486237,-0.4272116089,1.66222507
24.69610729,0.9274713135,1.596130829,-0.1336720276,1.850865979
24.70604729,1.80075531,1.087189178,1.236578522,2.440046401
24.71598629,2.968926086,-0.2574645996,4.542753296,5.432993432
24.72592629,4.352049866,-2.008074188,7.576494598,8.965264657
24.73586529,6.114634552,-3.300336914,7.65582962,10.33889291
24.74580529,8.4550177,-4.420457611,5.256319427,10.89296396
24.75574429,10.45111679,-5.558391266,2.21030365,12.04188515
24.76568429,13.00480637,-7.330106964,2.419867859,15.12320129
24.77562329,16.70017181,-10.39947418,0.7948471069,19.68950441
24.78556329,22.96973419,-15.31914368,-1.888023834,27.67398572
24.79550229,32.86820023,-23.20220078,0.2257305908,40.23321589
24.80544229,40.94076324,-30.94395172,2.540966034,51.38220267
24.81538129,42.92473755,-34.57285538,2.395318909,55.16840559
24.82532129,32.92223785,-34.24294144,8.971892853,48.34198636
24.83526129,21.44934586,-28.60356857,11.27724884,37.48886387
24.84520029,18.00141586,-19.88165588,7.425907745,27.82939668
