Time (s),Acceleration x (m/s^2),Acceleration y (m/s^2),Acceleration z (m/s^2),Absolute acceleration (m/s^2)
24.85514029,18.93412628,-14.2756636,5.134622498,24.26231765
24.86507929,17.31419495,-11.94815369,3.565585327,21.33666145
24.87501929,15.46030014,-11.85190384,2.589465179,19.65181506
24.88495829,13.68663849,-12.59106674,2.813249817,18.80886518
24.89489829,12.31249603,-12.98220337,2.96847702,18.13689661
24.90483729,11.5047757,-12.36024673,2.730621643,17.10531665
24.91477729,10.77294754,-10.99987564,2.775528259,15.6447186
24.92471629,9.681118011,-9.318122864,3.038231964,13.77615016
24.93465629,8.210875397,-7.448510742,2.913690948,11.46247713
24.94459529,6.708749084,-5.661826172,2.671195221,9.17599443
24.95453529,5.187911682,-4.062252502,2.536924438,7.060616731
24.96447529,3.61094101,-2.8970755,2.359842682,5.196229298
24.97441429,2.303559723,-2.356399841,1.700912933,3.708384071
24.98435429,1.256786499,-2.222578125,0.8595126343,2.694091274
24.99429329,0.4640350342,-2.025587769,0.3423381042,2.106069728
25.00423329,-0.3290158081,-1.569635925,0.009729766846,1.60377773
25.01417229,-1.379231873,-1.043779449,-0.2441423035,1.74681469
25.02411229,-2.534080353,-0.4430786133,-0.3411405945,2.595045047
25.03405129,-3.563639374,0.1474433899,0.003293151855,3.56668978
25.04399129,-4.27436142,0.7399113464,0.6644682312,4.38852508
25.05393029,-4.633913727,1.057850189,1.282083893,4.923001377
25.06387029,-4.73300766,0.8523275757,1.640738068,5.081323175
25.07380929,-4.351900177,0.05598358154,2.201322327,4.877293235
25.08374929,-3.072360992,-1.156345367,2.90066803,4.380686213
25.09368829,-2.131118317,-2.11899353,3.160527649,4.361276634
25.10362829,-1.387165375,-2.589614868,2.831511841,4.080170615
25.11356829,-0.9053173828,-2.550695801,1.992207184,3.360734755
25.12350729,-0.6785389709,-2.171085205,0.9340576172,2.458961109
25.13344729,-0.5041516113,-1.745370483,0.00628692627,1.81673512
25.14338629,-0.4537065125,-1.473835144,-0.7542814636,1.716677069
25.15332629,-0.4328997803,-1.279239807,-1.417402496,1.957775917
25.16326529,-0.4334985352,-1.133293304,-1.78788208,2.160739926
25.17320529,-0.3897894287,-0.9134005737,-1.963167572,2.200059845
25.18314429,-0.4110452271,-0.655486908,-1.934577026,2.083556943
25.19308429,-0.5815406799,-0.4546046448,-1.858235779,1.99947372
25.20302329,-0.705333252,-0.4123924255,-1.743723907,1.925651987
25.21296329,-0.7255412292,-0.6015989685,-1.540746002,1.806164344
25.22290229,-0.622256012,-1.017134857,-1.124611359,1.63905966
25.23284229,-0.3650907898,-1.868863678,0.623303833,2.003609343
25.24278129,0.07050338745,-3.249143372,3.756139069,4.966939106
25.25272129,1.105002136,-4.587061157,4.782704315,6.71836441
25.26266129,4.233795776,-6.443201294,7.167694702,10.52690443
25.27260029,9.418713684,-8.512049103,12.80437317,18.03105986
25.28254029,11.84861069,-8.914562073,11.58455978,18.81650918
25.29247929,13.20224579,-9.848020935,1.08584198,16.50641884
25.30241929,16.90135345,-12.83206558,-3.288062439,21.47391465
25.31235829,27.46548523,-19.58961319,2.480042725,33.82685968
25.32229829,37.37038788,-25.30637512,2.939138031,45.22827704
25.33223729,42.61128937,-29.46996689,4.471950531,52.00191604
25.34217729,41.57903595,-29.83550674,4.302053833,51.35641499
25.35211629,31.35364975,-25.35472458,6.271208954,40.80737033
25.36205629,24.09419586,-18.32219879,10.26595184,31.96283795
25.37199529,22.64371216,-13.33666626,10.97772171,28.48007621
25.38193529,22.34792725,-11.51690048,8.112080841,26.41731827
25.39187529,21.47224823,-11.68559967,3.687881012,24.72268493
25.40181429,20.14510803,-12.09305237,0.1657054138,23.49669661
25.41175429,18.68549332,-11.95264435,-1.125359802,22.20990324
25.42169329,17.01212311,-11.1238179,-1.521735535,20.38301588
25.43163329,14.83325409,-9.853858795,-1.333576813,17.85783826
25.44157229,12.85347107,-8.235873413,-0.4617897034,15.27267426
25.45151229,10.76845688,-6.256539459,0.433049469,12.46160027
25.46145129,8.55336319,-4.276307373,1.389111328,9.663149429
25.47139129,6.519392853,-2.812052307,2.305355988,7.464903722
25.48133029,4.592150574,-2.024839325,2.459235992,5.588887443
25.49127029,2.765499115,-1.800006866,2.056573334,3.888123449
25.50120929,1.060993652,-1.698068848,1.673669586,2.609658067
25.51114929,-0.7547305298,-1.348845062,1.300645294,2.020069146
25.52108929,-3.085982666,-0.7743397522,0.93256073,3.315503066
25.53102829,-5.645959167,-0.4028123474,1.094523926,5.765162212
25.54096829,-7.511679382,-0.4882846069,2.28634552,7.867091256
25.55090729,-8.558452606,-1.194066925,3.435655518,9.29928146
25.56084729,-8.759334869,-2.222428436,3.892505493,9.839549508
25.57078592,-7.258855133,-3.434607697,3.810625763,8.888665624
25.58072592,-3.870201874,-4.027225342,3.002905426,6.341486221
25.59066492,-1.404229889,-3.857628021,2.065404968,4.595547107
25.60060492,-0.08412506104,-3.170407104,1.011147308,3.328810165
25.61054392,0.523611145,-2.181264038,0.1836680603,2.250736633
25.62048392,0.5396278381,-1.366957397,-0.3793112183,1.517777233
25.63042292,0.4282594299,-1.034947815,-0.8870553589,1.428772315
25.64036292,0.4158352661,-0.6137237549,-1.491947479,1.66597812
25.65030192,0.543968811,-0.02649490356,-1.920955353,1.996665599
25.66024192,0.9358538818,0.5950126648,-1.774110718,2.092207303
25.67018192,1.100810852,1.143023071,-1.329535217,2.070253648
25.68012092,0.6824308777,1.51170639,-0.9054670715,1.889666302
25.69006092,-0.002694396973,1.577868805,-0.7125183105,1.731288413
25.69999992,-0.4969665527,1.095571747,-0.3237767029,1.245826858
25.70993992,-0.8520281982,0.4328997803,0.243842926,0.9863131566
25.71987892,-1.139131165,-0.0860710144,0.7161108398,1.348273995
25.72981892,-1.30109436,-0.5683680725,1.1373349,1.81918099
25.73975792,-1.199455719,-1.220861206,1.536854095,2.30024273
25.74969792,-0.9051676941,-2.142794037,2.151475983,3.168555466
25.75963692,-0.7393125916,-3.432961121,3.483106842,4.94609325
25.76957692,-0.5661227417,-5.090314636,5.994284821,7.884367353
25.77951592,0.1407073975,-6.846762085,6.642736359,9.54064442
25.78945592,1.658850403,-7.030430145,0.2312690735,7.227186041
25.79939492,4.36911438,-6.707551575,-2.607577515,8.419018297
25.80933492,9.861941986,-9.01320694,2.303110657,13.55729021
25.81927492,18.01219345,-14.09888123,11.42469223,25.56836243
25.82921392,19.88749374,-15.14610352,-2.877915344,25.16345079
25.83915392,25.34319855,-19.5575798,-3.690276031,32.22413346
25.84909292,34.47226456,-29.94403107,6.511758728,46.12358423
25.85903292,37.67814789,-31.38957504,6.625522156,49.48581406
25.86897192,32.95052902,-26.26064072,6.790329437,42.67865025
25.87891192,27.71501633,-18.62771347,13.18458252,35.9019088
25.88885092,25.41265411,-12.522659,8.177494812,29.48713955
25.89879092,24.88874359,-10.80078964,1.94355835,27.20080943
25.90872992,25.76996109,-9.390123138,3.088227997,27.60076918
25.91866992,25.25593002,-9.204958191,3.117417297,27.06125546
25.92860892,22.570215,-10.77324692,-0.5025050354,25.01459505
25.93854892,20.43939606,-11.21991806,-2.860551453,23.49123724
25.94848792,18.18792801,-10.68897217,-4.111799469,21.49329538
25.95842792,15.33590881,-9.946366425,-4.986730042,18.94697286
25.96836792,12.58687546,-9.002129974,-4.17257309,16.02741851
25.97830692,10.62340851,-7.915539551,-3.059038696,13.59670153
25.98824692,9.081315308,-6.50801651,-1.842219086,11.32335365
25.99818592,7.314389648,-4.968018951,-0.1917512512,8.844109722
26.00812592,5.35197052,-3.829187164,1.792372742,6.820473798
26.01806492,3.336262207,-3.302432556,3.018023987,5.580786243
26.02800492,1.438807983,-2.937641144,2.964585114,4.414597241
26.03794392,0.1076261902,-2.418071594,2.465522919,3.455062502
26.04788392,-0.8487350464,-1.900298309,2.444865875,3.210740412
26.05782292,-2.184108124,-1.440454559,3.072959747,4.035878993
26.06776292,-4.384981384,-1.260528717,4.095483398,6.131066682
26.07770192,-6.882537689,-1.659748535,5.117258606,8.735583889
26.08764192,-7.896379395,-2.164947968,5.028792572,9.608775259
26.09758092,-5.847290497,-3.422931976,4.621489563,8.201550783
26.10752092,-2.748733978,-5.017715607,4.494403839,7.275484469
26.11746092,-0.4837939453,-6.032455444,4.486769714,7.533636422
26.12739992,0.3261717224,-6.18274292,3.881278839,7.307326695
26.13733992,0.1941462708,-5.079237671,1.960323486,5.447863459
26.14727892,0.1326242065,-3.751498718,-0.468974762,3.783023809
26.15721892,0.8437953186,-2.607577515,-2.377356262,3.628122632
26.16715792,0.9777667236,-1.845961304,-3.177741852,3.802846852
26.17709792,0.8443940735,-1.061592407,-3.302282867,3.570021278
26.18703692,0.7577243042,-0.4046086121,-3.234623566,3.3467363
26.19697692,0.523611145,0.1681004333,-3.106490021,3.154791061
26.20691592,0.0462538147,0.5698649597,-2.822530518,2.879854859
26.21685592,-0.3490740967,0.713865509,-2.244881744,2.381375807
26.22679492,-0.5777984619,0.8439450073,-1.537153473,1.846330154
26.23673492,-0.7059320068,0.9765692139,-1.015787659,1.57602411
26.24667392,-0.6786886597,1.099763031,-0.6933581543,1.466575109
26.25661392,-0.48559021,1.103056183,-0.4334985352,1.280801224
26.26655392,-0.1092727661,0.9654922485,-0.2248324585,0.9973291602
26.27649292,0.1432521057,0.7713459778,-0.1143621826,0.7928268992
26.28643292,0.5878276062,0.5008584595,1.375339966,1.577327015
26.29637192,2.065704346,-0.4447251892,8.127798157,8.397977007
26.30631192,2.428400116,-2.177970886,7.506290588,8.184441502
26.31625092,4.722978516,-4.601431274,4.496349792,7.981031092
26.32619092,8.083190918,-6.457870789,4.361929321,11.22802289
26.33612992,11.72272247,-8.490942993,11.12486572,18.25598457
26.34606992,13.70310425,-9.64504303,-1.030756531,16.78881711
26.35600892,17.5948613,-12.18855377,-5.551505585,22.11242188
26.36594892,27.11371674,-19.3505603,-1.918710022,33.36583983
26.37588792,35.91975449,-30.01318726,9.401798859,47.74320887
26.38582792,39.73621811,-33.2587381,8.920399933,52.58026459
26.39576692,36.38109512,-31.29646866,6.096821594,48.3758645
26.40570692,28.96746185,-26.43188461,10.53075119,40.60363396
26.41564692,24.24478271,-18.31246902,9.110055542,31.71985376
26.42558592,23.0306575,-13.72046814,5.152734833,27.29859167
26.43552592,21.87760529,-11.01963455,5.130431213,25.02765037
26.44546492,19.98733612,-11.84816162,1.894909515,23.31229764
26.45540492,18.66304001,-14.12567551,-1.148561554,23.43422635
26.46534392,17.41269012,-15.2604657,-2.207459564,23.2584709
26.47528392,15.39892776,-14.54046295,-2.502046967,21.32632829
26.48522292,13.44953156,-12.26639191,-2.273322601,18.3445432
26.49516292,11.90294769,-9.717342682,-2.056423645,15.5027672
26.50510192,10.3912413,-7.311246185,-1.361269226,12.77831251
26.51504192,8.905880127,-4.998405762,0.1266366577,10.2134616
26.52498092,7.282056885,-2.889441376,1.803300018,8.039223525
26.53492092,5.408403168,-1.463506622,2.884202271,6.301690186
26.54485992,3.603157196,-0.5472619629,3.021915894,4.734365121
26.55479992,1.947300568,-0.2372566223,2.4126828,3.109551173
26.56474042,0.4923262024,-0.1221459961,1.76917099,1.840453946
26.57467942,-0.9671388245,0.1574725342,1.27070755,1.604634782
26.58461942,-2.768792267,0.6024971008,0.8375083923,2.954764573
26.59455842,-4.52359314,1.149459686,0.8937913513,4.75215903
26.60449842,-5.637875977,1.592089233,1.685794373,6.096088608
26.61443742,-5.888305206,1.812730408,2.302212524,6.577105157
26.62437742,-5.731281738,1.397194519,2.743644562,6.505945617
26.63431642,-3.370690613,-0.3541635132,3.669169922,4.994976969
26.64425642,-1.090033264,-2.437830505,4.251159668,5.020313597
26.65419542,-0.4203259277,-3.701053619,4.246519318,5.64866339
26.66413542,-0.2481838989,-3.991000671,3.285667419,5.175450898
26.67407442,-0.2125579834,-3.582500153,1.552272034,3.910119782
26.68401442,-0.0209564209,-2.725981293,-0.1869612122,2.732465494
26.69395342,0.365539856,-1.789528656,-1.291065216,2.236712228
26.70389342,0.2763253784,-1.37249588,-1.774859161,2.260580832
26.71383342,0.009430389404,-1.018182678,-1.993554382,2.238536123
26.72377242,-0.1904040527,-0.7619155884,-1.911075897,2.066151048
26.73371242,-0.2880010986,-0.4237687683,-1.763632507,1.836552265
26.74365142,-0.2204914856,-0.07259902954,-1.608704681,1.625366994
26.75359142,-0.1240919495,0.1802252197,-1.451531525,1.467931779
26.76353042,-0.1490899658,0.3182382202,-1.303339691,1.349888045
26.77347042,-0.3378474426,0.4119433594,-0.960402832,1.098276753
26.78340942,-0.5469625854,0.4022135925,-0.4685256958,0.8249000979
26.79334942,-0.6798861694,0.4005670166,0.290994873,0.8410571647
26.80328842,-0.7469467163,0.2734812927,2.192341003,2.332183631
26.81322842,-0.6373745728,-0.4836442566,3.768712921,3.852707515
26.82316742,-0.2459385681,-1.943708038,5.05947876,5.425570204
26.83310742,0.5590873718,-3.894451447,5.9534198,7.136002948
26.84304742,2.181114349,-5.621859283,2.987487488,6.729609431
26.85298642,3.404370575,-5.350473633,-0.5584886169,6.366256093
26.86292642,6.847809906,-6.826404419,4.04848114,10.48248527
26.87286542,13.24281143,-10.28975235,13.63409775,21.61341434
26.88280542,14.75541595,-12.09859085,1.588047638,19.14732608
26.89274442,16.02492599,-14.36278244,-4.295916595,21.94408057
26.90268442,25.14980072,-22.06306961,-0.9605525208,33.46960081
26.91262342,36.67179062,-32.15613098,3.737877045,48.91634401
26.92256342,43.21962433,-34.61312164,3.783382416,55.50061351
26.93250242,38.92041458,-33.03734848,7.621101837,51.61730581
26.94244242,28.33697296,-24.20960587,10.43839325,38.70463934
26.95238142,23.0903833,-14.66171082,8.577163696,28.66529787
26.96232142,22.24030106,-9.69069809,6.968608704,25.24088207
26.97226042,21.44365768,-7.190597076,6.268065491,23.46963541
26.98220042,20.89310257,-7.164551239,5.463338928,22.753035
26.99213942,20.19749908,-8.554111633,4.490062866,22.38911476
27.00207942,19.10611862,-10.28675858,3.229833527,21.9383909
27.01201942,17.21869354,-11.43008102,2.751128998,20.84943333
27.02195842,14.66635117,-11.27081223,2.510130157,18.66638203
27.03189842,12.28420486,-10.36250107,2.132166138,16.21200944
27.04183742,10.5332959,-8.806786194,1.420545959,13.80317921
27.05177742,8.621770935,-6.906338196,0.5677693176,11.06141055
27.06171642,6.515351257,-4.986280975,0.0002993774414,8.204437827
27.07165642,4.597838745,-3.376079407,-0.1345701599,5.705799016
27.08159542,2.953059082,-2.407743073,-0.1438508606,3.812935577
27.09153542,1.295555878,-1.916764069,-0.1734892273,2.320031905
27.10147442,-0.3206332397,-1.55975647,-0.2609074402,1.61360423
27.11141442,-1.435215454,-1.185684357,-0.5713618469,1.947343101
27.12135342,-2.3927742,-0.8524772644,-0.9583071899,2.714855158
27.13129342,-3.391796722,-0.4851411438,-1.215921478,3.635672149
27.14123242,-4.237687683,-0.07544311523,-1.150357819,4.39169804
27.15117242,-4.667743378,0.2677931213,-0.8343649292,4.749284813
27.16111242,-4.625980225,0.5532495117,-0.3335064697,4.670867652
27.17105142,-4.30474823,0.6072871399,0.4032614136,4.366036505
27.18099142,-3.579656067,0.433049469,1.123563538,3.776753159
27.19093042,-2.497256927,-0.02694396973,1.611997833,2.972466174
27.20087042,-1.52577713,-0.675844574,1.822759552,2.471277832
27.21080942,-0.8433462524,-1.443448334,1.8791922,2.515181766
27.22074942,-0.2195933533,-2.067051544,1.726809082,2.702368023
27.23068842,0.1537303162,-2.310445404,1.421893158,2.717272737
27.24062842,0.1326242065,-2.064506836,0.9815089417,2.289789828
27.25056742,-0.08741821289,-1.512454834,0.4020639038,1.567423667
27.26050742,-0.274379425,-1.069076843,-0.1321751404,1.111611278
27.27044642,-0.200433197,-0.6593788147,-0.6364764404,0.9381130779
27.28038642,0.02574645996,-0.4299060059,-1.074914703,1.157982588
27.29032542,0.08786727905,-0.136665802,-1.08584198,1.097930328
27.30026542,-0.1600172424,0.182769928,-0.7783813477,0.8154065776
27.31020442,-0.3806584167,0.3710783386,-0.577199707,0.7847034251
27.32014442,-0.1781295776,0.3558100891,-0.4444258118,0.5965276759
27.33008442,0.2267784119,0.2448907471,-0.353714447,0.486326882
27.34002342,0.647403717,-0.03667373657,0.2580633545,0.6979063194
27.34996342,2.259551239,-0.4661306763,8.744515686,9.043749454
27.35990242,3.605552216,-2.393073578,11.95608719,12.71514171
27.36984242,4.186793518,-3.664828949,2.073488159,5.937976451
27.37978142,4.584217072,-3.600013733,-2.393672333,6.301175468
27.38972142,7.204069061,-5.067262573,-1.759441223,8.981725583
27.39966042,11.81777481,-8.369844818,2.397264862,14.67858926
27.40960042,16.79657135,-12.20876175,1.055604858,20.79165636
27.41953942,23.56100464,-17.65413803,-0.4742138672,29.44510839
27.42947942,32.24983612,-25.43660431,0.9969268799,41.08608806
27.43941842,38.82221878,-30.82704483,0.775537262,49.57895544
27.44935842,39.04944626,-35.24825089,4.506528625,52.79779582
27.45929742,30.20658508,-32.5195752,7.099885712,44.94851422
27.46923742,23.26521973,-25.36654999,8.23033493,35.39026307
27.47917742,22.8276796,-17.20312592,7.697742462,29.60246165
27.48911642,23.76353348,-13.20553894,6.528224487,27.95906824
27.49905642,22.39013947,-10.24499542,6.476132812,25.46013693
27.50899542,20.43251038,-9.090745697,5.78022995,23.09848904
27.51893542,18.38416992,-8.962761841,3.524720306,20.75409494
27.52887442,16.50422928,-8.244705048,1.844165039,18.54091934
27.53881442,14.74763214,-7.325167236,0.7695497131,16.48462725
27.54875342,12.76066406,-6.912026367,-0.4315525818,14.51884615
27.55869342,10.80498093,-6.643185425,-1.241218872,12.74441641
27.56863204,8.97803009,-6.145171051,-1.878743134,11.04073491
27.57857204,6.822512512,-5.431754608,-2.263143768,9.009575729
27.58851104,4.419709167,-4.535568237,-1.891766052,6.609386292
27.59845104,2.554737396,-3.529809723,-0.9102571106,4.45138269
27.60839004,1.070424042,-2.711760864,-0.1889071655,2.921496283
27.61833004,-0.357456665,-1.839075623,0.07843688965,1.875133798
27.62826904,-1.38536911,-1.081650696,0.4188290405,1.8068297
27.63820904,-2.287692719,-0.3276686096,0.5646258545,2.379013881
27.64814904,-3.324436798,0.4230203247,0.5978567505,3.404153186
27.65808804,-4.339326324,0.9744735718,0.5779481506,4.484793837
27.66802804,-5.238955536,1.060544586,0.7400610352,5.396211658
27.67796704,-5.649851074,0.7595205688,1.095122681,5.804910192
27.68790704,-4.98807724,-0.1496887207,1.999541931,5.376010528
27.69784604,-3.725752258,-1.612746277,3.307671661,5.236685236
27.70778604,-2.813848572,-3.443888397,4.588108978,6.389746088
27.71772504,-2.095043335,-4.821024628,5.109325104,7.330531226
27.72766504,-1.523531799,-5.278623047,4.359384613,7.013504446
27.73760404,-1.399290161,-4.967120819,2.829116821,5.885083192
27.74754404,-1.389261017,-4.028123474,1.360520782,4.472900814
27.75748304,-1.050066376,-2.858755188,0.5351371765,3.092166298
27.76742304,-0.6084846497,-1.941462708,0.1239422607,2.03835539
27.77736204,0.008232879639,-1.110540619,-0.2646496582,1.141668817
27.78730204,0.6358776855,-0.3902384949,-0.7394622803,1.050443229
27.79724204,0.9806108093,0.1760339355,-1.19002533,1.552013464
27.80718104,1.210532684,0.537532196,-1.532363434,2.025454995
27.81712104,1.3350737,0.6539900208,-1.65211441,2.222522611
27.82706004,1.177451477,0.630788269,-1.649120636,2.122235777
27.83700004,1.182091827,0.3909869385,-1.471440125,1.927523778
27.84693904,1.444496155,0.02978805542,-1.347198486,1.975449374
27.85687904,1.667981415,-0.4302053833,-1.296154633,2.155749406
27.86681804,1.922901306,-1.060843964,-1.190175018,2.497890294
27.87675804,2.509980469,-1.967209167,-0.390687561,3.212872645
27.88669704,4.469405823,-4.219874725,7.840395813,9.962667194
27.89663704,8.710536346,-7.204667816,15.43380524,19.13068284
27.90657604,11.87555466,-8.966504059,9.992470551,17.92418649
27.91651604,12.67025208,-9.348060608,0.5951623535,15.75676816
27.92645504,17.59590912,-11.77002411,1.386117554,21.21487231
27.93639504,24.310047,-13.98362091,-1.495090942,28.08478833
27.94633404,32.68947189,-18.38881027,-1.140927429,37.52401406
27.95627404,38.38288239,-24.00393356,8.080795898,45.98623434
27.96621404,36.85276428,-24.65268448,8.404422913,45.12776764
27.97615304,30.12260971,-23.55606491,6.468648376,38.78276965
27.98609304,26.36347687,-21.76144684,9.800719299,35.56188381
27.99603204,24.37725723,-17.53992554,7.72723114,31.00983327
28.00597204,22.2437439,-14.45633789,5.897735596,27.17633406
28.01591104,20.00395157,-13.88901764,4.903952179,24.84173175
28.02585104,18.38162521,-14.71140747,1.665586395,23.60262344
28.03579004,17.12483871,-15.54457489,-0.1273851013,23.12812436
28.04573004,15.72045914,-15.61268326,-0.5739065552,22.16344023
28.05566904,13.48291214,-14.78176117,-0.6201603699,20.01684246
28.06560904,11.12082413,-12.76859756,-0.2065704346,16.93376758
28.07554804,9.026379547,-10.07105713,0.4977149963,13.53327158
28.08548804,7.303612061,-7.313491516,1.38072876,10.42767084
28.09542704,5.880371704,-4.653073883,2.38933136,7.87011895
28.10536704,4.547243958,-2.174378357,3.179987183,5.959670069
28.11530604,3.176694031,-0.2137554932,3.34883606,4.62079856
28.12524604,1.860630798,0.8774752808,2.908451843,3.562443257
28.13518604,0.8599617004,1.331780548,2.298170929,2.791910309
28.14512504,0.314046936,1.491498413,1.850601654,2.397481903
28.15506504,-0.3421884155,1.459015961,1.320553894,1.997419103
28.16500404,-1.227148132,1.504072266,0.8988807678,2.139185021
28.17494404,-2.188898163,1.710493011,0.3885919189,2.805007164
28.18488304,-2.951562195,1.998943176,0.1157093811,3.56663453
28.19482304,-3.293002167,2.172432404,0.5758525085,3.986844859
28.20476204,-3.039279785,2.009571075,1.635349274,3.993740698
28.21470204,-2.087259521,1.293609924,2.647394714,3.610924774
28.22464104,-0.9385482788,-0.3727249146,3.061733093,3.223973677
28.23458104,-0.2236349487,-2.198178864,3.198099518,3.887138206
28.24452004,0.02499801636,-3.384012909,3.307072906,4.731690974
28.25446004,-0.2035766602,-3.969894562,2.986589355,4.972044073
28.26439904,-0.8418493652,-4.088148651,1.942061462,4.603615152
28.27433904,-1.363364868,-3.790268097,0.5983058167,4.07220651
28.28427904,-1.477128296,-3.181035004,-0.6402186584,3.565216912
28.29421804,-1.352736969,-2.633473663,-1.347348175,3.252756976
28.30415804,-1.225501556,-2.296674042,-1.707798615,3.113381092
28.31409704,-0.9415420532,-1.867067413,-1.912273407,2.833589905
28.32403704,-0.5001100159,-1.34555191,-1.910926208,2.390033252
28.33397604,-0.1478924561,-0.8463400269,-1.844165039,2.034479862
28.34391604,-0.01901046753,-0.4502636719,-1.863624573,1.91734069
28.35385504,0.001796264648,-0.1713935852,-1.892514496,1.900260536
28.36379504,0.06541397095,-0.1112187195,-1.787283325,1.791934786
28.37373404,0.1501377869,-0.2838098145,-1.694925385,1.725068528
28.38367404,0.04355941772,-0.6477030945,-1.728904724,1.846761562
28.39361304,0.2345622253,-1.347198486,-1.494043121,2.025371089
28.40355304,1.03554657,-2.242636414,-0.4722679138,2.514917844
28.41349204,3.177292786,-3.622017975,6.16522934,7.824593054
28.42343204,7.651937714,-3.52427124,11.05106918,13.8959983
28.43337104,11.51944519,-4.204307098,10.43180695,16.099578
28.44331104,11.16782639,-5.9826091,1.48251709,12.75577574
28.45325104,12.50813919,-7.832162933,-2.56716156,14.97954074
28.46319004,19.95605118,-11.99365906,1.688039703,23.34397812
28.47313004,30.70684479,-18.54763,4.655618591,36.17457229
28.48306904,40.703806,-25.42223419,5.697452087,48.3275364
28.49300904,42.51593765,-29.39452377,4.747976532,51.90555137
28.50294804,39.31409592,-30.14162018,3.187022552,49.64143952
28.51288804,29.23061462,-28.95967804,5.165757751,41.47019215
28.52282704,21.51535858,-23.81966675,5.571713562,32.57807807
28.53276704,20.95013397,-17.23770401,6.48227005,27.89384122
28.54270604,21.27630569,-12.90451492,6.654711456,25.75835542
28.55264604,20.8502916,-10.01357666,6.382577362,23.99465922
28.56258504,20.11322433,-8.189769287,5.733976135,22.46091264
28.57252504,18.70659943,-7.637567596,3.5898349,20.52209091
28.58246404,16.59628784,-7.376061401,1.944755859,18.26540794
28.59240404,14.0753801,-6.885381775,1.030457153,15.70307769
28.60234304,11.59084671,-6.158792725,0.2279759216,13.12746847
28.61228304,9.096882935,-5.316494293,-0.603993988,10.55382392
28.62222304,6.714287567,-4.346361694,-1.020428009,8.063112974
28.63216204,4.589605865,-3.419189758,-1.042132874,5.817334573
28.64210204,2.669698334,-2.769091644,-0.9919871521,3.972303644
28.65204104,0.9324110413,-2.431094513,-1.006656647,2.791588882
28.66198104,-0.2752775574,-2.279759216,-0.9466314697,2.48378561
28.67192004,-1.076261902,-2.161654816,-0.4692741394,2.459940943
28.68186004,-2.071691895,-2.136806488,0.04999603271,2.976633816
28.69179904,-3.519181824,-1.907483368,0.1091230774,4.004377774
28.70173904,-4.741689606,-1.539099426,0.3653901672,4.998595536
28.71167804,-5.642216949,-1.330133972,0.8756790161,5.862651467
28.72161804,-6.148913269,-1.297202454,1.138233032,6.386504759
28.73155704,-5.885760498,-1.588496704,1.335971832,6.24101908
28.74149704,-4.479434967,-2.282154236,2.507585449,5.617966747
28.75143604,-2.655028839,-3.125051422,4.144880676,5.830536883
28.76137604,-0.9240284729,-3.737727356,5.394182739,6.627340479
28.77131604,0.04086502075,-3.700005798,5.407654724,6.552437903
28.78125504,-0.123792572,-3.093467102,3.801494751,4.902675357
28.79119504,-0.5773493958,-2.236349487,1.768272858,2.908845175
28.80113404,-0.6471043396,-1.394649811,0.1435514832,1.544149976
28.81107404,-0.2713856506,-0.8922944641,-0.8876541138,1.287543944
28.82101304,0.1856140137,-0.676892395,-1.479673004,1.637702072
28.83095304,0.2977308655,-0.1938468933,-1.65570694,1.693394743
28.84089204,0.1923500061,0.2694396973,-1.569486237,1.604020986
28.85083204,0.08158035278,0.4867877197,-1.389111328,1.47419399
28.86077104,-0.001197509766,0.6081852722,-1.060245209,1.222297289
28.87071104,0.01481918335,0.8186476135,-0.4909790039,0.9547061881
28.88065004,0.0296383667,1.033301239,0.116308136,1.040248752
28.89059004,0.08307723999,1.050066376,0.3894900513,1.123051077
28.90052904,0.1752854919,0.6661148071,0.1311273193,0.7011621167
28.91046904,0.2676434326,-0.00628692627,-0.516126709,0.5814286819
28.92040804,0.5243595886,-0.7923023987,-0.9922865295,1.373800796
28.93034804,1.032552795,-1.681902466,-1.07057373,2.245237024
28.94028804,2.078577576,-3.324287109,1.212927704,4.103969193
28.95022704,5.037025452,-6.146069183,9.084009705,12.06917661
28.96016704,9.336833954,-7.855214996,7.820487213,14.49278756
28.97010604,13.02052368,-9.440568237,2.092648315,16.21843219
28.98004604,15.12365021,-10.85991669,-2.139500885,18.74139936
28.98998504,21.31268005,-14.8848967,-3.07849823,26.17761701
28.99992504,32.96130661,-22.56183243,-0.1517843628,39.9437987
29.00986404,46.63147934,-32.90711929,5.136119385,57.30404076
29.01980404,48.16204651,-35.20304489,2.696193237,59.71688665
29.02974304,39.10542984,-32.62226166,5.246290283,51.19541152
29.03968304,31.09588577,-25.6225177,10.34378998,41.59881629
29.04962204,26.70536591,-16.46471146,10.45830185,33.07021876
29.05956204,24.75477219,-11.01679047,7.908204803,28.22601852
29.06950104,21.85560104,-7.517068176,6.482868805,24.00419128
29.07944104,19.1276738,-6.405180359,4.994214478,20.78067416
29.08938004,17.29608261,-7.122039642,3.159479828,18.96998248
29.09932004,16.28972534,-8.766669617,1.983076172,18.60489825
29.10926004,15.05928406,-9.615105286,0.9945318604,17.8947305
29.11919904,13.62466736,-9.107810211,0.1320254517,16.38905727
29.12913904,11.59967834,-7.817194061,-0.536484375,13.99817403
29.13907804,9.12547348,-6.385271759,-0.6224057007,11.15496977
29.14901804,6.574627991,-5.165009308,-0.4203259277,8.371363584
29.15895704,3.835324402,-4.099824371,-0.5578898621,5.641765171
29.16889704,1.027613068,-3.009342041,-1.005459137,3.335127616
29.17883604,-1.126707001,-1.962868195,-1.297801208,2.608947717
29.18877604,-2.380799103,-1.287322998,-0.7864645386,2.818498064
29.19871504,-3.450175323,-0.812510376,0.195643158,3.549951988
29.20865504,-4.673132172,-0.4324507141,0.6454577637,4.737277028
29.21859404,-5.432802429,-0.1553768921,0.9178912354,5.511987712
29.22853404,-5.911956024,0.06840774536,1.004261627,5.997036357
29.23847304,-6.085744629,0.1567240906,1.266815643,6.218172722
29.24841304,-6.062842255,0.2639012146,1.484762421,6.24757709
29.25835204,-5.137316895,0.2637515259,1.196761322,5.281460726
29.26829204,-3.084785156,-0.3589535522,1.331331482,3.378933357
29.27823204,-1.458117828,-1.418450317,2.211950226,3.005134391
29.28817104,-0.6346801758,-2.363135834,2.676434326,3.626366032
29.29811104,-0.1579216003,-2.731220398,2.436782684,3.663661276
29.30805004,-0.01751358032,-2.431992645,1.750010834,2.996236451
29.31799004,0.1315763855,-1.722617798,0.972228241,1.982410698
29.32792904,0.5367837524,-0.8422984314,0.4252656555,1.08556636
29.33786904,0.8062234497,-0.06616241455,0.1628613281,0.825165152
29.34780804,1.029259644,0.3737727356,-0.08756790161,1.098521556
29.35774804,1.060993652,0.7659571838,-0.3704795837,1.360019507
29.36768704,0.8271798706,1.06713089,-0.4665797424,1.428527749
29.37762704,0.590072937,1.154698792,-0.3192860413,1.335462072
29.38756604,0.4731660461,1.093925171,-0.1945953369,1.207652985
29.39750604,0.4104464722,0.9382489014,-0.2499801636,1.05416668
29.40744504,0.3908372498,0.7141648865,-0.3932322693,0.9041110875
29.41738504,0.5450166321,0.3860472107,-0.5180726624,0.8452661484
29.42732404,0.7222480774,-0.1450483704,-0.5698649597,0.9313578192
29.43726404,0.8137078857,-0.789458313,-0.5935157776,1.279697593
29.44720304,0.8804690552,-1.483265533,-0.5978567505,1.825578016
29.45714304,0.9921368408,-2.938688965,1.107696533,3.293511796
29.46708304,1.764979706,-5.518723755,5.673651581,8.109364186
29.47702204,5.266647949,-6.340365143,5.016368408,9.648925472
29.48696204,12.25756027,-8.824299774,12.79344589,19.79364312
29.49690104,16.06788666,-10.10877869,11.22096588,22.05163176
29.50684104,15.73393112,-10.68433182,-1.735491028,19.09773453
29.51678004,20.35437286,-14.37400909,-5.092709656,25.433213
29.52672004,30.52646988,-19.94736923,-4.337829437,36.72301277
29.53665904,42.24245636,-28.75340698,0.818946991,51.106303
29.54659904,44.54002853,-31.45932999,3.724554749,54.65689246
29.55653804,35.58624802,-28.88079208,5.47127243,46.1564299
29.56647746,24.47515366,-24.27651672,10.19544846,35.9489858
29.57641646,21.0519223,-17.27811996,11.30868347,29.48903498
29.58635646,22.00738541,-12.92382477,9.779313812,27.33103067
29.59629546,22.12444199,-10.46174469,9.430239716,26.22724645
29.60623546,20.90178452,-10.13407608,7.023694153,24.26759925
29.61617446,19.47809509,-10.97712296,4.119732971,22.73467872
29.62611446,18.44659012,-11.33098709,3.593876495,21.94502002
29.63605446,16.66619247,-11.16827545,4.017794952,20.46057244
29.64599346,14.24333084,-10.24319916,3.029849396,17.80380829
29.65593346,11.76104279,-8.70544693,1.503473511,14.7094312
29.66587246,9.491013336,-6.83568512,0.3032693481,11.7003375
29.67581246,7.090455322,-5.219496002,-0.5893244934,8.824114604
29.68575146,4.789589996,-3.925287323,-1.047671356,6.280578649
29.69569146,2.392474823,-2.66550705,-1.322499847,3.818097623
29.70563046,0.4011657715,-1.371597748,-1.365909576,1.976846815
29.71557046,-1.287322998,-0.6336323547,-1.350042572,1.970102893
29.72550946,-2.493514709,-0.3441343689,-1.079854431,2.739001581
29.73544946,-2.982248383,-0.2341131592,-0.5748046875,3.046147537
29.74538846,-3.06802002,-0.07394622803,-0.3344046021,3.087076501
29.75532846,-3.361409912,0.1465452576,-0.4517605591,3.394795975
29.76526746,-3.955075378,0.3014730835,-0.5170248413,4.000102743
29.77520746,-4.320166168,0.456101532,-0.4161346436,4.364061454
29.78514646,-4.195176086,0.526305542,-0.2064207458,4.233096909
29.79508646,-3.664080505,0.4004173279,0.0556842041,3.686315331
29.80502646,-2.548300781,-0.1818717957,0.4171824646,2.588620372
29.81496546,-1.754800873,-1.011296997,0.9205856323,2.224752936
