Time (s),Acceleration x (m/s^2),Acceleration y (m/s^2),Acceleration z (m/s^2),Absolute acceleration (m/s^2)
19.88376433,4.322112122,1.119222565,-1.071022797,4.59133991
19.89370333,4.362528076,0.630788269,-0.7571255493,4.472447222
19.90364333,4.440066833,0.0940045166,-0.4198768616,4.460866162
19.91358233,4.689897308,-0.5903723145,-0.1782792664,4.730270577
19.92352233,5.23491394,-1.734592896,-0.1233435059,5.516189817
19.93346133,6.276597748,-3.627556458,-0.2514770508,7.253832494
19.94340133,7.67454071,-6.412664795,-0.5471122742,10.01599604
19.95334033,9.30689621,-9.898615723,-0.8876541138,13.61575705
19.96328033,11.86552551,-14.19842422,-1.329535217,18.55137758
19.97321933,16.26382919,-19.94257919,-1.648222504,25.78633829
19.98315933,21.60906372,-26.74982346,-1.801054688,34.43469889
19.99309833,22.64326309,-28.58111526,-1.412462769,36.49099292
20.00303833,22.04884918,-28.3444574,-1.004561005,35.92449246
20.01297733,25.01567963,-31.92201782,-0.4520599365,40.55864652
20.02291733,25.8707016,-32.89304855,1.207239532,41.86529913
20.03285633,23.29665436,-29.60932709,3.121907959,37.80466458
20.04279633,20.50974976,-25.79076782,4.660109253,33.27957569
20.05273533,18.66498596,-22.38205627,6.066285095,29.76806945
20.06267533,17.70563095,-19.26239365,7.279661865,27.1573683
20.07261433,17.53438705,-16.43163025,8.271948395,25.41413646
20.08255433,17.37077728,-13.85922958,8.827443237,23.91120871
20.09249333,16.86917038,-11.35673355,8.514294434,22.04625855
20.10243333,15.51089493,-9.058412933,7.152127075,19.33379497
20.11237233,13.38471634,-6.97953598,4.762945404,15.82877768
20.12231233,11.21617584,-4.567451935,1.457369385,12.19787454
20.13225133,8.945397949,-2.259102173,-2.107018433,9.463784326
20.14219133,6.951095123,-0.4427792358,-5.523364105,8.889394125
20.15213033,5.813311157,1.45437561,-8.786278839,10.63524757
20.16207033,4.524790649,3.45990509,-12.8955336,14.09749838
20.17200933,0.8948391724,4.828509064,-19.11315399,19.73392745
20.18195262,-2.494412842,4.211043091,-21.88793381,22.42847801
20.19189162,-1.582658844,2.761906586,-16.68505325,16.98599244
20.20183163,0.08996292114,2.630779266,-9.216484222,9.585023438
20.21177062,-0.1258882141,2.585573273,-4.92371109,5.562730255
20.22171063,-1.727856903,1.958826599,-2.059417419,3.326212746
20.23164962,-2.977009277,1.128652954,0.44697052,3.214999903
20.24158963,-4.281845856,1.494492188,1.814077606,4.884525401
20.25152963,-5.113666077,2.432890778,2.026485901,6.014580899
20.26146863,-5.084626465,2.866539001,2.671644287,6.41935786
20.27140863,-4.080963593,2.544109497,2.906655579,5.619199554
20.28134763,-2.486778717,1.817221069,2.476450195,3.952109104
20.29128763,-0.9273216248,1.229842529,1.803599396,2.371794431
20.30122663,0.299078064,1.141526184,1.22160965,1.698487519
20.31116663,1.220112762,1.301842804,0.7194039917,1.92380143
20.32110563,1.791923676,1.503024445,0.2972817993,2.357636403
20.33104563,2.191442871,1.689686279,-0.02514770508,2.767326144
20.34098463,2.717299347,1.981130219,-0.3338058472,3.379351865
20.35092463,3.149300995,2.284249878,-0.559536438,3.93051845
20.36086363,3.453468475,2.496358795,-0.6655160522,4.312906602
20.37080363,3.759132843,2.576142883,-0.6903643799,4.60914253
20.38074263,4.202061768,2.556833038,-0.6155200195,4.957174919
20.39068263,4.885241089,2.217488708,-0.5150788879,5.389632912
20.40062163,5.763464813,1.113833771,-0.3942800903,5.883333163
20.41056163,6.820117493,-0.8144563293,-0.3225791931,6.876147109
20.42050063,8.135282593,-3.503464508,-0.2287243652,8.860553101
20.43044063,9.685009918,-7.082821198,-0.2477348328,12.00113102
20.44037963,11.53591095,-11.75041489,-0.4146377563,16.47183705
20.45031963,14.65572327,-17.08996124,-0.8464897156,22.5293929
20.46025863,20.28147446,-23.67132523,-1.562151489,31.21073792
20.47019863,27.70618469,-31.4338829,-2.362237701,41.96786666
20.48013763,29.45035767,-31.3291008,-2.347867584,43.06214818
20.49007762,30.07740372,-30.16467224,-2.268233185,42.65797168
20.50001663,31.51202042,-30.08728317,-2.294877777,43.62933077
20.50995662,30.49144272,-28.04403214,-1.701960754,41.46194023
20.51989563,27.74570251,-24.61870514,-0.7119195557,37.10001995
20.52983562,24.55613525,-21.2152327,0.519868927,32.45551017
20.53977463,22.12010101,-18.50586685,2.158661041,28.92102685
20.54971462,20.32233948,-16.17700974,3.92917923,26.27035545
20.55965363,18.45003296,-13.68080063,5.450016632,23.60658178
20.56959362,16.25409943,-11.33053802,6.434818726,20.83227621
20.57953263,13.84875137,-9.195378113,6.699618073,17.92282834
20.58947262,11.40268799,-6.893764343,6.106401672,14.65719692
20.59941163,8.979976044,-4.201612701,4.302802277,10.8077577
20.60935162,6.585555267,-1.742526398,1.456022186,6.96605606
20.61929063,4.509672089,-0.155975647,-1.567989349,4.777034786
20.62923062,2.73795639,0.790506134,-4.092190247,4.986714967
20.63916963,1.222657471,1.619182892,-5.868097229,6.20896204
20.64910962,-0.6048921204,2.385738831,-7.923922119,8.297360182
20.65904863,-3.052302704,3.153941345,-10.39977356,11.2880108
20.66898862,-4.856351166,3.528761902,-11.671978,13.12521914
20.67892763,-5.000052338,3.203488312,-10.83970871,12.35969845
20.68886762,-4.516108704,2.686164093,-8.371341705,9.883829081
20.69880663,-4.353097687,2.314786377,-5.723797302,7.554439158
20.70874662,-4.614603882,1.86512146,-3.949836273,6.35408952
20.71868563,-5.121898956,1.06593338,-2.939886475,6.00108285
20.72862562,-5.744604034,0.2387535095,-2.503843231,6.271101153
20.73856463,-6.023773499,-0.2008822632,-2.422412567,6.495712701
20.74850462,-5.6269487,-0.1823208618,-2.37645813,6.11092021
20.75844363,-4.536017303,0.07679031372,-2.197280731,5.04077299
20.76838362,-2.871179352,0.375718689,-1.829196167,3.425024674
20.77832263,-1.113235016,0.6432124329,-1.372944946,1.880955146
20.78826262,0.4180805969,0.7747888184,-1.027613068,1.353173202
20.79820163,1.638792114,0.7946974182,-0.6041436768,1.918898945
20.80814162,2.519560547,0.7934999084,-0.1112187195,2.64389808
20.81808063,3.090623016,0.8268804932,0.07409591675,3.200183149
20.82802062,3.353027344,0.833915863,0.227227478,3.462634887
20.83795963,3.426374817,0.7882608032,0.4813989258,3.548682066
20.84789962,3.615431671,0.7253915405,0.6459068298,3.743625875
20.85783863,3.902085571,0.5463638306,0.9228309631,4.04677677
20.86777862,4.37959259,0.2302212524,1.156495056,4.535561034
20.87771763,5.27353363,-0.479153595,1.285826111,5.449136987
20.88765762,6.450536041,-1.81482605,1.281784515,6.822461459
20.89759663,7.95655426,-3.816313934,1.093176727,8.891908856
20.90753662,9.441915436,-6.794371033,0.8887019348,11.66632058
20.91747562,11.27919479,-10.81441132,0.666713562,15.64021209
20.92741563,14.0500827,-15.69456299,0.5034031677,21.07077469
20.93735462,18.10814392,-21.52463928,0.2513273621,28.12966651
20.94729463,21.19996445,-26.51975189,0.01496887207,33.95196544
20.95723362,20.44238983,-26.09074402,-0.4525090027,33.14849906
20.96717363,20.7559877,-25.53599762,-1.199605408,32.92927653
20.97711262,24.44551529,-28.8526506,-1.63924118,37.85162845
20.98705263,27.14919296,-30.41884369,-1.294957123,40.79291169
20.99699162,27.05593689,-28.08310089,-0.5915698242,39.00043886
21.00693163,26.07442795,-24.94951721,0.2174977112,36.0888003
21.01687062,24.5449086,-21.51969955,1.172960815,32.66383082
21.02681063,22.87872345,-17.9385466,1.909878387,29.1354608
21.03674962,21.53197403,-14.90196121,2.395917664,26.29514737
21.04668963,20.09466293,-12.43464203,2.736758881,23.78877151
21.05662862,18.47832413,-10.45411057,2.596350861,21.38873367
21.06656863,16.36202499,-8.677155762,1.718576202,18.60006447
21.07650762,13.85803207,-6.580016785,0.03517684937,15.34089017
21.08644763,11.20659576,-4.287683716,-2.119143219,12.18453069
21.09638662,8.855584717,-2.180066528,-4.252656555,10.06276098
21.10632663,6.932533722,-0.07170089722,-6.051166534,9.20227044
21.11626562,5.004992065,2.039059753,-7.455995178,9.208668435
21.12620563,2.521955566,3.691922607,-8.90438324,9.963864376
21.13614462,0.2499801636,4.868625641,-9.654922485,10.81589265
21.14608463,-0.7482939148,5.188660126,-8.965905304,10.38602887
21.15602362,-0.8716374207,4.693040771,-6.853797455,8.352180735
21.16596363,-1.392554169,4.084705811,-4.500391388,6.23518655
21.17590262,-2.406246185,3.670816498,-2.622097321,5.112759414
21.18583971,-3.319646759,3.128494263,-1.307980042,4.745349591
21.19577871,-4.768334198,2.291285248,-0.4314028931,5.307834546
21.20571871,-6.326294403,1.409019928,-0.3484753418,6.490668155
21.21565771,-7.059320068,1.224004669,-0.5613327026,7.186604321
21.22559771,-6.755302277,1.479074249,-0.6688092041,6.947594924
21.23553671,-5.273982697,1.552272034,-0.8605604553,5.564620944
21.24547671,-3.202440491,1.394500122,-0.9505233765,3.619910272
21.25541571,-1.028660889,1.313668213,-0.9484277344,1.919214049
21.26535571,0.7150630188,1.333127747,-0.8147557068,1.718246656
21.27529471,1.879341888,1.414558411,-0.5818400574,2.423105298
21.28523471,2.633623352,1.531315613,-0.3341052246,3.064722788
21.29517471,3.101699982,1.61708725,-0.06242019653,3.498486849
21.30511371,3.378324738,1.652413788,0.2659968567,3.770186161
21.31505271,3.666325836,1.687440948,0.6140231323,4.08245349
21.32499271,3.998485107,1.695224762,0.9505233765,4.445803059
21.33493171,4.431534576,1.610650635,1.294208679,4.889547042
21.34487171,5.04076767,1.317111053,1.589095459,5.446957371
21.35481071,5.827381897,0.7972421265,1.748813324,6.136148859
21.36475071,6.71862854,-0.2073188782,1.835333405,6.967883415
21.37468971,7.889044647,-1.983525238,1.775906982,8.3261782
21.38462971,9.185498657,-4.52000061,1.631008301,10.36648345
21.39456871,10.63373703,-7.632777557,1.329834595,13.15690376
21.40450871,12.1271814,-10.83970871,0.8336164856,16.28688828
21.41444771,14.11070663,-14.0846608,0.1213975525,19.93751361
21.42438771,16.53461609,-17.6598262,-0.7940986633,24.20523876
21.43432671,19.21643921,-21.11374374,-2.001936951,28.61938962
21.44426671,22.58533356,-25.46384766,-3.438050537,34.21001346
21.45420571,27.5256601,-31.13435577,-4.579127655,41.8088326
21.46414571,30.41450272,-33.4087262,-4.715643768,45.4249079
21.47408471,29.64031265,-32.03263779,-3.667673035,43.79600259
21.48402471,29.1831633,-29.85900787,-1.852098541,41.79291376
21.49396371,27.215056,-26.12202896,0.4203259277,37.7252746
21.50390371,24.53772354,-21.64543808,2.268083496,32.79891872
21.51384271,22.41214371,-17.87403076,3.449875946,28.87363512
21.52378271,20.20498352,-15.01153336,4.287983093,25.53378726
21.53372171,17.81131119,-12.58223511,4.704716492,22.30896241
21.54366171,15.11257324,-10.35172348,4.535717926,18.87116282
21.55360071,12.15023346,-8.095764771,3.588338013,15.03481792
21.56354071,9.316775665,-5.969586182,1.817370758,11.21343411
21.57347971,6.715335388,-4.258793793,-0.436791687,7.963908646
21.58341971,4.100722504,-2.852019196,-2.685864716,5.67131447
21.59335871,1.435814209,-1.217268677,-4.485572205,4.864531167
21.60329871,-1.563947754,0.6737489319,-5.999972992,6.236950064
21.61323771,-4.20056488,2.553839264,-7.113507385,8.646896994
21.62317771,-5.748046875,3.673361206,-7.311246185,9.999397292
21.63311671,-5.791456604,3.861220551,-6.59229126,9.586881547
21.64305671,-4.939278717,3.597768402,-5.214406586,8.033084573
21.65299571,-4.132157135,3.420836334,-3.871249695,6.615392506
21.66293571,-3.624712372,3.311563568,-2.833158417,5.668490069
21.67287571,-3.391946411,3.053051147,-2.073787537,5.012685559
21.68281471,-3.233426056,2.550396423,-1.523082733,4.39082532
21.69275371,-3.112776947,1.898052979,-1.178050232,3.831421118
21.70269371,-3.252436523,1.14197525,-1.009650421,3.591913805
21.71263271,-3.712130585,0.2962339783,-1.014739838,3.85971048
21.72257271,-4.146976318,-0.1863624573,-1.234183502,4.330745025
21.73251171,-3.911665649,0.003442840576,-1.466949463,4.177688444
21.74245171,-2.665806427,0.5637277222,-1.519639893,3.119874718
21.75239071,-0.8876541138,0.9601034546,-1.309626617,1.85063512
21.76233071,0.7643106079,0.987197113,-0.9205856323,1.551195266
21.77226971,1.820065155,0.8729846191,-0.3864962769,2.055266086
21.78220971,2.403252411,0.7903564453,0.1335223389,2.533399628
21.79214871,2.800825653,0.7893086243,0.4993615723,2.95245566
21.80208871,3.059637451,0.8385562134,0.8852590942,3.29366688
21.81202771,3.20603302,0.7770341492,1.280587006,3.538690842
21.82196771,3.218008118,0.572409668,1.618733826,3.647400207
21.83190671,3.272494812,0.4082011414,1.804946594,3.759479043
21.84184671,3.683240662,0.1149609375,1.895657959,4.144031477
21.85178571,4.358935547,-0.8252339172,1.816772003,4.793953549
21.86172571,5.118605804,-2.667902069,1.592687988,5.987861209
21.87166471,6.34650238,-5.244643707,1.265019379,8.329745141
21.88160471,8.120762787,-8.462801514,0.8222401428,11.75763057
21.89154371,10.15278717,-12.17672836,0.4242178345,15.85975289
21.90148371,13.80010254,-16.31457367,-0.2633024597,21.37001339
21.91142271,19.85965164,-21.21882523,-1.317859497,29.09262898
21.92136271,24.93589554,-25.04172546,-2.692301331,35.44200032
21.93130171,25.20862839,-25.32957687,-3.938908997,35.95243266
21.94124171,25.55964844,-26.93723373,-4.963228912,37.46390037
21.95118071,27.09186218,-30.58260315,-5.046755219,41.16715135
21.96112071,26.56974792,-31.34062683,-3.839964752,41.26659332
21.97105971,24.52350311,-29.16535034,-1.546583862,38.13675113
21.98099971,22.65868103,-26.33294037,0.7478448486,34.74764519
21.99093871,21.29860931,-23.24770615,2.409689026,31.62108792
22.00087871,20.20423508,-19.83016296,3.721710663,28.55341676
22.01081771,19.36148758,-16.06848541,4.602179718,25.57818373
22.02075771,18.30438583,-12.60678406,5.06067627,22.79456052
22.03069671,16.62966843,-9.494605865,5.093458099,19.81506316
22.04063671,14.42415482,-6.6554599,4.288132782,16.45416274
22.05057571,11.43696671,-4.179309082,2.391127625,12.40920316
22.06051571,8.094417572,-2.481240234,-0.1895059204,8.468297434
22.07045471,5.243895264,-1.232536926,-2.75442215,6.050159187
22.08039471,2.884651337,-0.08292755127,-4.807103577,5.606811492
22.09033371,0.4805007935,1.007554779,-6.737938385,6.829777546
22.10027371,-2.311642914,2.066303101,-9.061855774,9.577605731
22.11021271,-4.596790924,2.881507874,-10.51548294,11.83253802
22.12015271,-4.90619751,2.81519577,-9.891730042,11.39484201
22.13009171,-3.833827515,2.194885712,-7.180118866,8.430294398
22.14003171,-3.298840027,1.747466125,-4.123026123,5.561953595
22.14997071,-3.579356689,1.702709198,-2.013912048,4.445993102
22.15991071,-3.628155212,1.916165314,-0.5125341797,4.134959618
22.16984971,-3.584296417,2.632126465,1.137185211,4.590039296
22.17978971,-3.143163757,3.377426605,1.953288116,5.010171988
22.18972812,-2.28170517,3.57456665,2.38813385,4.866917762
22.19966813,-1.595831451,3.120860138,2.789748688,4.479859793
22.20960712,-1.05306015,2.4724086,2.607876892,3.744697831
22.21954713,-0.6752458191,1.972298584,2.105970612,2.963280418
22.22948612,-0.4745132446,1.701960754,1.478625183,2.303945672
22.23942613,-0.3062631226,1.522184601,0.8719367981,1.780762994
22.24936512,-0.07005432129,1.343755646,0.3950285339,1.402367422
22.25930513,0.2573149109,1.193019104,0.07978408813,1.223058072
22.26924412,0.686023407,1.071471863,-0.08666976929,1.275222222
22.27918413,1.293160858,1.101259918,-0.2327659607,1.714414887
22.28912312,2.006876678,1.266366577,-0.3553610229,2.399483229
22.29906313,2.825973358,1.424587555,-0.4376898193,3.194862673
22.30900212,3.673061829,1.472038879,-0.5113366699,3.989955745
22.31894213,4.493356018,1.319506073,-0.5513035583,4.715430012
22.32888112,5.469476166,0.7545808411,-0.7325765991,5.569670569
22.33882113,6.516399078,-0.6053411865,-1.020727386,6.62357753
22.34876012,7.820786591,-3.065026245,-1.26486969,8.494644437
22.35870013,9.375303955,-6.810088348,-1.368005219,11.66812178
22.36863912,10.77579163,-11.50223099,-1.626817017,15.8450477
22.37857913,12.51292923,-15.79754883,-1.951042786,20.24703719
22.38851812,15.49787201,-19.321371,-2.494861908,24.89425135
22.39845813,19.34696777,-23.34320755,-3.102298737,30.47679048
22.40839712,23.73988266,-28.22051514,-3.766617279,37.06975734
22.41833713,27.34947647,-31.12941605,-4.1830513,41.64771692
22.42827612,28.91267578,-31.94372269,-3.724854126,43.24602615
22.43821613,29.65528152,-31.86962677,-2.383343811,43.59804079
22.44815512,29.02509201,-29.81455032,-0.3951782227,41.61153137
22.45809513,26.94097595,-26.36018372,1.599274292,37.72576241
22.46803412,24.7691423,-22.55704239,3.452420654,33.67862497
22.47797413,22.90506866,-19.02618484,5.213508453,30.22943186
22.48791312,20.90028763,-16.15874771,6.623127136,27.23587641
22.49785313,18.09871353,-13.97209488,7.315587158,24.0062634
22.50779212,14.60587692,-11.99216217,6.955735474,20.13767241
22.51773213,10.89973389,-9.596843262,5.413342896,15.49864125
22.52767112,7.514673157,-6.866221619,2.817291412,10.56183899
22.53761113,5.095254364,-4.446054382,-0.2354603577,6.766421372
22.54755012,3.22594162,-2.42675354,-3.118914185,5.101319219
22.55749013,1.536554718,-0.4649331665,-5.500761108,5.730230015
22.56742913,-0.3634442139,1.702260132,-7.533983002,7.732443412
22.57736913,-2.806962891,3.658991089,-9.484427032,10.54616578
22.58730813,-4.710105286,4.925806732,-10.59391983,12.5968171
22.59724813,-5.199737091,4.894671478,-10.13407608,12.39736152
22.60718713,-4.944218445,4.029919739,-8.501421204,10.62825064
22.61712713,-5.117707672,3.346141663,-6.701713715,9.071965749
22.62706613,-5.783523102,2.84094223,-5.279670868,8.330367141
22.63700613,-6.267466736,2.405348053,-4.3516008,8.000204251
22.64694513,-6.036796417,1.997595978,-3.564537506,7.289665857
22.65688513,-5.30631546,1.527423706,-2.74154892,6.164908549
22.66682413,-4.051774292,1.087189178,-1.906435547,4.607966115
22.67676413,-2.563269653,0.8211923218,-0.7761360168,2.801266724
22.68670313,-1.045575714,0.8702902222,0.076640625,1.36253713
22.69664313,0.2912942505,0.916993103,0.5258564758,1.096473312
22.70658213,1.278790741,0.853225708,1.095422058,1.887657107
22.71652213,2.066602478,0.8818162537,1.401385803,2.648080036
22.72646113,2.623594208,0.9015751648,1.602866821,3.203945441
22.73640113,3.001857605,0.7704478455,1.773212585,3.570577241
22.74634013,3.212469635,0.5924679565,1.977537689,3.818590676
22.75628013,3.261417847,0.4005670166,2.280807037,3.99992263
22.76621913,3.338507538,0.1829196167,2.711311798,4.304683941
22.77615913,3.477718048,-0.07574249268,3.217858429,4.738657259
22.78609813,3.686833191,-0.4346960449,3.540886688,5.130261023
22.79603813,4.201463013,-1.24960144,3.550167389,5.640698866
22.80597713,4.992867279,-2.715353394,3.231031036,6.537692963
22.81591612,6.334527283,-4.736001434,2.614612885,8.330194837
22.82585613,8.480464783,-7.570207672,1.783840485,11.5068855
22.83579512,11.55566986,-11.45657593,0.5623805237,16.28198114
22.84573513,16.23898087,-16.23808273,-1.18763031,22.99544077
22.85567412,22.57380753,-21.86398361,-3.681893463,31.64122161
22.86561413,25.29529816,-23.65351227,-6.647975464,35.26381048
22.87555412,23.15340225,-21.3399234,-9.322763214,32.83879231
22.88549313,22.34253845,-21.69378754,-11.37439682,33.15397933
22.89543212,22.76046936,-24.82946686,-11.8391803,35.70304721
22.90537213,22.58219009,-27.52221725,-9.510622559,36.84941917
22.91531112,21.70995392,-28.42109802,-5.61168045,36.20182136
22.92525113,20.34913376,-28.20883942,-2.43962677,34.86800317
22.93519012,19.16015625,-26.67991882,-0.1480421448,32.84739826
22.94513013,18.13044754,-23.66967865,1.74222702,29.86640538
22.95506912,17.20881409,-19.85965164,3.158432007,26.46742788
22.96500913,16.33118912,-15.6174733,3.921844482,22.9345607
22.97494812,15.22349258,-11.46974854,3.802692261,19.43631463
22.98488813,13.0640831,-7.974516907,2.63976059,15.53162976
22.99482713,10.14215927,-5.444777527,0.6248007202,11.52819903
23.00476713,7.230563965,-3.778891754,-1.544787598,8.303459933
23.01470613,4.682263184,-2.38693634,-3.363056488,6.239487363
23.02464613,2.335144043,-1.022224274,-4.607867889,5.265955436
23.03458513,0.08502319336,0.5017565918,-5.389841766,5.413814079
23.04452513,-2.044448547,1.946103058,-5.94638443,6.582292516
23.05446413,-3.878584442,2.824326782,-6.234834595,7.867235949
23.06440413,-5.012925568,3.180885315,-5.952821045,8.407349911
23.07434313,-5.437592468,3.416046295,-5.046306152,8.167128622
23.08428313,-5.281018066,3.681743774,-3.625161438,7.388246374
23.09422213,-4.744833069,3.805236969,-1.931583252,6.381558046
23.10416213,-4.069138184,3.899690552,-0.4929249573,5.657600814
23.11410113,-3.315455475,3.757635956,0.2065704346,5.015450561
23.12404113,-2.530787201,3.282224579,0.4314028931,4.167012179
23.13398013,-1.799108734,2.728376312,0.3953279114,3.291977171
23.14392013,-1.018182678,2.2746698,0.0513432312,2.492680243
23.15385913,-0.3372486877,1.887425079,-0.2900967407,1.93914059
23.16379913,0.1309776306,1.420396271,-0.543968811,1.526624634
23.17373813,0.3112028503,0.9189390564,-0.6991960144,1.195897684
23.18367871,0.3746708679,0.5899232483,-0.7442523193,1.020930562
23.19361771,0.5355862427,0.5298980713,-0.6794371033,1.014534064
23.20355771,0.9196875,0.5974076843,-0.5026547241,1.206392478
23.21349671,1.562301178,0.6460565186,-0.1673519897,1.6988763
23.22343671,2.238744507,0.6298901367,0.2573149109,2.339861003
23.23337571,2.773282928,0.5731581116,0.698896637,2.916858744
23.24331571,3.147205353,0.5706134033,1.184187469,3.410689249
23.25325471,3.527714081,0.5313949585,1.614841919,3.915975186
23.26319471,4.073928223,0.05703140259,1.879790955,4.487065609
23.27313371,4.876409454,-1.091081085,1.89431076,5.343991051
23.28307371,5.937852173,-3.05739212,1.514849854,6.848394343
23.29301271,7.500602417,-5.878126373,0.8786727905,9.569925399
23.30295271,9.788295135,-9.672436066,0.0347277832,13.76110269
23.31289171,12.98384995,-14.19423294,-1.003363495,19.26300461
23.32283171,17.85681656,-19.42555435,-2.590363312,26.51279015
23.33277071,23.95124313,-25.0557962,-4.661157074,34.97400973
23.34271071,25.98236938,-26.51735687,-6.618486786,37.71018565
23.35264971,25.26401321,-26.79517914,-7.820487213,37.64853263
23.36258971,25.65215607,-28.33293137,-7.460036774,38.94149791
23.37252871,24.70567429,-27.30412079,-4.845423889,37.13978307
23.38246771,22.87857376,-24.42785202,-1.466051331,33.50072235
23.39240771,21.68645279,-22.36035141,0.9662406921,31.16442155
23.40234671,20.92408813,-21.06195145,2.705623627,29.81180408
23.41228671,20.1376236,-20.08418472,4.29891037,28.76419633
23.42222571,18.94490387,-18.87380173,5.455555115,27.29272533
23.43216571,17.26764175,-16.8636319,5.50525177,24.75603622
23.44210471,15.09640686,-13.6930751,4.308191071,20.8317622
23.45204471,12.62235168,-10.11536499,1.952988739,16.29289833
23.46198371,10.43315414,-7.030729523,-0.9672885132,12.6181421
23.47192371,8.667276306,-4.473148041,-3.722608795,10.43975805
23.48186271,6.960974579,-2.245779877,-5.699697418,9.272822925
23.49180271,4.907694397,-0.3005749512,-6.89885376,8.471717228
23.50174171,2.707719269,1.31756012,-7.360344086,7.952507364
23.51168171,0.9987231445,2.233954468,-6.655609589,7.091201554
23.52162071,0.0419128418,2.273172913,-5.087021484,5.571970868
23.53156071,-0.4143383789,2.165397034,-3.057242432,3.769264105
23.54149971,-1.509011993,2.243983612,-1.508113861,3.096286012
23.55143971,-2.717748413,2.915337524,-0.4005670166,4.005721315
23.56137871,-3.650458832,3.665278015,0.5352868652,5.200638868
23.57131871,-4.187991028,4.115092621,1.249152374,6.002802494
23.58125771,-4.422852631,4.277355194,1.593885498,6.35593139
23.59119771,-4.39022049,4.023483124,1.539548492,6.15082612
23.60113671,-4.198169861,3.468587036,1.102607117,5.556209919
23.61107671,-4.029021606,2.84094223,0.3598516846,4.943021454
23.62101571,-3.819008331,2.413131866,-0.4173321533,4.536760537
23.63095571,-3.59103241,2.021246796,-1.090182953,4.262563929
23.64089471,-3.142115936,1.71767807,-1.541644135,3.898714807
23.65083471,-2.447709961,1.587299194,-1.794468384,3.425043002
23.66077371,-1.668879547,1.54808075,-1.864522705,2.942474786
23.67071371,-0.8183482361,1.454225922,-1.785337372,2.443746386
23.68065271,0.1745370483,1.366358643,-1.693727875,2.183142972
23.69059271,1.200204163,1.336720276,-1.677112427,2.457644649
23.70053171,2.228116608,1.340312805,-1.664388885,3.087253212
23.71047171,3.300486603,1.293759613,-1.730251923,3.944717666
23.72041071,4.357588348,1.119372253,-1.861977997,4.86914084
23.73035071,5.645360413,0.6318360901,-2.069147186,6.04571593
23.74028971,7.00408493,-0.5535488892,-2.254910889,7.37890542
23.75022971,8.094118195,-2.630779266,-2.482138367,8.865481361
23.76016871,9.514065399,-5.669759674,-2.910248108,11.45133875
23.77010871,11.85295166,-10.39707916,-3.326382751,16.11386175
23.78004771,15.55340652,-17.21555008,-3.63429245,23.48386043
23.78998771,24.08775925,-26.03176666,-4.108805695,35.70371557
23.79992671,27.21894791,-27.43180527,-4.061504059,38.85705702
23.80986671,23.71054367,-25.61817673,-3.599265289,35.09181629
23.81980571,25.83537506,-28.78199753,-2.916385345,38.78627708
23.82974471,27.01117996,-29.90586044,-0.7500901794,40.30542106
23.83968471,25.48225937,-28.21213257,1.685195618,38.05403856
23.84962371,24.46961517,-25.95647324,3.852239227,35.87952503
23.85956371,24.15676575,-23.41655502,6.062093811,34.1852799
23.86950271,23.7460199,-20.86990082,7.834408264,32.56998885
23.87944271,22.80223251,-18.29226105,8.702902222,30.50064145
23.88938171,20.89325226,-15.7939563,8.149802399,27.42984369
23.89932171,18.11682587,-13.32723587,6.27749588,23.35040792
23.90926071,14.84927078,-10.85362976,3.141816559,18.65939798
23.91920071,11.89920547,-8.644224243,-0.7005432129,14.72428146
23.92913971,9.29746582,-6.401438141,-4.037853241,11.9885587
23.93907971,6.805597687,-4.195026398,-6.464008026,10.28094383
23.94901871,4.278552704,-2.207160187,-8.200397186,9.509157867
23.95895871,1.299148407,0.2665956116,-10.13422577,10.22063558
23.96889771,-2.160457306,2.816542969,-11.5392041,12.07285059
23.97883771,-4.01569931,4.020489349,-10.6235582,12.0478282
23.98877671,-3.830684052,3.686833191,-7.526348877,9.214814523
23.99871671,-3.835474091,2.92401947,-4.286186829,6.452297954
24.00865571,-4.568499756,2.475402374,-2.112107849,5.608904216
24.01859571,-5.765410767,2.271376648,0.1502874756,6.198523978
24.02853471,-6.733447723,2.502196655,1.099613342,7.26701148
24.03847471,-6.935377808,2.559228058,1.369502106,7.518287678
24.04841371,-6.720574493,2.10851532,1.871707764,7.288020879
24.05835371,-5.99084198,1.718576202,1.719025269,6.46519448
24.06829271,-4.782404938,1.352886658,1.164727936,5.104732164
24.07823271,-3.479065247,1.057251434,0.5486091614,3.67731527
24.08817171,-2.128723297,0.9497749329,0.008681945801,2.331010655
24.09811171,-0.9099577332,0.9252259827,-0.4116439819,1.361439298
24.10805071,0.02350112915,1.010099487,-0.6973997498,1.227688759
24.11799071,0.7735913086,1.187480621,-0.8424481201,1.648718464
24.12792971,1.421593781,1.375489655,-0.846789093,2.151732426
24.13786971,1.976340179,1.556912384,-0.7162605286,2.615898664
24.14780871,2.485132141,1.689985657,-0.5117857361,3.048582936
24.15774771,2.986739044,1.720971222,-0.2607577515,3.456927345
24.16768771,3.533402252,1.653461609,0.04370910645,3.901381455
24.17762671,4.200415192,1.509161682,0.3423381042,4.476410632
24.18756633,4.81728241,1.224902802,0.6228547668,5.009445553
24.19750533,5.403613129,0.63887146,0.7737409973,5.495986419
24.20744533,6.08439743,-0.505947876,0.7117698669,6.146746431
24.21738433,7.026987305,-2.56835907,0.44697052,7.494985093
24.22732433,8.21985672,-5.754782867,0.1119671631,10.03474499
24.23726333,9.942324829,-9.75970459,-0.2029779053,13.93351559
24.24720333,12.77174103,-14.22312286,-0.6379733276,19.12646342
24.25714233,17.83690796,-19.9903299,-1.411714325,26.8283714
24.26708233,23.18827972,-24.84144196,-2.685415649,34.08819462
24.27702133,22.34074219,-24.05318115,-4.16194519,33.09057378
24.28696133,21.87296494,-25.015979,-5.684578857,33.71261244
24.29690033,24.18011719,-28.60701141,-6.072422333,37.94619193
24.30684033,25.01642807,-30.22963715,-4.836143188,39.53531227
24.31677933,23.96202072,-29.20876007,-2.497406616,37.8624767
24.32671933,22.86570053,-27.46009644,0.2266287231,35.73441643
24.33665833,21.98987183,-25.16342239,2.681523743,33.52525703
24.34659833,21.28843048,-22.05783051,4.729714508,31.01798443
24.35653733,20.83337677,-18.36905136,6.627917175,28.55487562
24.36647733,20.10394363,-14.8052623,7.966134338,26.20732031
24.37641633,18.56589203,-11.52977371,8.452023926,23.43213044
24.38635633,16.15261047,-8.757388916,7.918084259,20.00736724
24.39629533,13.4516272,-6.274951172,6.392905884,16.16139017
24.40623533,10.90646988,-3.946094055,3.835174713,12.21602671
24.41617433,8.638386383,-2.310744781,0.8530760193,8.982705575
24.42611433,6.156397705,-1.477427673,-1.855541382,6.597504002
24.43605333,3.723057861,-0.6770420837,-4.423750763,5.82143596
24.44599333,1.568887482,0.8384065247,-6.382277985,6.625541918
24.45593233,-0.4852908325,2.801873474,-7.80566803,8.307493939
24.46587133,-2.70876709,4.374203796,-9.277856598,10.60894439
24.47581133,-4.385879517,4.68855011,-9.46721283,11.43881812
24.48575033,-4.511019287,3.857628021,-7.924071808,9.900580941
24.49569033,-4.208049316,2.778222656,-5.534291382,7.48696075
24.50562933,-4.54110672,2.196981354,-3.64716568,6.224965446
24.51556933,-4.822970581,1.928888855,-2.380499725,5.713881026
24.52550833,-4.885989532,1.848805389,-1.45557312,5.423068153
24.53544833,-4.75995163,1.713486786,-0.7828720093,5.119185977
24.54538733,-4.590953064,1.358874207,-0.4858895874,4.812429515
24.55532733,-4.382885742,1.024619293,-0.3739224243,4.516563971
24.56526633,-3.68458786,0.9912387085,-0.417481842,3.838363318
24.57520633,-2.533631287,1.09167984,-0.6635700989,2.83749496
24.58514533,-1.199605408,1.19002533,-0.7881111145,1.864492571
24.59508533,-0.03353027344,1.235830078,-0.7102729797,1.425793802
24.60502433,0.9307644653,1.189875641,-0.5911207581,1.622205376
24.61496433,1.59134079,1.113983459,-0.4167333984,1.986703647
24.62490333,2.074086914,1.047671356,-0.1354682922,2.327617549
24.63484333,2.48288681,1.008153534,0.1818717957,2.685922153
24.64478233,2.858904877,0.9921368408,0.5689668274,3.079187532
24.65472233,3.348087616,1.056802368,0.9463320923,3.636215939
24.66466133,4.050427094,1.111887817,1.236578522,4.378513515
24.67460133,5.013075256,0.9081614685,1.381177826,5.278573005
24.68454033,6.22136261,0.02155517578,1.265019379,6.348707851
24.69448033,7.72603363,-1.854942627,0.9862989807,8.006571894
24.70441933,9.212891693,-4.840334473,0.7012916565,10.43062899
24.71435933,10.80647781,-8.427474976,0.2688409424,13.70673457
24.72429833,13.21751404,-12.31084946,-0.4465214539,18.06817847
24.73423733,16.5423999,-17.16300934,-1.375489655,23.87701522
24.74417733,20.57321777,-22.70029449,-2.364932098,30.72708192
24.75411633,22.11306564,-24.81644394,-3.463796997,33.4191779
24.76405633,21.60068115,-24.99936356,-4.31058609,33.31874483
24.77399533,23.92145508,-27.40186752,-4.48497345,36.64987508
24.78393533,26.50792648,-29.16535034,-3.705095215,39.58554733
24.79387433,26.79907104,-28.39909378,-2.435136108,39.12324915
24.80381433,26.30584671,-27.00354584,-0.8669970703,37.70862955
24.81375333,25.36849594,-24.80626511,0.9809101868,35.49469763
24.82369333,23.92998734,-21.69842789,2.73211853,32.41805883
24.83363233,22.1349202,-18.67441635,4.107608185,29.24997373
24.84357233,20.30527496,-15.819104,4.813989258,26.18630817
