Time (s),Acceleration x (m/s^2),Acceleration y (m/s^2),Acceleration z (m/s^2),Absolute acceleration (m/s^2)
24.85185012,-22.93321014,-9.818831635,9.506431274,26.6967005
24.86178912,-19.87791367,-7.6149646,5.695206757,22.03530162
24.87172812,-20.04631348,-7.155719604,4.110452271,21.67844148
24.88166812,-21.0772197,-7.990383911,3.266357574,22.77640263
24.89160712,-20.89654541,-9.180708618,2.64904129,22.97756385
24.90154612,-18.95747772,-9.050479431,1.418001251,21.05487751
24.91148612,-16.29631165,-7.608827362,0.07828720093,17.98527609
24.92142512,-13.79815659,-5.523214417,-0.6744973755,14.87783483
24.93136512,-11.48292114,-3.453767853,-0.26210495,11.99394386
24.94130412,-8.776698761,-2.087708588,-0.04670288086,9.021704354
24.95124312,-5.554948425,-0.8665480042,-1.010548553,5.712229497
24.96118312,-2.95799881,0.4869374084,-2.022294617,3.616149958
24.97112212,-1.249302063,1.547481995,-2.152823181,2.930887889
24.98106112,0.2386038208,1.873504028,-1.217867432,2.247253926
24.99100112,1.567689972,2.012415161,0.3565585327,2.575771849
25.00094012,3.125201111,2.380200348,1.82066391,4.329786687
25.01087912,4.820276184,2.73451355,2.965483246,6.285436956
25.02081912,5.831273804,2.945724335,3.789070587,7.552357377
25.03075812,6.774163055,2.895129547,4.283941498,8.521925543
25.04069812,7.722890167,1.921105042,4.030219116,8.920557339
25.05063712,7.281607819,0.7092251587,2.329306183,7.677921597
25.06057612,4.37734726,0.1657054138,0.1808239746,4.384213113
25.07051612,1.62636795,0.01511856079,-0.6770420837,1.761728488
25.08045512,0.5147795105,-0.1987866211,-0.9684860229,1.114665529
25.09039512,-0.5655239868,-0.4679269409,-1.322948914,1.512933187
25.10033412,-1.312171326,-0.6135740662,-1.256337433,1.917459378
25.11027312,-1.66738266,-0.7255412292,-1.235979767,2.198686197
25.12021312,-1.789378967,-0.8107141113,-1.414109344,2.420504017
25.13015212,-1.625769196,-0.7946974182,-1.482816467,2.339532889
25.14009112,-1.420096893,-0.748742981,-1.182391205,1.993825519
25.15003112,-1.473535767,-0.8469387817,-0.2067201233,1.712117451
25.15997012,-1.672322388,-1.212628326,1.207688599,2.392831247
25.16990912,-1.025068359,-0.8821156311,0.1728904724,1.363372379
25.17984912,-0.286204834,-0.3927832031,-0.2387535095,0.5414749209
25.18978812,0.3121009827,0.1112187195,-0.1606159973,0.3682039184
25.19972812,0.7439529419,0.5611830139,0.08741821289,0.9359670394
25.20966712,0.9586065674,0.7993377686,0.689765625,1.426058918
25.21960612,1.089584198,0.9360035706,1.269659729,1.917115603
25.22954612,0.9821076965,0.9960287476,1.725761261,2.221454641
25.23948512,0.3664379883,0.5490582275,3.040477295,3.111309036
25.24942412,-0.7536827087,-0.7577243042,9.167386322,9.229472126
25.25936412,-3.381617889,-2.705324249,17.78646286,18.30607495
25.26930312,-6.163283386,-3.061284027,4.896018677,8.445621403
25.27924312,-6.595584412,-2.320923615,-3.560046844,7.84616809
25.28918212,-10.95841187,-3.822900238,-0.9333091736,11.64355714
25.29912112,-19.51791229,-7.550299072,0.1965412903,20.92831921
25.30906112,-31.10965714,-12.8025769,-4.567901001,33.94970489
25.31900012,-48.70556625,-20.03478745,-6.740483093,53.09481146
25.32893913,-62.26960968,-27.46563492,-3.92214386,68.17073128
25.33887912,-52.88682129,-27.76995209,2.172731781,59.77379751
25.34881812,-32.35222321,-21.45518372,9.251062317,39.90705963
25.35875712,-23.61369507,-13.99799103,12.51472549,30.16900233
25.36869717,-20.1614241,-8.742420044,10.2452948,24.24621611
25.37863617,-19.58407471,-5.18701355,7.167245636,21.48977668
25.38857617,-22.04361008,-3.559747467,4.456083527,22.76948018
25.39851517,-24.70821899,-4.010011139,2.290387115,25.13607265
25.40845417,-25.16402115,-5.821394348,1.556313629,25.87544598
25.41839417,-22.85177948,-7.482939148,0.06885681152,24.04585089
25.42833317,-19.48662735,-7.773484955,-1.327589264,21.02185071
25.43827317,-16.0527681,-6.838529205,-1.665137329,17.52796416
25.44821217,-12.58373199,-5.265600128,-1.387015686,13.71133357
25.45815117,-9.397457886,-3.676953735,-0.9696835327,10.13767674
25.46809117,-6.70815033,-2.438279572,-0.4710704041,7.153068952
25.47803017,-4.276756439,-1.446741486,-0.4583468628,4.538037948
25.48796917,-2.201621704,-0.7482939148,-0.9147477722,2.498768776
25.49790917,-0.5857319641,-0.2330653381,-1.296903076,1.441998257
25.50784817,0.6447093201,0.1920506287,-1.172661438,1.351912867
25.51778717,1.880988464,0.489332428,-0.5767506409,2.027364084
25.52772717,3.104095001,0.8550219727,0.3146456909,3.235037907
25.53766617,4.135749664,1.069675598,1.189276886,4.434299345
25.54760617,4.805157623,1.02970871,1.922751617,5.277008015
25.55754517,5.536087646,1.048120422,2.627186737,6.216826602
25.56748417,6.326444092,0.8337661743,3.473227386,7.26514758
25.57742417,6.729855194,0.3094065857,4.05671402,7.864070956
25.58736317,5.392685852,-0.4354444885,3.605402527,6.501507516
25.59730217,2.902314606,-0.8331674194,2.202519836,3.737471291
25.60724217,1.021775208,-0.7937992859,0.803379364,1.52301027
25.61718117,-0.3582051086,-0.5646258545,-0.04550537109,0.6702119025
25.62712117,-1.408421173,-0.3538641357,-0.4944218445,1.534054428
25.63706017,-2.117945709,-0.1727407837,-0.730480957,2.247028223
25.64699917,-2.500550079,-0.04954696655,-0.8538244629,2.642767832
25.65693917,-2.619552612,0.04969665527,-0.920735321,2.777099058
25.66687817,-2.420765991,0.2359094238,-1.078058167,2.660445574
25.67681717,-2.018851776,0.3848497009,-1.230740662,2.395536341
25.68675717,-1.649120636,0.4447251892,-1.213227081,2.095065468
25.69669617,-1.205892334,0.4393363953,-1.176852722,1.741314193
25.70663517,-0.4831951904,0.436791687,-0.7029382324,0.9583249598
25.71657517,0.1749861145,0.3240760803,-0.03023712158,0.3695398891
25.72651417,0.627046051,0.1442999268,0.5295986938,0.8333570636
25.73645417,1.020877075,-0.08816665649,0.9201365662,1.377176337
25.74639317,1.192420349,-0.5489085388,1.456920319,1.961066977
25.75633217,0.9951306152,-1.306034088,4.166136475,4.478024465
25.76627217,-0.1417552185,-1.856140137,13.98676437,14.11010023
25.77621117,-3.496129761,-1.719025269,15.62959808,16.10783373
25.78615017,-5.336402893,-1.235381012,-1.121916962,5.591248497
25.79609017,-6.860533447,-1.204694824,-2.623594208,7.443215392
25.80602917,-11.86507645,-2.304008789,-0.4207749939,12.0940294
25.81596917,-21.27780258,-6.440057831,-0.2954855347,22.23300563
25.82590817,-37.40391815,-15.55924438,-2.505340118,40.58842086
25.83584717,-57.36341217,-23.51969055,-4.35384613,62.15056617
25.84578717,-65.8869873,-28.07277237,-2.167941742,71.65106849
25.85572617,-46.13720718,-26.58726151,5.471571808,53.53001456
25.86566517,-26.7306633,-17.63572632,11.47124542,34.0167117
25.87560517,-21.01988892,-11.92180847,10.51233948,26.35288463
25.88554417,-19.25206512,-8.174800415,7.281158752,22.14688796
25.89548417,-20.53369995,-5.730084229,4.054618378,21.70038316
25.90542317,-22.78711395,-4.724625092,1.062640228,23.296005
25.91536217,-24.35450455,-5.185965729,-0.03173400879,24.90054496
25.92530217,-24.36183929,-6.536457367,-0.2897973633,25.22515552
25.93524117,-21.91083618,-8.137078857,-0.8677455139,23.38909525
25.94518017,-18.72695709,-8.750054169,-0.8798703003,20.689044
25.95512017,-15.63648376,-7.93320282,-0.1240919495,17.53427302
25.96505917,-12.30486191,-6.173312531,0.2607577515,13.76907436
25.97499917,-8.786877594,-4.261637878,0.2721340942,9.769587106
25.98493817,-5.937552795,-2.573897552,0.5668711853,6.496216187
25.99487717,-3.716621246,-1.196012878,0.674197998,3.962103385
26.00481717,-1.74926239,-0.217048645,0.2627037048,1.782145409
26.01475617,-0.1405577087,0.5447172546,-0.05194198608,0.5649524997
26.02469517,1.859133911,1.189875641,0.1207987976,2.210605186
26.03463517,4.386927338,1.912423096,0.7747888184,4.847967747
26.04457417,6.095923462,2.396067352,2.530338135,7.021683038
26.05451417,7.032825165,2.165247345,3.384012909,8.09941166
26.06445317,7.388635254,1.594633942,2.734214172,8.03807909
26.07439217,7.531138916,1.055754547,1.886976013,7.835390833
26.08433217,6.823710022,0.06990463257,1.821112976,7.062885925
26.09427117,3.988905029,-1.481618958,2.336491241,4.854456652
26.10421017,1.121767273,-2.597698059,2.240989838,3.609491997
26.11415017,-0.9439370728,-3.022664337,1.816472626,3.650628671
26.12408917,-2.478545837,-2.654729462,1.350791016,3.874972819
26.13402817,-2.916834412,-1.575174408,0.6617738342,3.380390807
26.14396817,-2.384391632,-0.5239105225,-0.1202000427,2.44422866
26.15390717,-1.832189941,0.1499880981,-0.4932243347,1.903335665
26.16384717,-1.45213028,0.4517605591,-0.8509803772,1.742681139
26.17378617,-1.050365753,0.5385800171,-1.223555603,1.700124985
26.18372517,-0.799637146,0.5421725464,-1.490001526,1.775802687
26.19366517,-0.7158114624,0.4041595459,-1.637744293,1.83246756
26.20360417,-0.6253994751,0.22348526,-1.59134079,1.724365296
26.21354417,-0.3900888062,0.08846603394,-1.460512848,1.514296303
26.22348317,0.02574645996,-0.03173400879,-1.355581055,1.35619686
26.23342217,0.286204834,-0.08053253174,-1.202000427,1.238226039
26.24336217,0.1745370483,-0.1460961914,-1.034798126,1.059535011
26.25330117,-0.07918533325,-0.1712438965,-1.046473846,1.063344864
26.26324017,-0.2673440552,-0.1419049072,-0.9648934937,1.011251354
26.27318017,-0.283510437,-0.2071691895,-0.8646020508,0.9331848408
26.28311917,-0.5797444153,-0.4547543335,-0.03712280273,0.7377555106
26.29305917,-2.601889343,-1.688937836,17.36673569,17.64159425
26.30299817,-5.946085052,-2.686014404,13.24176361,14.76194108
26.31293717,-6.302793274,-1.871558075,-3.118614807,7.276928679
26.32287717,-9.323511658,-1.716779938,-0.4113446045,9.489173166
26.33281617,-17.62180527,-3.008743286,3.110681305,18.14543731
26.34275517,-24.77198639,-8.300089874,-2.260748749,26.22315363
26.35269517,-42.67924805,-16.6989743,1.241817627,45.8466582
26.36263417,-61.19454529,-26.43383057,4.744234314,66.82834377
26.37257313,-62.00915131,-29.66261627,2.365081787,68.779352
26.38251312,-40.74751511,-26.09957565,6.561006317,48.83231144
26.39245213,-23.60860565,-20.27114594,9.906998291,32.65630465
26.40239212,-18.91810959,-13.69651794,7.84773056,24.6389194
26.41233113,-19.88225464,-9.526489563,4.601580963,22.52182498
26.42227012,-22.03956848,-7.081024933,1.855391693,23.22339276
26.43221012,-23.65875137,-6.245462494,-0.133971405,24.46957839
26.44214912,-23.30638412,-6.679859161,-0.02844085693,24.24476992
26.45208912,-20.95716934,-7.386090546,0.4596940613,22.22540436
26.46202812,-17.9783638,-7.240892487,0.7592211914,19.39661068
26.47196712,-15.27753021,-6.247857513,1.095272369,16.54201543
26.48190712,-12.60244308,-4.957241364,0.8957373047,13.57196224
26.49184612,-9.507479095,-3.675157471,0.3879931641,10.20046469
26.50178513,-6.62731842,-2.470911713,-0.09954299927,7.073659799
26.51172512,-3.950734406,-1.408720551,-0.572409668,4.233255102
26.52166413,-1.486558685,-0.6011499023,-1.282233582,2.053134406
26.53160312,0.6450086975,0.2418969727,-1.866618347,1.989676964
26.54154313,2.637515259,1.060694275,-2.369273071,3.700677502
26.55148212,4.060605927,1.658401337,-1.866618347,4.766873141
26.56142212,5.09226059,1.937570801,-0.4869374084,5.470137709
26.57136112,5.666466522,1.94939621,0.1600172424,5.994547018
26.58130012,5.706433411,1.751956787,0.4631369019,5.987255686
26.59124012,5.322481842,1.637744293,0.8062234497,5.626812204
26.60117912,4.86173996,1.487905884,1.160386963,5.215062536
26.61111813,3.750001831,1.153201904,1.30348938,4.134183466
26.62105812,1.588347015,0.8411009216,0.8469387817,1.986857393
26.63099713,-0.277073822,0.8421487427,0.2965333557,0.9348349794
26.64093712,-1.499880981,1.09407486,0.2517764282,1.873508507
26.65087613,-2.047142944,1.426683197,0.5819897461,2.562212178
26.66081512,-1.896855469,1.773212585,1.053958282,2.802351085
26.67075513,-1.227297821,1.890119476,1.29765152,2.600521302
26.68069412,-0.5230123901,1.70360733,1.240470428,2.171309923
26.69063312,-0.006586303711,1.068777466,0.7801776123,1.323255742
26.70057312,0.06855743408,0.2600093079,0.219743042,0.3472635403
26.71051212,-0.1025367737,-0.4342469788,-0.03787124634,0.447792876
26.72045212,-0.1507365417,-0.9581575012,-0.0296383667,0.9703946285
26.73039112,-0.03412902832,-1.285377045,0.1050814819,1.290116683
26.74033013,0.1989363098,-1.510508881,0.5548960876,1.621456876
26.75027012,0.3558100891,-1.710193634,1.082848206,2.055218558
26.76020913,0.4085005188,-1.739532623,1.368903351,2.250942648
26.77014812,0.3222798157,-1.667532349,1.542691956,2.294433892
26.78008813,-0.06691085815,-1.469793549,1.446891174,2.063556204
26.79002712,-0.7810757446,-1.526226196,2.091600494,2.704484858
26.79996712,-2.096091156,-2.275118866,7.731272736,8.327204939
26.80990612,-5.085524597,-2.415975952,14.38793015,15.45030854
26.81984512,-6.878496094,-1.815873871,4.39605835,8.362800694
26.82978512,-6.508764954,-1.751507721,-3.23641983,7.477045796
26.83972412,-10.8358168,-3.254981232,-1.012344818,11.35934288
26.84966313,-18.41126358,-6.40158783,-1.015488281,19.51886702
26.85960312,-29.87771896,-12.01371735,-5.057832184,32.59737967
26.86954213,-47.71657288,-19.84243744,-6.694378967,52.10958031
26.87948212,-62.80564499,-25.86710907,-3.054548035,67.9925484
26.88942113,-55.60367157,-24.81240234,4.129013672,61.0284553
26.89936012,-35.31755676,-16.42818741,11.3163176,40.56197975
26.90930013,-26.25270721,-10.60080551,12.53283783,30.96213393
26.91923912,-22.30002686,-7.305558014,9.027277679,25.14267523
26.92917812,-20.26650558,-5.399721222,5.678142242,21.72854199
26.93911812,-20.12115784,-4.927902374,2.730322266,20.89497246
26.94905712,-21.47194885,-6.145620117,1.771865387,22.40430184
26.95899712,-21.41731247,-8.488248596,0.6703060913,23.04779703
26.96893612,-19.04205185,-9.758207703,-1.4730867,21.44743203
26.97887513,-16.37819138,-9.156159668,-2.146685944,18.88620325
26.98881512,-13.44459183,-7.261250153,-2.298919373,15.45211421
26.99875413,-10.09081604,-4.94945755,-2.172731781,11.44737794
27.00869312,-6.879094849,-2.819686432,-1.585802307,7.601798897
27.01863313,-4.637356567,-1.161734161,-1.453327789,4.996685287
27.02857212,-3.275488586,0.2005828857,-1.709295502,3.700101362
27.03851213,-1.879042511,1.179098053,-1.088985443,2.471226876
27.04845112,-0.4261637878,1.906435547,0.2978805542,1.976068039
27.05839012,1.129401398,2.450254669,1.238674164,2.96877233
27.06833012,2.90650589,2.75786499,1.402134247,4.244947142
27.07826912,4.423451385,2.898123322,1.223705292,5.428028702
27.08820813,5.597310333,3.013982391,1.127156067,6.456349868
27.09814812,6.568939819,3.343746643,1.866019592,7.6035282
27.10808713,7.181016998,3.388503571,3.422782288,8.646640976
27.11802712,6.702911224,2.229763184,4.551435242,8.403357989
27.12796613,3.471131744,0.252973938,3.997736664,5.300438645
27.13790512,0.9598040771,-1.073268127,2.662962341,3.027291986
27.14784513,-0.6927593994,-1.94700119,1.461560669,2.531183282
27.15778412,-1.819915466,-2.32496521,0.5218148804,2.998307239
27.16772312,-2.365381165,-2.301314392,-0.04849914551,3.300519376
27.17766312,-2.305655365,-2.071242828,-0.3746708679,3.12193398
27.18760212,-1.731599121,-1.859732666,-0.6432124329,2.621214096
27.19754212,-0.9821076965,-1.602417755,-1.014739838,2.135878069
27.20748112,-0.3176394653,-1.290316772,-1.39943985,1.929830069
27.21742013,0.2484832764,-1.086440735,-1.566941528,1.922863272
27.22736012,0.7306306458,-0.9581575012,-1.373094635,1.826821232
27.23729913,0.9696835327,-0.9848020935,-0.9854008484,1.697390983
27.24723812,1.122216339,-1.108295288,-0.7708969116,1.755554045
27.25717813,1.362915802,-1.252295837,-0.8021818542,2.017245666
27.26711712,1.598525848,-1.397942963,-0.9357041931,2.320575737
27.27705713,1.568887482,-1.607357483,-0.9930349731,2.45583478
27.28699612,0.970581665,-1.3748909,0.6092330933,1.789837623
27.29693512,-0.8804690552,-0.4580474854,6.325695648,6.403081968
27.30687512,-3.40616684,-0.4909790039,12.54226822,13.00582658
27.31681412,-5.573509827,-1.0577005,5.986800385,8.24769792
27.32675313,-6.301296387,-1.319057007,-0.2676434326,6.443437014
27.33669312,-14.09334274,0.1336720276,9.190737762,16.82586814
27.34663213,-22.74205765,-2.860401764,11.49429749,25.64180101
27.35657212,-28.67137756,-10.16102005,0.4457730103,30.42191535
27.36651113,-41.99951157,-15.81027237,-7.226971436,45.45495353
27.37644962,-58.6104689,-22.77738419,-7.587721252,63.33695453
27.38638962,-59.49408142,-27.99298828,-2.513273621,65.79870562
27.39632862,-37.39643372,-24.05273209,5.398224335,44.79026682
27.40626762,-26.63501221,-17.59111908,11.84756287,34.04755632
27.41620762,-24.61376541,-11.2803923,13.48051712,30.24581029
27.42614662,-23.07002563,-5.672154694,9.06469986,25.42770546
27.43608662,-23.00820419,-2.389780426,3.856131134,23.45118884
27.44602562,-23.51026016,-1.575922852,1.00515976,23.58444852
27.45596462,-22.71720932,-3.18492691,-1.002465363,22.96127818
27.46590462,-20.19869659,-5.743406525,-2.61865448,21.16202764
27.47584362,-17.5245076,-8.260721741,-3.824846191,19.7478439
27.48578262,-14.59450058,-9.66375412,-4.906796265,18.17867543
27.49572262,-11.23982666,-9.613758087,-4.622387695,15.4959516
27.50566162,-8.626111908,-8.095465393,-2.889141998,12.17758219
27.51560162,-6.026018829,-5.836662598,-1.993255005,8.622795296
27.52554062,-3.95836853,-3.265309753,-1.587299194,5.371261299
27.53547962,-2.30625412,-1.371597748,-1.177900543,2.930450159
27.54541962,-0.7711962891,-0.3864962769,-0.1663041687,0.8785101962
27.55535862,0.8324189758,0.4068539429,1.238674164,1.546856544
27.56529762,2.768193512,1.187779999,2.101030884,3.672607714
27.57523762,4.35743866,1.764081573,2.682721252,5.412600926
27.58517662,5.424419861,2.163002014,3.61438385,6.867800169
27.59511662,6.881938934,2.659669189,5.325325928,9.099121932
27.60505562,8.566535797,3.456312561,7.102580109,11.65239359
27.61499462,9.009764099,3.919898529,7.685018921,12.47401176
27.62493462,5.483995972,2.585124207,7.313790894,9.499927169
27.63487362,1.741328888,0.7741900635,6.083050232,6.374566391
27.64481262,-0.5189707947,-0.6599775696,4.298012238,4.379247683
27.65475262,-2.242187347,-1.889071655,2.093396759,3.602541576
27.66469162,-3.639531555,-2.644550629,-0.3342549133,4.511270809
27.67463162,-4.367617493,-2.948867798,-2.118245087,5.679688909
27.68457062,-4.316274261,-2.830613708,-3.097658386,6.019807717
27.69450962,-3.648812256,-2.654579773,-3.233426056,5.551186243
27.70444962,-2.070195007,-2.364483032,-3.316802673,4.569208613
27.71438862,-0.4364923096,-2.104623413,-3.085234222,3.760137691
27.72432762,0.8045768738,-1.983674927,-2.515818329,3.303278981
27.73426762,1.558858337,-1.982627106,-2.027084656,3.235725847
27.74420662,2.08276886,-2.124232635,-1.774260406,3.463854847
27.75414662,2.269730072,-2.120640106,-1.460063782,3.432284269
27.76408562,2.008672943,-2.119891663,-0.9699829102,3.077267375
27.77402462,1.727258148,-2.299817505,-0.5361849976,2.92576069
27.78396462,1.584006042,-2.233056335,-0.4418811035,2.773242624
27.79390362,1.362616425,-1.907333679,-0.4671784973,2.390167574
27.80384362,0.8566685486,-1.474882965,0.1031355286,1.708741555
27.81378262,-0.3673361206,-0.2140548706,3.890110474,3.91327418
27.82372162,-2.815046082,1.362915802,14.8197821,15.14621951
27.83366162,-5.135670319,0.1592687988,12.95181656,13.93377294
27.84360062,-4.701123962,-2.644850006,-0.9404942322,5.475429432
27.85353962,-6.699019318,-3.028053131,-0.576151886,7.374138362
27.86347962,-12.3885379,-4.319567413,0.6497987366,13.13608665
27.87341862,-27.76531174,-9.299411774,5.216502228,29.74228456
27.88335762,-46.66396179,-18.33986206,-1.02731369,50.14909016
27.89329762,-68.83869919,-26.99755829,-4.662204895,74.09028826
27.90323662,-70.27062149,-31.63925583,-0.3200344849,77.06559009
27.91317662,-42.31655228,-24.53413101,5.751489716,49.25133313
27.92311562,-28.19611588,-15.27363831,9.451046448,33.43093263
27.93305462,-23.46415604,-9.219028931,9.127419434,26.81169332
27.94299462,-20.8568779,-4.346062317,6.372548218,22.23751299
27.95293362,-19.70652008,-2.225871277,2.031126251,19.93556898
27.96287362,-19.12243469,-1.333127747,0.007634124756,19.16884964
27.97281262,-19.34472244,-1.226399689,-0.6966513062,19.39607346
27.98275162,-19.75052856,-2.894680481,-1.498683472,20.01770731
27.99269162,-18.6299588,-4.524341583,-2.025737457,19.27819089
28.00263062,-15.72824295,-4.678670654,-2.639610901,16.62032283
28.01256962,-12.45290405,-3.732637939,-2.397863617,13.2195747
28.02250962,-9.677375793,-2.869832153,-1.717827759,10.23906593
28.03244862,-7.445067902,-2.267185364,-1.410516815,7.909407261
28.04238862,-5.45615387,-1.486259308,-1.542093201,5.861453166
28.05232762,-3.186423798,-0.8768765259,-1.694775696,3.714091237
28.06226662,-1.118324432,-0.476459198,-1.454824677,1.895831676
28.07220662,1.112336884,-0.1032852173,-1.056502991,1.537582436
28.08214562,3.211272125,0.2351609802,-0.7159611511,3.298510227
28.09208462,4.424798584,0.5173242188,-0.4773573303,4.480439362
28.10202462,4.76339447,0.7670050049,-0.1326242065,4.826573602
28.11196362,5.200036469,1.112486572,0.3195854187,5.327301426
28.12190362,6.193071442,1.526076508,1.378034363,6.52549018
28.13184262,8.012837219,2.142644348,3.74655899,9.101274052
28.14178162,8.433163147,2.070344696,5.568270721,10.3155323
28.15172162,6.175108795,0.7568261719,5.549260254,8.336608654
28.16166062,3.567381592,-0.4706213379,4.28019928,5.591761953
28.17159962,1.836530914,-0.7937992859,2.55668335,3.246473911
28.18153962,0.577199707,-0.4605921936,1.069525909,1.299688556
28.19147862,-0.3505709839,0.1110690308,0.03532653809,0.3694378278
28.20141862,-0.9580078125,0.4456233215,-0.5498066711,1.191069473
28.21135762,-1.519190826,0.4210743713,-0.8414002991,1.786952393
28.22129662,-1.95523407,0.3583547974,-1.039737854,2.243304089
28.23123662,-2.123783569,0.3598516846,-1.098266144,2.417878907
28.24117562,-2.06166275,0.4297563171,-0.9764195251,2.321322657
28.25111462,-1.951342163,0.4508624268,-0.9060658264,2.198173889
28.26105462,-1.856289825,0.5140310669,-0.7225474548,2.057210412
28.27099362,-1.631307678,0.7825726318,-0.1164578247,1.813049114
28.28093362,-1.24032074,0.9202862549,0.1901046753,1.55610479
28.29087262,-0.8267308044,0.8262817383,0.0549357605,1.170146688
28.30081162,-0.522563324,0.5902226257,-0.04475692749,0.7895811282
28.31075162,-0.5462141418,0.3887416077,0.2897973633,0.7303782842
28.32069062,-1.355131989,-0.4948709106,5.631439362,5.813294179
28.33063062,-2.975213013,-3.211721191,18.49928055,19.0102716
28.34056962,-5.061574402,-3.261268158,6.49514328,8.856765304
28.35050862,-5.135071564,-1.479074249,-2.691702576,5.983467503
28.36044862,-10.09306137,-3.131937103,2.474204865,10.85359883
28.37038825,-14.80346603,-5.96749054,1.252744904,16.01008806
28.38032725,-24.70806931,-10.42477158,-4.732857971,27.23168184
28.39026725,-43.79742279,-18.74177628,-6.167025604,48.03645101
28.40020625,-58.15436737,-27.79584824,-1.970202942,64.48582265
28.41014625,-51.21135544,-29.2627977,4.5586203,59.15822237
28.42008525,-33.46381165,-27.60200134,8.641829224,44.23096631
28.43002425,-27.85018524,-22.07309875,11.59039764,37.3790292
28.43996425,-24.57305008,-15.14640289,8.585995331,30.11590322
28.44990325,-21.88449097,-9.362131348,4.713548126,24.26515988
28.45984225,-21.82222046,-6.302194519,1.887425079,22.79230868
28.46978225,-21.86203766,-5.058880005,0.2192939758,22.44078981
28.47972125,-21.59708862,-4.831951904,-0.2377056885,22.13229541
28.48966125,-20.37712555,-6.203998718,-0.9351054382,21.32114603
28.49960025,-18.13508789,-6.727759552,-0.6189628601,19.35270721
28.50953925,-16.01729187,-5.709277496,0.04041595459,17.00444418
28.51947925,-13.83288437,-4.197571106,0.6174659729,14.46891694
28.52941825,-11.30015121,-2.949316864,0.3799099731,11.68487137
28.53935725,-8.851094055,-1.904489594,-0.3385958862,9.059999656
28.54929725,-6.294710083,-0.6550378418,-0.8879534912,6.3906894
28.55923625,-4.002526703,0.3739224243,-1.264121246,4.214029012
28.56917625,-1.97394516,1.079105988,-1.760788422,2.856799799
28.57911525,-0.2287243652,1.596430206,-2.307601318,2.815302485
28.58905425,1.244212646,1.831740875,-2.368374939,3.242304673
28.59899425,2.232008514,1.839225311,-1.382974091,3.205811768
28.60893325,3.017724609,1.82530426,-0.3852987671,3.547795456
28.61887225,3.538042603,1.823358307,-0.120050354,3.982058897
28.62881225,3.635939026,2.028581543,0.2838098145,4.173217426
28.63875125,3.866160278,2.534230042,0.963097229,4.721977708
28.64869125,4.208498383,2.90650589,1.889371033,5.452426801
28.65863025,4.817581787,2.971770172,3.052302704,6.430945811
28.66856925,4.632117462,2.59171051,3.763324127,6.50661848
28.67850925,3.095413055,2.129022675,3.619622955,5.216894658
28.68844825,1.133742371,2.146386566,2.412383423,3.422271297
28.69838825,0.1083746338,2.314037933,1.168619843,2.59464621
28.70832725,-0.5255570984,2.306403809,0.5251080322,2.423106939
28.71826625,-0.9704319763,2.16928894,0.1299298096,2.380007244
28.72820625,-1.347797241,2.028282166,-0.1595681763,2.44048109
28.73814525,-1.699865112,1.820364532,-0.3682342529,2.517710249
28.74808425,-2.041903839,1.513053589,-0.5569917297,2.601719093
28.75802425,-2.307002563,0.9868977356,-0.8455915833,2.647877092
28.76796325,-2.264041901,0.3962260437,-1.122515717,2.557913669
28.77790325,-1.838776245,0.1676513672,-1.242715759,2.225656649
28.78784225,-1.21921463,0.09999206543,-1.124910736,1.66189858
28.79778125,-0.6021977234,-0.07993377686,-0.9201365662,1.102580068
28.80772125,0.02574645996,-0.3164419556,-0.808768158,0.8688523032
28.81766025,0.6210585022,-0.5956114197,-0.7087760925,1.114822935
28.82759925,0.7696994019,-1.004111938,-0.4345463562,1.337725117
28.83753925,-0.219743042,-2.597997437,3.359613647,4.252632308
28.84747825,-2.814147949,-7.688162384,11.64623154,14.23593968
28.85741825,-4.726720734,-4.183949432,2.67359024,6.855319578
28.86735725,-9.897268524,-3.147205353,7.589517517,12.86318786
28.87729625,-15.78781906,-4.175267487,9.94217514,19.11896796
28.88723625,-14.82487152,-6.300547943,-2.985840912,16.38258117
28.89717525,-27.69780212,-11.15180969,-5.97213089,30.44991707
28.90711525,-45.03729446,-16.52832916,-6.66593811,48.43530002
28.91705425,-57.18842606,-24.71226059,-0.4352947998,62.30089389
28.92699325,-46.80227417,-28.87181076,4.20760025,55.15195576
28.93693325,-33.09692459,-24.82422775,6.510561218,41.88121426
28.94687225,-29.60094452,-19.20970322,9.937834167,36.66045774
28.95681125,-26.46032547,-12.57295441,6.577172699,30.02477656
28.96675125,-24.5781395,-8.203840027,2.922073517,26.07539925
28.97669025,-23.87684784,-6.002068634,2.080224152,24.70740826
28.98663025,-22.69969574,-5.434149628,2.717898102,23.49879016
28.99656925,-21.39590698,-6.990463257,2.930905151,22.69893427
29.00650825,-19.1688382,-7.614216156,1.420545959,20.67458818
29.01644825,-16.20245682,-6.471642151,1.085093536,17.48082341
29.02638725,-13.76986542,-4.520898743,1.642234955,14.58576891
29.03632625,-11.63844772,-2.645299072,1.519041138,12.03156509
29.04626625,-8.695567474,-1.564247131,0.4972659302,8.849126296
29.05620525,-5.505700836,-0.9874964905,-0.7656578064,5.645717217
29.06614525,-2.799328766,-0.1490899658,-1.861528931,3.365079392
29.07608425,-0.9039701843,0.7442523193,-2.818189545,3.051764394
29.08602325,0.3345542908,1.33267868,-3.339555359,3.611175575
29.09596325,1.6615448,1.43805954,-2.861299896,3.607739383
29.10590225,2.702480164,1.357227631,-2.017654266,3.635435959
29.11584125,3.827989655,1.303639069,-0.9825567627,4.161537866
29.12578125,4.908143463,1.296903076,-0.4014651489,5.092445789
29.13572025,5.294190674,1.241069183,0.01511856079,5.437732632
29.14566025,5.138364716,0.9530680847,0.3951782227,5.240925162
29.15559925,4.853207703,0.3926335144,1.059347076,4.982971233
29.16553825,3.872746582,-0.4927752686,1.945055237,4.361677823
29.17547825,2.204615479,-1.17939743,2.349963226,3.431273069
29.18541725,0.5357359314,-1.118923187,1.7305513,2.129274498
29.19535725,-0.6480024719,-0.4363426208,0.8292755127,1.139298013
29.20529625,-1.150507507,0.2213896179,0.3532653809,1.223714557
29.21523525,-1.249002686,0.8608598328,0.3239263916,1.551133672
29.22517525,-1.382225647,1.363664246,0.6354286194,2.043011856
29.23511425,-1.427880707,1.588047638,1.035696259,2.373479588
29.24505325,-1.103205872,1.276844788,0.9583071899,1.940553652
29.25499325,-0.5192701721,0.5984555054,0.5450166321,0.961682709
29.26493225,0.1013392639,-0.06616241455,0.28081604,0.3057854801
29.27487225,0.513432312,-0.5355862427,0.1478924561,0.7565299339
29.28481125,0.5149291992,-0.4731660461,0.02784210205,0.6998666802
29.29475025,0.413739624,-0.3155438232,-0.1769320679,0.5495937932
29.30469025,0.4261637878,-0.2493814087,-0.4908293152,0.6962184124
29.31462925,0.5909710693,-0.2986289978,-0.5911207581,0.8876090546
29.32456925,0.7415579224,-0.4611909485,-0.5818400574,1.049353656
29.33450825,0.7601193237,-0.9708810425,-0.4147874451,1.300938127
29.34444725,0.8987310791,-1.922901306,0.2335144043,2.135367875
29.35438725,0.7280859375,-4.582720184,4.103566589,6.194408137
29.36432625,-3.080593872,-5.482499084,10.53793625,12.27175437
29.37426587,-8.390801239,-2.768343201,5.689368896,10.50895751
29.38420587,-9.578880615,-1.481768646,-1.072669373,9.751985016
29.39414487,-16.0699823,-1.968855743,3.025957489,16.47049309
29.40408487,-18.87799301,-7.385491791,-4.033362579,20.66862653
29.41402387,-31.22746216,-12.53044281,-5.806425476,34.14499915
29.42396287,-48.20755188,-17.96653839,-6.818770294,51.89662984
29.43390287,-57.72625763,-24.12278641,-0.1011895752,62.56388641
29.44384187,-44.16610611,-28.17800354,11.08444977,53.54913481
29.45378087,-28.95129547,-22.02669525,6.35009491,36.92799099
29.46372087,-28.96880905,-15.45880325,11.77616135,34.88329789
29.47365987,-27.80677551,-10.68792435,8.53105957,30.98753731
29.48359987,-26.36527313,-8.35562439,2.970273285,27.81666065
29.49353887,-27.20891876,-7.888445892,3.708388367,28.57105149
29.50347787,-28.06124634,-9.026978302,4.746629333,29.8571662
29.51341787,-26.30045792,-10.16506165,3.359763336,28.39596053
29.52335687,-23.29770218,-9.455387421,1.292562103,25.17653659
29.53329687,-20.2570752,-7.270680542,-0.8878038025,21.54066124
29.54323587,-16.75840073,-5.231920166,-0.9957293701,17.58432428
29.55317487,-13.34459976,-3.786226501,-0.4556524658,13.87881382
29.56311487,-9.850715332,-2.703378296,-0.03861968994,10.21500554
29.57305387,-6.605763245,-1.944606171,-0.2360591125,6.890088904
29.58299287,-3.287463684,-1.230291595,-1.013692017,3.653574467
29.59293287,0.3067121887,-0.6421646118,-2.005379791,2.1279088
29.60287187,3.412902832,-0.2700384521,-2.617307281,4.309422689
29.61281187,5.764063568,-0.3062631226,-2.641706543,6.347979157
29.62275087,7.164850616,-0.3382965088,-2.48992218,7.59270975
29.63268987,8.249046021,-0.5264552307,-1.541943512,8.408418707
29.64262987,9.128167877,-0.9957293701,-0.4354444885,9.192634969
29.65256887,8.653654633,-1.417252808,0.1396595764,8.770054094
29.66250787,6.841822357,-1.565444641,0.9934840393,7.088593699
29.67244787,4.606071625,-1.716779938,1.688039703,5.19737503
29.68238687,2.10147995,-1.70600235,1.459315338,3.075103779
29.69232687,-0.1933978271,-1.341959381,1.180894318,1.797990292
29.70226587,-1.968406677,-0.9822573853,1.189875641,2.501051471
29.71220487,-2.974015503,-0.5328918457,1.276246033,3.279869794
29.72214487,-3.056493988,-0.1895059204,1.00156723,3.221987726
29.73208387,-2.900817719,0.195643158,0.765358429,3.006458582
29.74202387,-2.577639771,0.5483097839,0.7988887024,2.753741739
29.75196287,-2.120789795,0.8026309204,0.4537065125,2.312534399
29.76190187,-1.494941254,0.9386979675,0.1094224548,1.768608634
29.77184187,-0.8376580811,0.7420069885,-0.09999206543,1.123496259
29.78178087,-0.2345622253,0.3617976379,-0.3239263916,0.5393007283
29.79172087,0.2880010986,0.1908531189,-0.6355783081,0.7234150479
29.80165987,0.6824308777,0.1489402771,-0.7494914246,1.024515741
29.81159887,1.130598907,0.1419049072,-0.5421725464,1.261880328
