Time (s),Acceleration x (m/s^2),Acceleration y (m/s^2),Acceleration z (m/s^2),Absolute acceleration (m/s^2)
0.003442999994,0.6545887756,-0.2866539001,-0.4451742554,0.8419246055
0.013382,1.443598022,-0.7810757446,0.3631448364,1.681049893
0.02332199999,1.42638382,-0.8653504944,-0.03667373657,1.668756196
0.033261,1.215921478,-0.5495072937,-0.2495310974,1.357456841
0.04320099999,0.9762698364,-0.5040019226,-0.2395019531,1.124491848
0.05314,0.6789880371,-0.5128335571,-0.2772235107,0.8949166926
0.06307899999,0.4529580688,-0.4884342957,-0.3335064697,0.7449601591
0.073019,0.3683839417,-0.4649331665,-0.2966830444,0.6632423438
0.08295799998,0.3620970154,-0.4725672913,-0.2237846375,0.6360138814
0.09289699999,0.3791615295,-0.5487588501,-0.2248324585,0.7038816487
0.102837,0.390687561,-0.7476951599,-0.2561174011,0.8816353814
0.112776,0.3926335144,-1.07057373,-0.3291654968,1.186861034
0.122716,0.4912783813,-1.448388062,-0.3050656128,1.559566431
0.132655,0.0383203125,-3.222199402,9.468859406,10.00216656
0.142594,-2.573448486,-7.84892807,15.59801376,17.65010885
0.152534,-3.325634308,-7.47455658,0.8523275757,8.225284306
0.162473,-5.602998505,-7.275769958,6.703210602,11.36940865
0.172412,-6.606511688,-10.73732162,2.755020905,12.90450358
0.182352,-8.116721191,-14.57938202,-1.253343658,16.73351168
0.192291,-10.79420334,-19.04160278,-0.4158352661,21.89224477
0.202231,-12.54840546,-28.83154449,5.696104889,31.95568883
0.21217,-14.77277985,-35.63310059,5.511389008,38.96573226
0.222109,-15.65654205,-37.42966461,3.001109161,40.68308934
0.232049,-13.6281102,-41.13670578,3.311264191,43.46168911
0.241988,-5.781876526,-38.41252075,3.602558441,39.01192477
0.251928,-0.9922865295,-31.56141769,2.676883392,31.69027334
0.261867,-3.600762177,-28.81507874,3.323987732,29.22880677
0.271806,-6.103407898,-28.21213257,3.831881561,29.11802411
0.281746,-6.662046204,-28.68080795,4.210144958,29.74385525
0.291685,-5.787115631,-29.3225235,4.581822052,30.23729791
0.301624,-4.850662994,-27.80018921,5.11680954,28.6803276
0.311564,-4.793332214,-24.23310699,5.250331879,25.25441532
0.321503,-5.226381683,-19.96817596,4.520299988,21.12998412
0.331443,-5.858966217,-15.95083008,2.87372406,17.23411603
0.341382,-6.179449768,-12.63462616,1.413809967,14.13570784
0.351321,-5.713019714,-10.14799713,0.7851173401,11.6720542
0.361261,-4.672683105,-7.866890717,0.4555027771,9.161300111
0.3712,-3.356170807,-5.870043182,-0.2230361938,6.765429372
0.381139,-1.763782196,-4.359833679,-0.9632469177,4.800720984
0.391079,-0.1333726501,-3.242557068,-1.359023895,3.518367597
0.401018,1.063688049,-2.124981079,-1.656006317,2.896434666
0.410958,1.667831726,-0.9849517822,-1.889820099,2.706143508
0.420897,1.839973755,-0.1234931946,-1.660496979,2.481532632
0.430836,1.89550827,0.6596781921,-0.686023407,2.121026882
0.440776,2.011666718,1.553020477,1.165476379,2.795891768
0.450715,2.493963776,2.994822235,4.091441803,5.650549669
0.460655,3.230282593,4.378844147,5.127138062,7.476399293
0.470594,3.502266998,4.456532593,3.350332947,6.584169479
0.480533,2.661016388,2.681374054,1.776356049,4.174471924
0.490473,0.9610015869,0.9231303406,1.17595459,1.777234614
0.500412,-0.08711883545,0.152233429,0.8547225952,0.8725339095
0.510351,-0.5789959717,-0.2653981018,0.6249504089,0.8923202908
0.520291,-0.9819580078,-0.5029541016,0.5204676819,1.21987334
0.53023,-1.260678406,-0.5287005615,0.3032693481,1.40028805
0.54017,-1.309027863,-0.3909869385,-0.1386117554,1.37318533
0.550109,-1.169817352,-0.2468367004,-0.6185137939,1.34609075
0.560048,-1.017434235,-0.1390608215,-0.8893006897,1.358442509
0.569988,-0.8740324402,-0.02933898926,-1.053958282,1.369533331
0.579927,-0.7188052368,0.1299298096,-1.196012878,1.401431243
0.589866,-0.6276448059,0.2752775574,-1.194515991,1.377165273
0.599806,-0.5709127808,0.4333488464,-1.133892059,1.341433497
0.609745,-0.559536438,0.5861810303,-1.015338593,1.299077243
0.619685,-0.6337820435,0.6312373352,-0.7695497131,1.179977548
0.629624,-0.8009843445,0.4388873291,-0.3579057312,0.9809661157
0.639563,-1.052910461,0.06676116943,0.6417155457,1.234858832
0.649503,-1.504072266,-0.4917274475,2.543660431,2.995703198
0.659442,-1.993255005,-1.478924561,4.440366211,5.086957387
0.669382,-2.848426666,-3.666924591,9.470805359,10.54779714
0.679321,-2.636018372,-7.936196594,19.02558609,20.78231785
0.68926,-1.817670135,-9.652976532,11.35688324,15.01541467
0.6992,-2.003733215,-5.054838409,-5.32622406,7.611504508
0.709139,-3.183879089,-6.43317215,-3.742667084,8.095081646
0.719078,-5.629044342,-9.840536499,-3.797902222,11.95601773
0.729018,-8.416547699,-13.4303714,-3.705544281,16.27710691
0.738957,-10.65469345,-17.13980759,-3.202290802,20.43404422
0.748897,-12.43943207,-23.65261414,-0.05852828979,26.72431573
0.758836,-14.68865479,-38.00551712,7.573351135,41.44311232
0.768775,-16.58865372,-41.74249603,0.710123291,44.9235315
0.778715,-16.4415097,-41.72453339,-1.534459076,44.87331604
0.788654,-8.484207001,-42.58180069,5.165757751,43.72501082
0.798593,0.5057981873,-32.52930496,10.39603134,34.1539014
0.808533,-2.552941132,-23.54753265,8.484805756,25.15940642
0.818472,-6.159241791,-20.11726593,8.473429413,22.68126218
0.828412,-7.238796844,-20.58698914,5.977220306,22.62634447
0.838351,-6.417005768,-22.69056473,3.110381927,23.78474651
0.84829,-5.631888428,-23.35473358,0.9138496399,24.04156545
0.85823,-5.323379974,-22.13701584,-0.886456604,22.78533849
0.868169,-5.180427246,-19.17258041,-1.818568268,19.94321581
0.878108,-5.110223236,-16.07282639,-1.579964447,16.93949283
0.888048,-4.594844971,-13.37244186,-1.012195129,14.17601286
0.897987,-3.67635498,-10.77249847,-0.7223977661,11.40544466
0.907927,-2.642604675,-8.359366608,-0.35102005,8.774142957
0.917866,-1.908980255,-6.219865723,0.3686833191,6.516660388
0.927805,-1.46141098,-4.552483063,1.027164001,4.890387508
0.937745,-1.040486298,-3.053649902,1.221160583,3.449438017
0.947684,-0.4011657715,-1.443148956,1.18059494,1.907201431
0.957624,0.3585044861,0.3679348755,1.72591095,1.800741554
0.967563,1.109492798,2.288291473,3.445984039,4.282762909
0.977502,1.615141296,3.752396851,5.883066101,7.162376022
0.987442,2.063009949,4.511318665,7.07428894,8.640229751
0.997381,2.544558563,4.700674896,6.82625473,8.669998639
1.00732,2.709515533,4.431684265,5.786367188,7.775817969
1.01726,2.418969727,3.469784546,4.045187988,5.852722887
1.027199,1.255588989,2.082170105,1.903890839,3.088160679
1.037139,-0.0802331543,0.7334747314,0.5108876038,0.8974567869
1.047078,-0.6499484253,-0.1134640503,-0.2782713318,0.7160600396
1.057017,-0.6921606445,-0.5336402893,-0.730480957,1.139061344
1.066957,-0.6135740662,-0.8105644226,-0.9351054382,1.381271153
1.076896,-0.6508465576,-0.8458909607,-1.131946106,1.555774645
1.086835,-0.689765625,-0.8292755127,-1.227746887,1.634269535
1.096775,-0.5981561279,-0.7698490906,-1.328188019,1.647586656
1.106714,-0.4785548401,-0.7656578064,-1.39120697,1.658524478
1.116654,-0.4242178345,-0.7948471069,-1.525028687,1.771286309
1.126593,-0.4107458496,-0.798589325,-1.831740875,2.040032278
1.136532,-0.2577639771,-0.7770341492,-2.018702087,2.178389877
1.146472,-0.1496887207,-0.7679031372,-1.724114685,1.89331809
1.156411,0.0809815979,-0.6821315002,-1.189725952,1.373793741
1.16635,0.4043092346,-0.6774911499,-0.8529263306,1.161870707
1.17629,0.6327342224,-0.9767189026,-0.5746549988,1.297906306
1.186229,0.7702981567,-1.592687988,-0.1333726501,1.774204763
1.196169,1.798360291,-3.066972198,4.427193604,5.678068457
1.206108,2.769840088,-6.27405304,14.94222748,16.44098287
1.216047,-1.022823029,-10.7084317,8.919501801,13.97405413
1.225987,-3.469784546,-12.09365112,1.861678619,12.71855533
1.235926,-4.524191895,-11.89426575,5.27473114,13.77550938
1.245866,-7.461833038,-14.96483047,1.914668427,16.83125244
1.255805,-11.35463791,-22.31858826,0.8345146179,25.05481188
1.265744,-15.99768265,-34.49037689,4.472998352,38.2821063
1.275684,-19.06225983,-41.96044281,5.833219757,46.45508544
1.285623,-19.65412903,-48.00277771,5.958509216,52.21163939
1.295562,-15.62555649,-47.50551178,4.532275085,50.2142727
1.305502,-9.207203522,-35.17101151,1.56559433,36.38988503
1.315441,-9.585915985,-25.7552916,0.9117539978,27.49647479
1.325381,-10.94269455,-21.3399234,0.7170089722,23.99268632
1.33532,-11.19477036,-20.76257401,0.3034190369,23.59024005
1.34525925,-9.357790375,-22.8806694,-0.5667214966,24.72679612
1.35519925,-6.508615265,-23.44529526,-1.114731903,24.35747461
1.36513825,-4.52239563,-21.29756149,-1.153351593,21.80294493
1.37507725,-4.037853241,-17.6903627,-0.2956352234,18.14774343
1.38501725,-3.965852966,-13.98152527,0.763711853,14.5531541
1.39495625,-3.760480042,-10.6075415,1.564696198,11.36263267
1.40489625,-3.546724548,-7.604636078,2.195484467,8.673516988
1.41483525,-3.318000183,-5.209466858,2.381397858,6.61957143
1.42477425,-2.859204254,-3.668122101,2.007026367,5.065404579
1.43471425,-2.201322327,-2.566562805,1.50242569,3.700046969
1.44465325,-1.396745453,-1.615290985,0.996328125,2.35642368
1.45459225,-0.5701643372,-0.7866142273,0.8223898315,1.272860695
1.46453225,0.1398092651,0.1299298096,1.149459686,1.165197819
1.47447125,0.7571255493,1.348246307,2.149829407,2.64816421
1.48441125,1.080303497,2.689756622,4.530179443,5.378138351
1.49435025,1.451381836,3.910019073,6.562503204,7.775680465
1.50428925,1.980681152,4.128714294,5.986351318,7.536961036
1.51422925,2.436632996,3.745660858,4.58316925,6.400983987
1.52416825,3.030897217,2.817291412,3.192111969,5.226188636
1.53410725,2.735411682,1.191222839,1.988464966,3.585454203
1.54404725,0.9996212769,-0.09774673462,0.8238867188,1.299071379
1.55398625,-0.07813751221,-0.5536985779,-0.1908531189,0.5908574269
1.56392625,-0.3293151855,-0.8571176147,-0.9401948547,1.314178626
1.57386525,-0.4170327759,-1.036893768,-1.436412964,1.819985502
1.58380425,-0.5487588501,-1.061742096,-1.755249939,2.123519461
1.59374425,-0.7027885437,-1.01563797,-1.889221344,2.257119738
1.60368325,-0.7238946533,-0.9235794067,-1.897454224,2.230998637
1.61362225,-0.6038442993,-0.8325686646,-1.88967041,2.151430403
1.62356225,-0.4093986511,-0.7758366394,-1.82530426,2.025158115
1.63350125,-0.1916015625,-0.7152127075,-1.706750793,1.860440444
1.64344125,-0.0347277832,-0.697250061,-1.580563202,1.727872594
1.65338025,0.1004411316,-0.7021897888,-1.491348724,1.651447831
1.66331925,0.222437439,-0.705333252,-1.360371094,1.548413034
1.67325925,0.4531077576,-0.7264393616,-1.142124939,1.427399791
1.68319825,0.6926097107,-0.8590635681,-0.8598120117,1.398919269
1.69313725,0.8792715454,-1.217568054,-0.5433700562,1.597135384
1.70307725,2.055076447,-2.643951874,2.484383698,4.169650233
1.71301625,3.487447815,-4.974305878,6.274352417,8.733470643
1.72295625,2.674488373,-6.637646942,6.213728485,9.477429328
1.73289525,0.1728904724,-11.20195541,9.553283844,14.72341429
1.74283425,-3.641178131,-13.48440903,9.379046173,16.82420792
1.75277425,-8.848100281,-14.40005493,10.10428802,19.69129496
1.76271325,-10.27987289,-15.11287262,-1.474583588,18.33709634
1.77265225,-12.24453735,-18.84670807,-3.881278839,22.8077054
1.78259225,-16.03001541,-25.61099167,-1.661245422,30.25961045
1.79253125,-18.78533569,-40.40368011,7.882458344,45.24908124
1.80247125,-15.99214417,-48.80286392,15.38276138,53.61061042
1.81241025,-8.017627258,-38.47913223,2.598596191,39.39135269
1.82234925,-2.308948517,-35.12879929,-1.235979767,35.22628888
1.83228925,-4.184099121,-33.03989319,-1.048270111,33.32026557
1.84222825,-8.025710449,-29.51771759,-1.141376495,30.61062594
1.85216725,-9.838141479,-26.85191116,-1.294358368,28.62672745
1.86210725,-10.41070084,-25.29799255,-1.216969299,27.38342808
1.87204625,-9.271869049,-23.41131592,-0.7650590515,25.19211353
1.88198625,-7.899522858,-20.24674667,0.1044827271,21.73347945
1.89192525,-7.491172028,-16.3898671,0.8384065247,18.04018645
1.90186425,-7.549101563,-12.98429901,1.395547943,15.08404817
1.91180425,-7.583679657,-10.17868332,2.242786102,12.88983634
1.92174325,-7.270530853,-7.830965424,3.404520264,11.21496307
1.93168225,-6.511609039,-5.669909363,4.23334671,9.616140017
1.94162225,-5.156027985,-3.983067169,4.22750885,7.766677522
1.95156125,-3.885919189,-2.928510132,3.354224854,5.909937724
1.96150125,-2.858455811,-2.26059906,1.946103058,4.131391393
1.97144025,-1.929936676,-1.528920593,0.637224884,2.543287107
1.98137925,-1.331780548,-0.776585083,0.02155517578,1.541813363
1.99131925,-0.7017407227,0.02320175171,0.3752696228,0.7961191198
2.00125825,0.04790039063,0.889151001,0.7981402588,1.195789205
2.01119825,0.453407135,1.786534882,1.199156342,2.198922655
2.02113725,0.868793335,2.190095673,1.176403656,2.633485613
2.03107625,1.231938171,2.193688202,0.7054829407,2.612976419
2.04101625,1.621128845,2.025887146,0.2263293457,2.604515777
2.05095525,1.779050446,1.743125153,-0.1465452576,2.494991242
2.06089425,1.804796906,1.548679504,-0.6496490479,2.465308087
2.07083425,1.794019318,1.336570587,-1.249751129,2.562577634
2.08077325,1.685644684,1.159788208,-1.516795807,2.546993562
2.09071325,1.402733002,1.003662872,-1.440454559,2.247200119
2.10065225,1.025218048,0.8644523621,-1.271755371,1.848164402
2.11059125,0.5842350769,0.6902146912,-1.126707001,1.444712986
2.12053125,0.1695973206,0.5011578369,-1.008752289,1.139080159
2.13047025,-0.119002533,0.3778143311,-0.9616003418,1.03999062
2.14040925,-0.2847079468,0.3070115662,-0.959355011,1.046745792
2.15034925,-0.3761677551,0.2432441711,-0.9755213928,1.073457915
2.16028825,-0.4810995483,0.1251397705,-0.9982740784,1.11519858
2.17022825,-0.5430706787,0.04311035156,-0.9226812744,1.071505949
2.18016725,-0.6483018494,-0.03817062378,-0.800684967,1.030945537
2.19010625,-0.7848179626,-0.1005908203,-0.6026467896,0.9946059021
2.20004625,-0.993633728,-0.1957928467,-0.270637207,1.048278266
2.20998525,-1.229243774,-0.4162843323,0.2749781799,1.326629527
2.21992425,-1.797013092,-1.100960541,5.818250885,6.188167219
2.22986425,-1.861977997,-2.756218414,13.65849701,14.05767557
2.23980325,-2.096540222,-5.518723755,18.92349838,19.8229812
2.24974325,-3.57456665,-6.434070282,3.63309494,8.208176775
2.25968225,-3.09840683,-3.884272614,-6.34305954,8.05742533
2.26962125,-4.414320374,-6.289620667,-3.971092072,8.649573673
2.27956125,-6.263724518,-12.55214767,0.01691482544,14.02821949
2.28950025,-7.909402313,-19.18949524,-2.451003113,20.89982748
2.29943925,-12.91304718,-30.9840683,-3.490291901,33.74820608
2.30937925,-19.50219498,-50.34585526,1.141526184,54.00318354
2.31931825,-21.52164551,-59.83297668,6.240971832,63.8914396
2.32925825,-11.79996185,-46.54690521,5.4292099,48.32525018
2.33919725,-4.733307037,-35.26845886,6.870113525,36.24178315
2.349136292,-5.527854767,-26.33758072,7.593110046,27.96212897
2.359076292,-8.297844543,-21.82386703,4.310137024,23.74263418
2.369015292,-10.09590546,-21.47718796,2.434537354,23.85631744
2.378954292,-9.116941223,-24.96074387,0.713865509,26.58320815
2.388894292,-7.521858215,-25.31341049,0.1323248291,26.40766199
2.398833292,-6.617139587,-22.22054214,0.09714797974,23.18509149
2.408773292,-6.442003784,-18.44659012,0.3511697388,19.54224705
2.418712292,-6.228996735,-14.86962845,1.127754822,16.16100496
2.428651292,-5.511389008,-11.75475586,1.83817749,13.11215431
2.438591292,-4.623884583,-9.202563171,2.328707428,10.55889937
2.448530292,-3.722309418,-7.057374115,2.429447937,8.340523609
2.458469292,-2.805166626,-5.413193207,2.294129333,6.514188353
2.468409292,-2.13890213,-4.193978577,2.201322327,5.197131768
2.478348292,-1.820813599,-3.129093018,1.995500336,4.133836821
2.488288292,-1.391057281,-2.011067963,1.568288727,2.904989542
2.498227292,-1.111887817,-0.8289761353,0.8689430237,1.636630053
2.508166292,-0.5533992004,0.330662384,0.5381309509,0.8397459185
2.518106292,0.2380050659,1.453776855,1.257385254,1.936783734
2.528045292,0.6572831726,2.564766541,2.063908081,3.357047087
2.537984292,1.066083069,3.53834198,2.368075562,4.389097737
2.547924292,1.753603363,4.210444336,2.613565063,5.256775495
2.557863292,2.511926422,4.041146393,2.520159302,5.384407249
2.567803292,3.162024536,2.964285736,1.524130554,4.594383858
2.577742292,3.222199402,1.647923126,0.03053649902,3.619275078
2.587681292,2.819387054,0.7764353943,-1.163231049,3.147205388
2.597621292,2.294877777,0.2365081787,-1.390458527,2.693654589
2.607560292,1.836830292,-0.2371069336,-1.255289612,2.237390719
2.617499292,1.55152359,-0.6747967529,-1.226549377,2.089736702
2.627439292,1.229543152,-0.9126521301,-1.233435059,1.966233027
2.637378292,0.8647517395,-1.024768982,-1.242117004,1.827786008
2.647318292,0.4581971741,-1.058299255,-1.216370544,1.676156098
2.657257292,0.07379653931,-1.052162018,-1.276395721,1.655800978
2.667196292,-0.130229187,-1.020877075,-1.121467896,1.522116909
2.677136292,-0.1365161133,-0.9340576172,-0.7563771057,1.209630773
2.687075292,-0.1712438965,-0.7753875732,-0.6063890076,0.999128615
2.697014292,-0.2999761963,-0.4471202087,-0.4947212219,0.7311985276
2.706954292,-0.3758683777,-0.06855743408,-0.09490264893,0.3936796564
2.716893292,-0.5243595886,0.01362167358,0.4658312988,0.7015250011
2.726832292,-0.6963519287,-0.1594184875,1.230740662,1.423039999
2.736772292,-1.083746338,-0.4935237122,2.520758057,2.78788324
2.746711292,-1.807640991,-1.150507507,4.264781342,4.772797227
2.756651292,-2.640958099,-3.175197144,6.188730469,7.440223209
2.766590292,-2.296674042,-4.855602722,1.352138214,5.538940982
2.776529292,-1.541195068,-4.061054993,-1.250948639,4.520212649
2.786469292,-4.507426758,-7.626041565,5.098397827,10.22091318
2.796408292,-6.987319794,-13.67825592,5.162763977,16.20405674
2.806347292,-9.189390564,-19.15880905,-0.7774832153,21.26286301
2.816287292,-12.85661453,-27.92697556,1.114133148,30.76442415
2.826226292,-17.16166214,-37.7112291,1.661694489,41.46589775
2.836166292,-21.89302322,-48.97949661,1.497036896,53.67063139
2.846105292,-20.81182159,-54.66721893,4.351002045,58.65635484
2.856044292,-12.54586075,-48.36352753,7.137756958,50.47154635
2.865984292,-10.28601013,-35.1564917,7.730673981,37.43720386
2.875923292,-12.75332932,-26.27246613,6.609056396,29.9427706
2.885862292,-13.8670134,-20.65375031,4.994513855,25.37354195
2.895802292,-14.29093185,-17.75757294,3.612587585,23.07840807
2.905741292,-13.56853409,-17.59845383,1.963317261,22.30841341
2.915681292,-12.08706482,-17.03861801,1.46260849,20.94160603
2.925620292,-10.23526566,-16.2106897,0.9865983582,19.19688776
2.935559292,-8.153394928,-15.70474182,0.2917433167,17.69751052
2.945499292,-5.948180695,-14.86858063,-0.4728666687,16.02120927
2.955438292,-3.540138245,-13.2471524,-1.4040802,13.78372471
2.965377292,-1.44853775,-11.28114075,-1.518143005,11.47463099
2.975317292,-0.1011895752,-9.032367096,-0.9488768005,9.082635183
2.985256292,0.3867956543,-6.760242004,-0.2959346008,6.777762177
2.995196292,0.5990542603,-4.774770813,0.2674937439,4.819632271
3.005135292,0.9289682007,-3.055446167,0.5164260864,3.235031545
3.015074292,1.065783691,-1.472038879,0.5969586182,1.912891249
3.025014292,1.387913818,0.06706054688,0.7131170654,1.561837966
3.034953292,2.1260289,1.579515381,1.333576813,2.965349025
3.044892292,2.716700592,2.66311203,2.02888092,4.311494588
3.054832292,2.83974472,3.283122711,2.185455322,4.859964998
3.064771292,3.183729401,3.698359222,2.148182831,5.331855522
3.074711292,3.450923767,3.828588409,1.717378693,5.432895511
3.084650292,3.229085083,3.575614471,1.06009552,4.933134078
3.094589292,2.644550629,3.2235466,0.6670129395,4.22253561
3.104529292,1.973496094,3.07610321,0.7455995178,3.730015608
3.114468292,1.582958221,2.908900909,0.9725276184,3.451560691
3.124407292,1.452279968,2.410138092,0.7731422424,2.918155523
3.134347292,1.261127472,1.623374176,0.3519181824,2.085577288
3.144286292,1.14901062,1.048120422,-0.01317260742,1.555299117
3.154226292,0.98989151,0.6212081909,-0.3155438232,1.210517543
3.164165292,0.8018824768,0.3183879089,-0.5152285767,1.004911366
3.174104292,0.519868927,-0.001496887207,-0.62599823,0.8137196851
3.184044292,0.2191442871,-0.3695814514,-0.7038363647,0.8246213047
3.193983292,0.04161346436,-0.7153623962,-0.8640032959,1.122486852
3.203922292,-0.06346801758,-0.9886940002,-0.9436376953,1.368209091
3.213862292,-0.2624043274,-1.169967041,-0.6996450806,1.388229861
3.223801292,-0.5712121582,-1.197659454,-0.3227288818,1.365586112
3.233740292,-0.883762207,-1.231339417,0.2305206299,1.533092351
3.243680292,-1.268611908,-1.645228729,1.753603363,2.718690585
3.253619292,-1.673819275,-2.652334442,4.935087433,5.847361536
3.263559292,-1.466350708,-4.672683105,8.979077911,10.22780484
3.273498292,-1.494641876,-7.875722351,10.78402451,13.43711805
3.283437292,-1.714833984,-5.060376892,1.147513733,5.464874898
3.293377292,-0.8861572266,-2.690056,-1.117126923,3.044609741
3.303316292,-1.785786438,-5.014272766,-0.2610571289,5.329175865
3.313255292,-2.925666046,-7.39492218,-0.8704399109,8.000128843
3.323195292,-5.297483826,-11.36960678,-0.9235794067,12.5771337
3.333134292,-8.189320221,-17.22902206,-0.8599617004,19.09564613
3.343074292,-11.40149048,-30.84395966,2.400707703,32.97130919
3.353013125,-18.68803802,-47.52227692,-0.7801776123,51.07071808
3.362952125,-23.12017136,-49.41718643,-2.990930328,54.64015284
3.372892125,-20.01712418,-53.91473373,-0.09026229858,57.5107983
3.382831125,-11.49848877,-46.41023941,4.783153381,48.052098
3.392770125,-8.2280896,-31.18105865,8.011190643,33.22858788
3.402710125,-9.977202301,-22.83890625,10.04456223,26.87105198
3.412649125,-12.03796692,-18.72171799,9.948761444,24.38018101
3.422589125,-13.64203125,-17.63677414,7.643555145,23.57084542
3.432528125,-13.04477325,-18.59747635,3.819906464,23.03527558
3.442467125,-11.35164413,-18.43281876,1.310824127,21.68748237
3.452407125,-9.971065063,-17.39981689,0.1851649475,20.05517521
3.462346125,-8.099656677,-15.97163681,-1.136287079,17.9440455
3.472285125,-6.188880157,-14.0434964,-1.934726715,15.46819951
3.482225125,-4.58676178,-12.01027451,-2.015708313,13.01338378
3.492164125,-2.852168884,-9.865983582,-1.950144653,10.45349528
3.502104125,-1.358874207,-7.761060791,-1.314716034,7.98805871
3.512043125,-0.4942721558,-5.921087036,-0.4487667847,5.958604558
3.521982125,0.09340576172,-4.518054657,0.146844635,4.521405298
3.531922125,0.5179229736,-3.406615906,0.384250946,3.467120552
3.541861125,0.7804769897,-2.168690186,0.7557783508,2.425605567
3.551800125,1.068627777,-0.5191204834,1.824855194,2.177509559
3.561740125,1.479822693,1.301992493,3.372486877,3.906242106
3.571679125,2.240540771,2.634521484,4.257147217,5.484890958
3.581618125,3.034489746,3.234623566,4.476890259,6.301861949
3.591558125,3.578458557,3.485501862,4.397854614,6.655464979
3.601497125,4.106560364,3.32533493,3.998485107,6.626429927
3.611437125,4.459676056,2.863694916,3.05978714,6.119784019
3.621376125,4.599485321,2.228565674,2.033670959,5.500689752
3.631315125,4.622537384,1.471589813,1.365759888,5.039715123
3.641255125,3.998335419,0.6243516541,0.972228241,4.161938114
3.651194125,2.842289429,0.03667373657,0.6857240295,2.924067647
3.661133125,2.12019104,-0.1917512512,0.5800437927,2.206451765
3.671073125,1.680854645,-0.3644920349,0.5542973328,1.807034121
3.681012125,1.115180969,-0.5457650757,0.393381958,1.30239682
3.690952125,0.4724176025,-0.7917036438,0.02245330811,0.9222132084
3.700891125,-0.01571731567,-0.9903405762,-0.417481842,1.074854678
3.710830125,-0.3275189209,-1.05306015,-0.8613088989,1.399306022
3.720770125,-0.5680686951,-1.0285112,-1.271156616,1.73100447
3.730709125,-0.7125183105,-1.011147308,-1.619781647,2.038085819
3.740648125,-0.8898994446,-1.039139099,-1.61708725,2.118183718
3.750588125,-1.009351044,-1.044378204,-1.386716309,2.008107936
3.760527125,-1.080902252,-1.080153809,-1.17355957,1.926739213
3.770467125,-0.8768765259,-1.288670197,-0.8779243469,1.788947868
3.780406125,-0.3549119568,-1.480571136,-0.6439608765,1.653099815
3.790345125,-0.2408491516,-2.023342438,0.716559906,2.159949313
3.800285125,-1.142274628,-3.735032959,8.782536621,9.611878694
3.810224125,-2.279908905,-5.57425827,5.234015808,7.979051407
3.820163125,-2.017953644,-5.682932281,1.066681824,6.124186994
3.830103125,-2.874472504,-7.284751282,3.492088165,8.574664609
3.840042125,-4.059558105,-9.899513855,1.38536911,10.78886621
3.849981125,-7.297474823,-14.22985886,-0.2127076721,15.99335069
3.859921125,-13.41330688,-27.62505341,6.651867371,31.42145313
3.869860125,-19.37376205,-39.67245071,7.90745636,44.85280223
3.879800125,-22.62080978,-42.98625961,1.715881805,48.60518286
3.889739125,-25.42687454,-51.23201248,2.83046402,57.26479353
3.899678125,-19.54380844,-47.96565491,3.883673859,51.93984426
3.909618125,-10.21116577,-33.83938065,3.438798981,35.5133345
3.919557125,-9.664801941,-25.45022598,3.41904007,27.43742397
3.929496125,-10.538535,-22.14884125,3.347339172,24.75553611
3.939436125,-10.79839462,-20.71063202,2.878214722,23.53337471
3.949375125,-10.37088364,-21.12197662,2.680775299,23.68289847
3.959315125,-9.528285828,-21.73061096,2.334844666,23.84238208
3.969254125,-8.738528137,-20.63563797,2.24188797,22.52148952
3.979193125,-8.262967072,-18.14616486,2.323019257,20.0737725
3.989133125,-7.688910828,-15.30013321,2.500550079,17.30509106
3.999072125,-6.86607193,-12.21579712,2.712808685,14.27333086
4.009011125,-5.69131485,-9.212292938,2.675685883,11.15422345
4.018951125,-4.184997253,-6.718778229,2.236499176,8.225455092
4.028890125,-2.379302216,-4.954397278,1.40063736,5.671764843
4.038830125,-0.8032296753,-3.427422638,0.4388873291,3.547538011
4.048769125,0.08262817383,-2.139500885,-0.3182382202,2.16461706
4.058708125,0.4433779907,-1.241667938,-0.9627978516,1.632575577
4.068648125,0.5797444153,-0.7295828247,-1.464853821,1.736142679
4.078587125,0.8038284302,-0.2881507874,-1.50706604,1.732171779
4.088526125,1.130748596,0.2682421875,-1.215472412,1.681641889
4.098466125,1.29405899,0.6929090881,-0.6911128235,1.62245142
4.108405125,1.214125214,1.122366028,-0.3294648743,1.685927827
4.118344125,1.113085327,1.537752228,0.1233435059,1.902328699
4.128284125,1.022074585,2.279160461,1.389560394,2.858336396
4.138223125,1.035396881,3.133284302,3.017724609,4.471708738
4.148163125,1.539698181,3.608995056,3.563789062,5.300576222
4.158102125,2.465672607,4.030668182,3.684737549,5.991921078
4.168041125,3.29734314,3.634741516,3.221600647,5.870479401
4.177981125,3.020568695,2.124232635,1.87335434,4.140731338
4.187920125,1.879790955,0.8851094055,0.8165519714,2.232440327
4.197859125,1.064137115,0.2273771667,0.0252973938,1.088452174
4.207799125,0.567020874,-0.1562750244,-0.590072937,0.8331390195
4.217738125,0.3460803223,-0.3131488037,-0.9827064514,1.087908881
4.227677125,0.2737806702,-0.4818479919,-1.200204163,1.32197707
4.237617125,0.2061213684,-0.6042933655,-1.21577179,1.373228872
4.247556125,0.07020401001,-0.6188131714,-1.015338593,1.191121657
4.257496125,-0.02664459229,-0.5810916138,-0.8719367981,1.048165625
4.267435125,-0.1032852173,-0.5162763977,-0.7884104919,0.948050768
4.277374125,-0.1811233521,-0.4567002869,-0.729433136,0.8794620632
4.287314125,-0.2348616028,-0.4590953064,-0.6108796692,0.7994388301
4.297253125,-0.2200424194,-0.5165757751,-0.4334985352,0.7093589908
4.307192125,-0.1405577087,-0.6237528992,-0.1648072815,0.6602920481
4.317132125,-0.2287243652,-1.382974091,3.773802338,4.025731766
4.327071125,-2.013313293,-4.291575623,16.96392334,17.61379422
4.337011125,-3.033741302,-7.591613159,12.36219269,14.82093063
4.346950417,-0.8012837219,-3.949536896,-2.934946747,4.985459828
4.356889417,-1.122815094,-4.221072235,-0.8345146179,4.446861724
4.366829417,-3.568429413,-8.767567749,0.6724017334,9.489786973
4.376768417,-6.383325806,-13.2113768,-3.059338074,14.98822454
4.386707417,-13.77315857,-22.45315842,-3.311862946,26.54830797
4.396647417,-22.25062958,-37.03224106,-3.31949707,43.33008718
4.406586417,-28.96925812,-56.81689865,-1.370400238,63.79071943
4.416525417,-27.05698471,-53.17122986,0.2483335876,59.66005176
4.426465417,-16.92186081,-49.62690033,4.334087219,52.61143337
4.436404417,-12.73925858,-35.93143021,10.00205063,39.41316281
4.446344417,-13.99125504,-24.55853027,8.689280548,29.56992092
4.456283417,-13.79022308,-18.95598083,6.382577362,24.29478866
4.466222417,-12.69794449,-16.97410217,4.218228149,21.61368519
4.476162417,-11.64997375,-17.32617004,2.801873474,21.06581477
4.486101417,-11.09298203,-18.59777573,1.746717682,21.72515903
4.496040417,-10.41728714,-18.69462433,0.3603007507,21.40417405
4.505980417,-9.603429565,-16.91826828,-0.7080276489,19.46676563
4.515919417,-8.608149261,-14.46995956,-1.095871124,16.87248935
4.525859417,-7.21589447,-12.02928497,-0.9421408081,14.05917705
4.535798417,-5.365592194,-9.75850708,-0.8934919739,11.17212459
4.545737417,-3.866759033,-7.734715576,-0.8649014282,8.690552626
4.555677417,-2.824326782,-5.993835754,-0.6798861694,6.660715729
4.565616417,-2.01960022,-4.512665863,-0.3171903992,4.954144526
4.575555417,-1.412462769,-3.268303528,-0.08128097534,3.561385351
4.585495417,-0.6228547668,-1.730850677,0.6363267517,1.946459315
4.595434417,0.1073268127,0.6724017334,2.609673157,2.697042291
4.605373417,1.064436493,3.296295319,5.065765686,6.136820827
4.615313417,2.296524353,5.113666077,6.513405304,8.593489018
4.625252417,3.74311615,5.70418808,7.08371933,9.835027184
4.635192417,4.970713348,5.072052612,6.577172699,9.679509781
4.645131417,5.008135529,3.431015167,3.73024292,7.12516658
4.655070417,3.811823273,1.640887756,0.08277786255,4.1508266
4.665010417,3.152145081,0.8878038025,-1.304986267,3.525223873
4.674949417,2.301763458,0.4718188477,-1.317859497,2.693971362
4.684888417,1.034947815,-0.004640350342,-0.8809181213,1.359100897
4.694828417,0.346230011,-0.2317181396,-0.655486908,0.7766798589
4.704767417,-0.03876937866,-0.3634442139,-0.7051835632,0.7942786785
4.714707417,-0.2453398132,-0.4980143738,-0.8710386658,1.032917372
4.724646417,-0.367635498,-0.6243516541,-1.120719452,1.334534727
4.734585417,-0.3625460815,-0.6596781921,-1.40527771,1.594183308
4.744525417,-0.2860551453,-0.5712121582,-1.618733826,1.740232764
4.754464417,-0.2577639771,-0.4076023865,-1.69312912,1.760473854
4.764403417,-0.3131488037,-0.2615061951,-1.632056122,1.682276686
4.774343417,-0.4050576782,-0.1481918335,-1.516047363,1.576208156
4.784282417,-0.5002597046,0.03547622681,-1.343156891,1.43373246
4.794221417,-0.6173162842,0.2429447937,-0.979712677,1.183189967
4.804161417,-0.8208929443,0.2270777893,-0.6242019653,1.055962898
4.814100417,-1.232387238,0.05583389282,0.05074447632,1.234694589
4.824040417,-2.365530853,-0.2086660767,3.099454651,3.904599452
4.833979417,-3.481909332,-1.107846222,7.157665558,8.036366846
4.843918417,-3.314407654,-3.359014893,12.10293182,12.99035172
4.853858417,-2.183509369,-7.586074677,14.57414291,16.57473631
4.863797417,-2.443668365,-5.877677307,1.41695343,6.521224013
4.873736417,-2.859803009,-3.99579071,-2.971321106,5.742261381
4.883676417,-5.098547516,-7.021448822,-2.828069,9.126549436
4.893615417,-6.915618896,-10.57550812,-3.461851044,13.10158652
4.903554417,-10.21191422,-15.87733292,-2.756966858,19.07809631
4.913494417,-14.49959793,-28.76478333,7.738308105,33.12902824
4.923433417,-20.77889008,-39.33116043,6.29500946,44.92582328
4.933373417,-24.93963776,-40.89136597,-3.65539856,48.03593739
4.943312417,-21.49964127,-40.51654541,-4.499044189,46.08759513
4.953251417,-10.91530151,-41.00228531,1.663640442,42.46291214
4.963191417,-3.477418671,-33.35663452,4.231700134,33.80332518
