Time (s),Acceleration x (m/s^2),Acceleration y (m/s^2),Acceleration z (m/s^2),Absolute acceleration (m/s^2)
0.001443958346,-19.21808578,-4.559219055,62.25374268,65.31194207
0.01138395834,-18.92709091,-1.620979156,20.90343109,28.24563285
0.02132295835,-10.97622482,2.2746698,7.874375153,13.69881083
0.03126195833,-13.84635635,2.058519287,-5.096302185,14.89736157
0.04120195835,-15.46958084,0.7411088562,-5.134772186,16.31634331
0.05114095833,-13.08084824,0.8095166016,-2.41507782,13.326534
0.06107995834,-9.948013,0.8370593262,-0.9642947388,10.02963087
0.07101995836,-7.664511566,0.2866539001,-0.2070195007,7.672663493
0.08095895834,-5.897136841,-0.3704795837,-0.1206491089,5.909994437
0.09089895835,-4.292623444,-0.8406518555,-0.2656974792,4.382226229
0.1008379583,-2.953508148,-0.959355011,-0.4481680298,3.137582987
0.1107769583,-1.974992981,-0.7197033691,-0.4758604431,2.155229309
0.1207169583,-1.30812973,-0.3918850708,-0.3893403625,1.419987048
0.1306559583,-0.7361691284,-0.2683918762,-0.552052002,0.958509571
0.1405949583,-0.2565664673,-0.1679507446,-0.3861968994,0.4931347178
0.1505349583,0.001796264648,-0.1209484863,-0.3447331238,0.3653391432
0.1604739583,0.2399510193,-0.1321751404,-0.3616479492,0.4536915236
0.1704139583,0.528999939,-0.2037263489,-0.5378315735,0.7814142065
0.1803529583,0.9136999512,-0.4748126221,-1.254690857,1.623127775
0.1902919583,1.476379852,-0.7542814636,-2.78016861,3.23697011
0.2002319584,2.283202057,-0.7330256653,-4.574936371,5.165305514
0.2101709583,3.151246948,-0.6715036011,-5.348976746,6.244423644
0.2201099583,3.755091248,-0.559536438,-5.679339752,6.831448699
0.2300499583,3.955973511,-0.287252655,-5.861211548,7.077149236
0.2399889583,4.005520477,-0.0758921814,-5.944288788,7.168299876
0.2499279583,3.718118134,-0.002395019531,-5.898633728,6.972681554
0.2598679583,3.713328094,0.1905537415,-5.618865509,6.737712214
0.2698069583,3.801494751,0.3135978699,-5.211113434,6.457972529
0.2797469583,3.638483734,0.3332070923,-4.688101044,5.943726293
0.2896859583,3.457510071,0.5095404053,-4.090992737,5.380541691
0.2996249583,3.107687531,0.7104226685,-3.476819916,4.717064647
0.3095649584,2.569406891,0.8228388977,-2.74618927,3.849736501
0.3195039583,2.04175415,0.8273295593,-1.989363098,2.968299134
0.3294429583,1.63460083,0.809815979,-1.400188293,2.299619327
0.3393829583,1.353934479,0.7786807251,-0.9035211182,1.8043926
0.3493219583,1.051413574,0.6912625122,-0.4869374084,1.349230301
0.3592619583,0.8524772644,0.6517446899,-0.1926493835,1.09023044
0.3692009583,0.9689350891,0.6725514221,-0.1083746338,1.184443196
0.3791399583,1.28118576,0.6535409546,-0.1978884888,1.451796331
0.3890799583,1.752555542,0.5932164001,-0.5128335571,1.919988251
0.3990189583,2.240540771,0.5685177612,-0.8942404175,2.478487708
0.4089579583,2.55084549,0.5396278381,-1.215472412,2.876696734
0.4188979583,2.473157043,0.5647755432,-1.312770081,2.856368754
0.4288369583,1.821562042,0.5813909912,-1.163231049,2.2381265
0.4387769584,0.9903405762,0.5149291992,-0.8825646973,1.422971181
0.4487159583,0.4638853455,0.4658312988,-0.7926017761,1.029760161
0.4586549583,0.003742218018,0.4173321533,-1.385818176,1.447298224
0.4685949583,-0.8825646973,0.2053729248,-3.501219177,3.616577693
0.4785339583,-2.823578339,-0.365539856,-7.349117432,7.881354011
0.4884729583,-6.837182007,-1.058448944,-8.513396301,10.97020002
0.4984129583,-18.40228226,-2.551294556,-9.691745911,20.95430827
0.5083519583,-53.88838852,-8.721313934,-12.36788086,55.97306683
0.5182909583,-80.23854309,-16.21278534,-17.05837692,83.61857706
0.5282309583,-78.26414886,-10.45291306,-3.075055389,79.01896199
0.5381699583,-78.63388,-2.262844391,19.00043839,80.92851295
0.5481099583,-60.49415176,-1.83473465,59.70289719,85.01379054
0.5580489583,-26.03476044,-4.521647186,62.0039122,67.39984549
0.5679879583,-22.66182449,-0.6858737183,23.28902023,32.502418
0.5779279583,-13.1383287,3.644022217,9.347012787,16.53061484
0.5878669583,-15.85008957,1.996997223,-4.569397888,16.61603847
0.5978059583,-15.85622681,0.5685177612,-3.755240936,16.30475316
0.6077459583,-12.89463547,0.9211843872,-0.7744894409,12.95067714
0.6176849583,-9.470356293,0.4852908325,0.5254074097,9.497326384
0.6276249583,-6.677913208,-0.5132826233,0.9693841553,6.767399021
0.6375639583,-4.797822876,-1.152752838,0.5158273315,4.961251988
0.6475029583,-3.273093567,-1.225651245,-0.1197509766,3.497099193
0.6574429583,-1.990859985,-1.040935364,-0.4679269409,2.294782241
0.6673819583,-1.126407623,-0.6917115784,-0.5941145325,1.449217416
0.6773209583,-0.7417076111,-0.423918457,-0.5837860107,1.034718872
0.6872609583,-0.672102356,-0.2583627319,-0.6137237549,0.946112956
0.6971999583,-0.5014572144,-0.1029858398,-0.9611512756,1.088979888
0.7071399583,-0.3246748352,-0.08322692871,-2.00552948,2.033344281
0.7170789583,-0.4076023865,-0.03847000122,-2.78944931,2.819334514
0.7270179583,-0.6665638733,-0.03891906738,-3.349883881,3.415778697
0.7369579583,-0.2995271301,-0.1824705505,-4.492757263,4.506426503
0.7468969583,1.210682373,-0.1794767761,-5.635630646,5.76700065
0.7568359583,2.745889893,-0.2588117981,-6.859485626,7.393202142
0.7667764167,4.154011688,-0.2163002014,-7.717201996,8.766858361
0.7767154167,5.222639465,-0.05463638306,-7.666008453,9.276132477
0.7866554167,5.708678741,0.1645079041,-6.87774765,8.939770051
0.7965944167,5.867348785,0.03173400879,-5.926176453,8.339445795
0.8065334167,5.744753723,-0.1001417542,-5.486989746,7.944764325
0.8164734167,5.12728775,0.2007325745,-5.220244446,7.319858285
0.8264124167,4.298161926,0.3131488037,-4.417014771,6.171083989
0.8363514167,3.992796936,0.3727249146,-3.547922058,5.354353571
0.8462914167,3.652105408,0.4818479919,-2.767744446,4.607652408
0.8562304167,3.171903992,0.5644761658,-2.162403259,3.880154137
0.8661704167,2.54845047,0.6381230164,-1.463057556,3.007048086
0.8761094167,1.854044495,0.699944458,-0.7012916565,2.102192479
0.8860484167,1.137035522,0.6306385803,-0.2257305908,1.319662494
0.8959884167,0.807121582,0.5412744141,-0.04909790039,0.9730538748
0.9059274167,0.6664141846,0.6239025879,0.189206543,0.9322882711
0.9158664167,0.6638694763,0.7024891663,0.4120930481,1.050730408
0.9258064167,1.049916687,0.8144563293,0.5275030518,1.429658572
0.9357454167,1.622026978,0.8845106506,0.5634283447,1.931523261
0.9456854167,2.167193298,0.9111552429,0.3176394653,2.372303838
0.9556244167,2.869981842,1.128203888,-0.08951385498,3.085069289
0.9655634167,3.043321381,1.500928802,-0.4851411438,3.427820623
0.9755034167,1.510209503,1.093625793,-0.7316784668,2.003023589
0.9854424167,0.5474116516,0.6053411865,-0.4718188477,0.9427144284
0.9953814167,0.2149530029,0.3951782227,-0.06541397095,0.4545872949
1.005321417,0.1273851013,0.2047741699,0.0975970459,0.260162657
1.015260417,0.05149291992,-0.07933502197,-1.388662262,1.391879465
1.025199417,-1.458117828,-0.615819397,-4.997058563,5.241749271
1.035139417,-4.911286926,-1.812730408,-8.762478333,10.20724044
1.045078417,-13.68723724,-3.873944092,-9.551786957,17.13430886
1.055018417,-46.15067917,-10.67879333,-11.82705551,48.82418516
1.064957417,-80.12687531,-27.68298294,-15.18337601,86.12315947
1.074896417,-78.48838257,-19.55593323,-0.9053173828,80.89301776
1.084836417,-78.55768845,-0.936302948,16.62981812,80.30403432
1.094775417,-69.4768222,4.130211182,42.64526871,81.62540298
1.104714417,-28.70820099,-2.586321716,69.04497025,74.82016961
1.114654417,-23.42044693,-0.7897576904,26.34955582,35.26244664
1.124593417,-11.32963989,3.357518005,11.78484329,16.68880459
1.134533417,-9.755962372,2.461331635,-1.171912994,10.12967597
1.144472417,-10.14260834,0.7906558228,-3.576063538,10.78359267
1.154411417,-8.414751434,0.537532196,-2.064207458,8.680894827
1.164351417,-6.144272919,0.5780978394,-1.672172699,6.393938407
1.174290417,-3.674259338,0.2826123047,-1.240021362,3.888149223
1.184230417,-2.06046524,-0.1222956848,-1.27190506,2.424503191
1.194169417,-1.088686066,-0.3644920349,-1.514400787,1.9003951
1.204108417,-0.4852908325,-0.4869374084,-1.664388885,1.800779163
1.214048417,-0.2424957275,-0.4776567078,-1.718127136,1.799700243
1.223987417,-0.3447331238,-0.4670288086,-1.852397919,1.941219947
1.233926417,-0.7005432129,-0.3972738647,-2.052831116,2.205153715
1.243866417,-1.127305756,-0.3622467041,-2.341430969,2.62380257
1.253805417,-1.288819885,-0.3685336304,-2.754871216,3.063688814
1.263745417,-1.350192261,-0.3132984924,-3.323538666,3.600983803
1.273684417,-1.394949188,-0.3610491943,-4.037104797,4.286543468
1.283623417,-1.267264709,-0.5574407959,-4.932692413,5.12329528
1.293563417,-0.03502716064,-0.7988887024,-5.899980927,5.953925175
1.303502417,1.90254364,-0.5246589661,-6.937174072,7.212442266
1.313441417,3.85074234,-0.1727407837,-7.267986145,8.226887537
1.323381417,5.32158371,-0.15328125,-7.394173737,9.111342029
1.333320417,6.226901093,-0.2606080627,-7.397017822,9.672542915
1.343260417,6.205495605,-0.4372407532,-6.010151825,8.649929488
1.353199417,5.305417328,-0.426612854,-4.4006987,6.906200156
1.363138417,4.359234924,-0.1514849854,-3.675307159,5.703837265
1.373078417,3.994593201,0.07035369873,-3.531007233,5.331954291
1.383017417,3.81212265,0.2333647156,-3.527265015,5.198878405
1.392956417,3.328029327,0.4034111023,-3.175795898,4.617813261
1.402896417,2.83510437,0.5459147644,-2.611020355,3.892719745
1.412835417,2.299667816,0.6363267517,-1.955383759,3.084948856
1.422775417,1.738185425,0.6917115784,-1.34914444,2.306500422
1.432714417,1.392703857,0.7794291687,-0.7897576904,1.780688371
1.442653417,1.282682648,0.8593629456,-0.4397854614,1.605363105
1.452593417,1.399589539,0.9157955933,-0.4129911804,1.722815765
1.462532417,1.8194664,0.973276062,-0.6619235229,2.166994929
1.472471417,2.187401276,0.965791626,-0.9840536499,2.585699014
1.482411417,2.220482483,0.9496252441,-1.126856689,2.664983407
1.492350417,1.970053253,0.9907896423,-1.019230499,2.42932187
1.502290417,1.767823792,1.094523926,-0.6987469482,2.193497408
1.512229417,1.249002686,0.9090596008,-0.2583627319,1.566252971
1.522168417,0.6366261292,0.6057902527,-0.1454974365,0.8907548274
1.532108417,0.2347119141,0.4498146057,0.08517288208,0.5144679601
1.542047417,0.1020877075,0.1520837402,0.3353027344,0.3820723593
1.551986417,0.1175056458,-0.2900967407,-1.563798065,1.594812868
1.561926417,-2.802172852,-1.478924561,-6.680308228,7.393639737
1.571865417,-11.0097551,-3.871249695,-10.73567505,15.85736423
1.581805417,-38.54574371,-10.19470001,-12.46338226,41.77370183
1.591744417,-78.8051239,-30.01692947,-12.09754303,85.19163196
1.601683417,-78.91843826,-24.24059143,-2.750380554,82.60321279
1.611623417,-78.51802094,-5.861660614,18.24795319,80.82342774
1.621562417,-63.06281021,0.5875282288,53.06330429,82.41952125
1.631502417,-35.41605194,-2.443069611,60.5374118,70.17865453
1.641441417,-39.36409195,1.568887482,11.00092346,40.90248721
1.651380417,-14.1258252,3.577859802,6.734645233,16.05289583
1.661320417,-7.272776184,0.7710466003,0.05852828979,7.313768649
1.671259417,-8.138575745,0.3544628906,-2.701282654,8.582481405
1.681198417,-6.941964111,0.5137316895,-1.232836304,7.069276577
1.691138417,-5.252128143,0.08592132568,-0.8390052795,5.319413724
1.701077417,-3.19780014,-0.7301815796,-0.5284011841,3.322393518
1.711017417,-1.526675262,-1.045575714,-0.7533833313,1.997886977
1.720956417,-0.7494914246,-0.8909472656,-1.162632294,1.645368736
1.730895417,-0.5830375671,-0.8247848511,-1.678908691,1.959320609
1.740835417,-0.6764433289,-0.7798782349,-2.017654266,2.266432081
1.750774417,-0.982407074,-0.6349795532,-2.409988403,2.678874166
1.760713417,-1.60885437,-0.4086502075,-2.970572662,3.402897195
1.770653042,-2.389780426,-0.1676513672,-3.553610229,4.285709175
1.780592042,-3.165167999,-0.1564247131,-4.708309021,5.675467469
1.790532042,-3.480262756,-0.1414558411,-6.081253967,7.008130166
1.800471042,-2.683769073,-0.204175415,-6.906787262,7.412692785
1.810410042,-0.5426216125,-0.2890489197,-7.485633545,7.510838639
1.820350042,1.940564575,-0.02559677124,-7.8127034,8.050141643
1.830289042,4.358636169,0.4945715332,-8.166567535,9.27012058
1.840228042,5.927972717,0.5857319641,-8.177494812,10.11708277
1.850168042,6.791077881,0.4264631653,-8.048463135,10.5393723
1.860107042,6.899602203,0.08771759033,-7.475903778,10.17356094
1.870047042,6.294261017,-0.1520837402,-6.377787323,8.961976476
1.879986042,5.417983246,-0.05777984619,-5.029840393,7.393049124
1.889925042,4.382137299,0.3094065857,-4.276307373,6.130714843
1.899865042,3.739673309,0.643661499,-3.600911865,5.231254424
1.909804042,3.3920961,0.8740324402,-3.040327606,4.638301479
1.919743042,3.081342316,1.013991394,-2.656525726,4.192848429
1.929683042,2.765648804,0.9768685913,-2.476599884,3.838832184
1.939622042,2.232607269,0.9262738037,-1.978286133,3.123481135
1.949562042,1.62756546,0.8951385498,-1.232387238,2.229130022
1.959501042,1.181343384,0.9572593689,-0.6530918884,1.654825279
1.969440042,1.190474396,1.091530151,-0.3653901672,1.655952092
1.979380042,1.41695343,1.246907043,-0.2758763123,1.907522461
1.989319042,1.900447998,1.402134247,-0.2411485291,2.373991502
1.999259042,2.703527985,1.534159698,-0.08786727905,3.109731532
2.009198042,2.840642853,1.505718842,0.5665718079,3.264574193
2.019137042,1.745370483,0.920735321,0.7908055115,2.125898637
2.029077042,1.057101746,0.4712200928,1.148262177,1.630343063
2.039016042,0.6303392029,0.3260220337,1.265169067,1.450610439
2.048955042,0.2812651062,0.2345622253,1.169817352,1.225806728
2.058895042,-0.09011260986,0.1148112488,1.021326141,1.031701988
2.068834042,-0.3441343689,-0.1678010559,1.306183777,1.36113986
2.078774042,0.1681004333,-0.665665741,1.035247192,1.242217929
2.088713042,0.5786965942,-0.7453001404,-0.4183799744,1.03218402
2.098652042,-0.9613009644,-1.31756012,-3.074306946,3.480147613
2.108592042,-7.54700592,-2.851270752,-5.957012329,10.02861103
2.118531042,-59.08588028,-20.68084396,-14.52758972,64.26421569
2.128470042,-80.97216751,-46.421017,-14.76110413,94.49493598
2.138410042,-78.11296326,-18.01174438,2.434537354,80.19965671
2.148349042,-78.56816666,5.508993988,10.73866882,79.48977818
2.158289042,-69.49373703,2.047442322,41.28160446,80.85630695
2.168228042,-37.93695969,3.469485168,43.12906265,57.54447222
2.178167042,-20.03852966,3.258573761,10.90123077,23.04338965
2.188107042,-11.30254623,1.229692841,1.098864899,11.42222395
2.198046042,-7.386389923,0.03592529297,-2.154469757,7.694269729
2.207985042,-4.956792297,-0.1193019104,-1.880988464,5.303031249
2.217925042,-3.044369202,-0.3197351074,-2.016606445,3.665667188
2.227864042,-1.58774826,-0.5499563599,-2.226170654,2.789127519
2.237804042,-0.4986131287,-0.7529342651,-2.225571899,2.401810846
2.247743042,0.159717865,-0.8568182373,-2.315235443,2.473855785
2.257682042,0.4337979126,-1.11278595,-2.740950165,2.989863041
2.267622042,0.4017645264,-1.41695343,-3.187172241,3.511016755
2.277561042,-0.09804611206,-1.62053009,-3.434458008,3.798846222
2.287500042,-0.8110134888,-1.654060364,-3.603306885,4.046909818
2.297440042,-1.676962738,-1.647174683,-3.928580475,4.578114569
2.307379042,-2.136207733,-1.376387787,-4.775369568,5.409434474
2.317319042,-2.286495209,-0.9168434143,-5.793252869,6.295271319
2.327258042,-1.673519897,-0.8578660583,-6.559659119,6.823908761
2.337197042,-0.40251297,-0.7806266785,-7.011719055,7.066512493
2.347137042,1.470991058,-0.4382885742,-7.819289703,7.968513226
2.357076042,3.426374817,-0.1651066589,-8.188122711,8.877649358
2.367016042,4.947062531,0.002544708252,-8.111182709,9.500774657
2.376955042,5.871839447,0.1245410156,-7.9016185,9.845282315
2.386894042,6.342161407,-0.03367996216,-6.892566833,9.366516066
2.396834042,5.785019989,-0.3778143311,-5.326523438,7.872804575
2.406773042,4.777016144,-0.3062631226,-4.531227264,6.591335287
2.416712042,4.19472702,0.0209564209,-3.955524445,5.76561771
2.426652042,3.766766968,0.282462616,-3.228037262,4.968756694
2.436591042,3.252137146,0.5575904846,-2.480940857,4.12824063
2.446531042,2.695444794,0.8490344238,-1.77156601,3.335375273
2.456470042,2.14009964,1.050814819,-1.425785065,2.777967117
2.466409042,1.830842743,1.079555054,-1.288969574,2.485732654
2.476349042,1.58894577,1.071022797,-0.9729766846,2.149074713
2.486288042,1.422641602,1.044976959,-0.5962101746,1.863156607
2.496227042,1.480720825,1.062340851,-0.4146377563,1.868964075
2.506167042,1.65450943,1.128353577,-0.273331604,2.021210878
2.516106042,1.946851501,1.137933655,-0.2577639771,2.269706157
2.526046042,2.719095612,1.424288177,0.2168989563,3.077194
2.535985042,3.159479828,1.593286743,0.5969586182,3.588486453
2.545924042,2.481539612,1.132095795,0.5635780334,2.78519298
2.555864042,1.83353714,0.6328839111,0.8104147339,2.102182801
2.565803042,1.420995026,0.3276686096,0.6728507996,1.606026706
2.575743042,1.14781311,0.1492396545,0.4370910645,1.237253414
2.585682042,0.9431886292,0.04535568237,0.2576142883,0.9787885623
2.595621042,0.5936654663,0.04969665527,0.1445993042,0.6130394785
2.605561042,0.1643582153,0.04655319214,0.650098114,0.672166929
2.615500042,0.270637207,-0.09849517822,0.37676651,0.4742349639
2.625439042,-0.4486170959,-0.8408015442,-5.071603546,5.160365013
2.635379042,-6.025869141,-2.785707092,-12.42790604,14.08985846
2.645318042,-34.73721359,-7.862549744,-17.83885391,39.8336341
2.655258042,-78.61651611,-17.91579391,-20.19300842,83.12213825
2.665197042,-78.76874954,-10.25607239,-8.048762512,79.84037514
2.675136042,-78.46727646,-2.205214233,19.19578217,80.81122755
2.685076042,-63.96303818,-1.034049683,55.4785318,84.67707483
2.695015042,-33.12371887,-1.784289551,58.48562851,67.23788503
2.704954042,-36.33873322,-0.145796814,7.751331024,37.15653268
2.714894042,-12.40949432,1.855092316,4.440815277,13.31006225
2.724833042,-4.209396515,0.9931846619,-0.6318360901,4.370886825
2.734773042,-2.723137207,0.6300398254,-2.093845825,3.492365498
2.744712042,-1.518891449,0.6506968689,-1.198407898,2.04122981
2.754651042,-1.060245209,0.2552192688,-1.452279968,1.816142584
2.764591792,-0.6587800598,-0.2612068176,-1.522483978,1.679338451
2.774530792,-0.2983296204,-0.5514532471,-1.757794647,1.866264522
2.784470792,-0.1103205872,-0.7125183105,-2.209405518,2.324075239
2.794409792,-0.200433197,-0.7500901794,-2.462828522,2.582311575
2.804348792,-0.2372566223,-0.8180488586,-2.457290039,2.600724702
2.814288792,-0.3766168213,-0.9219328308,-2.375410309,2.575727957
2.824227792,-0.6599775696,-0.9648934937,-2.539918213,2.796028321
2.834166792,-0.8566685486,-0.8390052795,-3.118016052,3.340633916
2.844106792,-1.51874176,-0.5086422729,-4.057462463,4.362143411
2.854045792,-1.867965546,-0.1938468933,-5.155578918,5.486972378
2.863985792,-1.720522156,-0.1276844788,-6.209387512,6.444609615
2.873924792,-0.6770420837,-0.1474433899,-7.08716217,7.120954512
2.883863792,1.107546844,0.2213896179,-8.081694031,8.160236013
2.893803792,3.216660919,0.3023712158,-8.503816223,9.096880024
2.903742792,4.410877533,0.1032852173,-7.788453827,8.95134188
2.913681792,4.775519257,-0.2300715637,-6.888824615,8.385369502
2.923621792,4.470154266,-0.489332428,-5.610033875,7.189868251
2.933560792,3.970493317,-0.6885681152,-4.871170349,6.321965185
2.943500792,3.692521362,-0.6876699829,-4.443210297,5.818051371
2.953439792,3.460354156,-0.4812492371,-3.900438995,5.236322762
2.963378792,3.063379669,-0.0375718689,-3.790717163,4.873935089
2.973318792,2.652783508,0.3403921509,-3.912863159,4.739580705
2.983257792,2.538121948,0.5999523926,-3.025209045,3.994232801
2.993197792,2.256108398,0.8068222046,-2.035467224,3.143901079
3.003136792,1.856140137,0.8593629456,-1.503174133,2.538364307
3.013075792,1.530866547,0.8020321655,-1.043779449,2.018980812
3.023015792,1.328188019,0.8175997925,-0.6643185425,1.695249822
3.032954792,1.185235291,0.8590635681,-0.326920166,1.49988323
3.042893792,1.340163116,0.8845106506,-0.2356100464,1.622932027
3.052833792,1.776056671,0.8262817383,-0.3230282593,1.985312587
3.062772792,2.234253845,0.7756869507,-0.4113446045,2.400580112
3.072712792,2.514770508,0.7388635254,-0.5566923523,2.679532868
3.082651792,2.56955658,0.750838623,-0.6327342224,2.750769392
3.092590792,2.295027466,0.8487350464,-0.5866300964,2.516274452
3.102530792,1.616488495,0.8527766418,-0.3879931641,1.86836874
3.112469792,1.076561279,0.6180647278,-0.1218466187,1.247331068
3.122408792,0.7825726318,0.435743866,0.04730163574,0.8969560109
3.132348792,0.5388793945,0.3962260437,0.1314266968,0.6816590469
3.142287792,0.3785627747,0.2239343262,0.2911445618,0.5274670726
3.152227792,0.5113366699,-0.05987548828,-0.3878434753,0.6445718156
3.162166792,-1.010099487,-0.7084767151,-4.471800842,4.63888381
3.172105792,-10.00654129,-2.523302765,-10.34858002,14.61475398
3.182045792,-38.06374603,-6.489155731,-11.6228801,40.32430093
3.191984792,-78.43180023,-19.11689621,-10.84614532,81.45331102
3.201924792,-78.87008881,-15.43500275,-6.418802032,80.62215104
3.211863792,-78.47820374,-5.955365753,12.93894333,79.76033536
3.221802792,-74.47043793,0.1321751404,31.04663818,80.68306723
3.231742792,-34.90845749,2.675236816,67.01309555,75.60762046
3.241681792,-25.03918076,5.554499359,21.92834976,33.74411889
3.251620792,-9.769883423,5.864205322,13.69352417,17.81437988
3.261560792,-5.343438263,1.8194664,2.106719055,6.025035737
3.271499792,-8.606502686,1.087638245,-2.91818161,9.152629641
3.281439792,-9.091643829,1.11278595,-1.320104828,9.25413188
3.291378792,-8.167465668,0.8776249695,-1.085243225,8.285859876
3.301317792,-6.555617523,0.3594026184,-0.5352868652,6.587247026
3.311257792,-4.91547821,-0.06975494385,-0.08906478882,4.916779874
3.321196792,-3.591930542,-0.3257226562,-0.226179657,3.613753935
3.331136792,-2.5812323,-0.5204676819,-0.776585083,2.745310763
3.341075792,-1.813029785,-0.6933581543,-1.447789307,2.421552479
3.351014792,-1.417552185,-0.8370593262,-1.894759827,2.510027353
3.360954792,-1.268162842,-1.026864624,-2.336341553,2.849768377
3.370893792,-0.715512085,-1.092727661,-2.693049774,2.993080081
3.380832792,-0.1478924561,-1.1373349,-3.082539825,3.28898991
3.390772792,0.01077758789,-1.081800385,-3.407663727,3.575273459
3.400711792,0.1951940918,-0.988843689,-3.733087006,3.866762362
3.410651792,0.7509883118,-1.077309723,-4.139342194,4.34266433
3.420590792,1.434167633,-1.075962524,-4.690645752,5.02162222
3.430529792,2.193688202,-1.041085052,-5.073848877,5.624950528
3.440469792,2.702629852,-0.7426057434,-5.272485809,5.9711622
3.450408792,3.14989975,-0.3475772095,-5.290897522,6.167355587
3.460347792,3.368594971,-0.1480421448,-4.740492096,5.817354542
3.470287792,3.242706757,-0.2237846375,-3.936663666,5.105149115
3.480226792,2.690654755,-0.4111949158,-3.689677277,4.585021556
3.490166792,2.085313568,-0.4592449951,-3.989503784,4.524994927
3.500105792,1.985321503,-0.3863465881,-4.332740021,4.78156891
3.510044792,1.995350647,-0.1924996948,-4.484225006,4.91189925
3.519984792,1.981728973,0.129181366,-4.33872757,4.771634361
3.529923792,1.943109283,0.462538147,-3.717220001,4.219874378
3.539863792,1.860780487,0.7131170654,-3.065325623,3.656126522
3.549802792,1.702709198,0.867146759,-2.385439453,3.056384056
3.559741792,1.476230164,0.9448352051,-1.726060638,2.459929753
3.569681792,1.304986267,0.9734257507,-1.133143616,1.983572863
3.579620792,1.156944122,0.9647438049,-0.7108717346,1.665709739
3.589559792,0.9621990967,0.953966217,-0.5902226257,1.477917925
3.599499792,0.9940827942,0.9621990967,-0.7113208008,1.555636521
3.609438792,1.248703308,0.9455836487,-0.812510376,1.76452869
3.619378792,1.66498764,0.8545729065,-1.168021088,2.206071612
3.629317792,2.251468048,0.6559359741,-1.69896698,2.895833071
3.639256792,2.578687592,0.3888912964,-2.047891388,3.3158295
3.649196792,2.361788635,0.1336720276,-2.057920532,3.135434688
3.659135792,1.686243439,0.1008901978,-1.730700989,2.418454399
3.669074792,1.061592407,0.1044827271,-1.362766113,1.730614503
3.679014792,0.869841156,-0.006735992432,-1.247954865,1.521203587
3.688953792,0.2742297363,-0.3266207886,-2.740201721,2.773191043
3.698893792,-2.852468262,-1.489103394,-7.372019806,8.043673298
3.708832792,-13.03968384,-3.819906464,-11.07666595,17.53047543
3.718771792,-51.83331207,-11.52513336,-8.894653473,53.8389803
3.728711792,-80.5012468,-26.67303314,-7.278164978,85.11682042
3.738650792,-78.29318848,-14.2080043,1.006656647,79.57828916
3.748590792,-78.59496094,1.033001862,17.73766434,80.57828314
3.758529792,-69.04107834,1.092577972,41.63217545,80.6294131
3.768468417,-27.45620453,-2.701582031,65.82845901,71.37596044
3.778408417,-16.52398819,2.026336212,22.60449371,28.07332115
3.788347417,-3.778292999,2.451003113,14.04978333,14.75395966
3.798286417,-6.681655426,-0.04296066284,-0.0043409729,6.681794946
3.808226417,-9.525741119,0.1471440125,-1.822011108,9.699542242
3.818165417,-8.096812592,0.4300556946,-0.5462141418,8.12660273
3.828105417,-6.143374786,0.1459465027,-0.3975732422,6.157955718
3.838044417,-4.565206604,-0.3824546814,-0.2074685669,4.585894256
3.847983417,-3.116668854,-0.7297325134,-0.6899153137,3.274464449
3.857923417,-1.908830566,-0.8674461365,-1.394350433,2.517997232
3.867862417,-1.030906219,-0.813558197,-1.797611847,2.226219424
3.877801417,-0.7682025146,-0.743354187,-1.893412628,2.174332525
3.887741417,-0.8943901062,-0.6845265198,-2.193688202,2.465923386
3.897680417,-0.8976832581,-0.673150177,-2.633922729,2.8629557
3.907620417,-0.7936495972,-0.7833210754,-3.000660095,3.201161133
3.917559417,-1.634451141,-1.06473587,-4.043242035,4.489198053
3.927498417,-2.172282715,-1.271755371,-5.497168579,6.046076108
3.937438417,-1.661395111,-1.419647827,-6.699767761,7.047164091
3.947377417,-0.2652484131,-1.374441833,-7.850275269,7.974099878
3.957317417,1.873803406,-0.9839039612,-8.373736725,8.63705233
3.967256417,3.771107941,-0.5800437927,-8.007149048,8.869731776
3.977195417,5.129084015,-0.4682263184,-6.958729248,8.65740443
3.987135417,5.654790802,-0.5914201355,-5.385500793,7.831350815
3.997074417,5.552852783,-0.7265890503,-4.562661896,7.22357178
4.007013417,5.355712738,-0.8810678101,-5.407804413,7.661872355
4.016953417,4.425996094,-1.012494507,-5.964796143,7.496224354
4.026892417,3.571572876,-0.7650590515,-4.970114594,6.167940275
4.036832417,3.403472443,-0.3330574036,-4.006717987,5.267669402
4.046771417,3.350931702,0.093256073,-3.283571777,4.692470946
4.056710417,2.987487488,0.5152285767,-2.803669739,4.129298485
4.066650417,2.597997437,0.7499404907,-2.301763458,3.551072576
4.076589417,2.182760925,0.7732919312,-1.833836517,2.953875766
4.086529417,1.862277374,0.7655081177,-1.293759613,2.393301827
4.096468417,1.546134796,0.8375083923,-0.9080117798,1.97899937
4.106407417,1.339414673,0.9120533752,-0.8240364075,1.817940875
4.116347417,1.387015686,0.9740245056,-0.829125824,1.886792485
4.126286417,1.682650909,1.076561279,-0.8307723999,2.163441945
4.136225417,2.236948242,1.092428284,-1.024619293,2.692059006
4.146165417,2.700833588,1.026265869,-1.28941864,3.163909628
4.156104417,3.100652161,1.014739838,-0.9324110413,3.393100516
4.166044417,2.708617401,0.7556286621,-0.3026705933,2.828284354
4.175983417,1.755549316,0.3004252625,-0.1645079041,1.788650774
4.185922417,0.9508227539,0.09909393311,-0.04206253052,0.9568974728
4.195862417,0.3432362366,0.0817300415,0.1300794983,0.3760473237
4.205801417,0.05523513794,0.07574249268,0.3712280273,0.3828813053
4.215740417,-0.01212478638,0.07978408813,0.637224884,0.6423146145
4.225680417,0.1273851013,0.01002914429,0.8568182373,0.8662938529
4.235619417,0.2823129272,-0.1971400452,-1.322799225,1.3668806
4.245559417,-3.66707428,-1.401535492,-8.260871429,9.146241429
4.255498417,-25.79286346,-3.701352997,-13.92374542,29.54390811
4.265437417,-75.0971846,-10.00100281,-15.02470596,77.23567169
4.275377417,-79.32544189,-9.671987,-13.38381821,81.02591964
4.285316417,-78.2451384,-1.214873657,7.499704285,78.61312336
4.295256417,-77.56989258,2.153272247,21.21702896,80.44803996
4.305195417,-38.97550003,1.088087311,57.74556747,69.67656779
4.315134417,-13.63993561,-0.3007246399,43.52064835,45.60904637
4.325074417,-12.54750732,0.79215271,9.673184509,15.86310009
4.335013417,-3.836222534,1.094673615,2.263293457,4.586655745
4.344952417,-2.141147461,0.3073109436,-2.363285522,3.203758875
4.354892417,-1.76797348,0.369282074,-2.362986145,2.974189469
4.364831417,-1.09167984,0.3481759644,-2.042352905,2.341836195
4.374771417,-0.7191046143,0.4134402466,-2.430495758,2.568142113
4.384710417,-0.4875361633,0.1706451416,-2.847678223,2.894146253
4.394649417,-0.00853225708,-0.292641449,-2.932701416,2.947278306
4.404589417,0.05284011841,-0.5577401733,-3.106639709,3.156750935
4.414528417,-0.23635849,-0.6661148071,-3.239862671,3.316064595
4.424468417,-0.5137316895,-0.8893006897,-3.060236206,3.227974845
4.434407417,-0.4670288086,-1.165326691,-2.811303864,3.078884801
4.444346417,-0.3887416077,-1.365759888,-2.60458374,2.96652601
4.454286417,-0.3508703613,-1.40063736,-2.602488098,2.976212245
4.464225417,-0.2921923828,-1.564247131,-2.613265686,3.059640996
4.474164417,-0.5176235962,-1.59837616,-2.584076385,3.082238034
4.484104417,-0.9151968384,-1.340163116,-3.005001068,3.415209196
4.494043417,-0.818946991,-1.212029572,-3.702550507,3.981026263
4.503983417,-0.04056564331,-0.9714797974,-4.184548187,4.296028643
4.513922417,1.02267334,-0.7096742249,-4.365222473,4.539236225
4.523861417,1.9481987,-0.3806584167,-4.26148819,4.701133969
4.533801417,2.525248718,-0.2673440552,-4.070335693,4.797497951
4.543740417,2.942281494,-0.2218386841,-4.053420868,5.013626784
4.553679417,3.012635193,-0.06810836792,-3.839665375,4.880946603
4.563619417,2.887046356,0.1338217163,-3.692371674,4.688982138
4.573558417,2.798580322,0.159717865,-3.384012909,4.394212669
4.583498417,2.448009338,0.1101708984,-2.437680817,3.45646859
4.593437417,2.109413452,0.2510279846,-1.780098267,2.771532067
4.603376417,2.043849792,0.4055067444,-1.678759003,2.675815667
4.613316417,1.981130219,0.4466711426,-1.755549316,2.684463718
4.623255417,1.85688858,0.460891571,-1.847308502,2.659512162
4.633195417,1.673968964,0.483943634,-1.88503006,2.567043408
4.643134417,1.544338531,0.5044509888,-1.900298309,2.50011719
4.653073417,1.491947479,0.5149291992,-1.941013641,2.501718073
4.663013417,1.542542267,0.4755610657,-2.007475433,2.575956635
4.672952417,1.608405304,0.3787124634,-2.122885437,2.690173476
4.682891417,1.724863129,0.2457888794,-2.307152252,2.891109908
4.692831417,2.013612671,0.1103205872,-2.645897827,3.326797549
4.702770417,2.223476257,-0.06271957397,-3.023113403,3.753264587
4.712710417,2.13306427,-0.09654922485,-3.361260223,3.982129483
4.722649417,1.671424255,0.0339793396,-3.443439331,3.827804601
4.732588417,1.29061615,0.1103205872,-3.273991699,3.520920664
4.742528417,0.9279203796,0.07918533325,-3.092419281,3.229607338
4.752467417,0.4243675232,0.01047821045,-3.676055603,3.700484074
4.762407417,-0.9514215088,-0.3656895447,-7.500752106,7.569690475
4.772346292,-9.237590332,-1.471140747,-17.46687744,19.81386226
4.782285292,-43.73410446,-3.840713196,-25.39933182,50.72030193
4.792225292,-79.47243622,-9.774224396,-31.36966644,85.99685781
4.802164292,-78.45051132,-9.133406982,-16.14347946,80.6133598
4.812103292,-78.6046907,-5.817502441,20.87888214,81.5381411
4.822043292,-69.48251038,-2.002984772,49.92687653,85.58343412
4.831982292,-8.602311401,3.072211304,76.05130051,76.59790175
4.841922292,-29.12104248,1.156644745,29.13511322,41.20955914
4.851861292,-30.14416489,-0.9125024414,-4.389621735,30.47576277
4.861800292,-18.48311417,-2.085163879,-8.67506012,20.52389061
4.871740292,-14.94177841,-1.64747406,-8.10399765,17.07763716
4.881679292,-12.24708206,-0.510737915,-5.518873444,13.44283587
4.891618292,-8.918903046,-0.1983375549,-3.492387543,9.580341334
4.901558292,-6.039640503,-0.7206015015,-2.408641205,6.542023875
4.911497292,-4.088148651,-1.427431641,-1.931583252,4.741469639
4.921437292,-2.845283203,-1.450633392,-2.101030884,3.822866009
4.931376292,-1.971699829,-1.184636536,-2.293680267,3.248373917
4.941315292,-1.317111053,-1.009051666,-2.241289215,2.788609714
4.951255292,-0.6890171814,-0.9380992126,-2.236948242,2.521648716
4.961194292,-0.007484436035,-0.8999285889,-2.440973969,2.601592089
