Time (s),Acceleration x (m/s^2),Acceleration y (m/s^2),Acceleration z (m/s^2),Absolute acceleration (m/s^2)
14.91092362,11.11633347,-6.006259918,2.423759766,12.8655602
14.92086263,11.11932724,-5.647156677,3.013683014,12.83012479
14.93080162,10.96410004,-5.03837265,3.586092682,12.58796049
14.94074062,10.6473587,-4.340823212,3.941603394,12.1550496
14.95067963,10.14859589,-3.999832306,3.976780243,11.61066053
14.96061754,9.818532257,-4.215384064,3.896247711,11.37338053
14.97055654,9.978848877,-4.560865631,3.822301483,11.61847274
14.98049554,10.561138,-4.84063385,3.786076813,12.21899135
14.99043454,11.0030191,-5.00214798,3.627556458,12.61931376
15.00037354,11.25509491,-4.953199768,3.44478653,12.77019591
15.01031254,11.63665146,-4.682562561,3.19899765,12.94494632
15.02025154,11.55327484,-4.157604218,2.919079742,12.62081055
15.03018954,11.27006378,-3.47861618,2.543361053,12.06581094
15.04012854,11.07007965,-2.786904602,2.143841858,11.61505741
15.05006754,10.40112076,-2.239792328,1.870659943,10.8027474
15.06000654,9.448052673,-1.948049011,1.573378143,9.774257673
15.06994554,8.317304077,-1.857038269,1.267564087,8.615849172
15.07988454,7.333250427,-1.781894531,1.061891785,7.620979209
15.08982354,6.781048737,-1.650916901,1.050066376,7.05767582
15.09976254,6.416257324,-1.560355225,1.165775757,6.705378408
15.10970154,6.151008911,-1.594933319,1.260977783,6.478332184
15.11964054,5.929170227,-1.630559235,1.253942413,6.275838954
15.12957954,5.738466797,-1.657054138,1.109642487,6.075124364
15.13951854,5.674549713,-1.60541153,0.9523196411,5.973673353
15.14945754,6.007307739,-1.414708099,0.8235873413,6.226350567
15.15939654,6.077811127,-1.0975177,0.6947053528,6.215058223
15.16933554,6.117628326,-0.8449928284,0.5806425476,6.20294567
15.17927454,6.374045105,-0.8656498718,0.490380249,6.451222635
15.18921354,6.735094299,-1.09167984,0.3739224243,6.833233354
15.19915254,7.066355438,-1.305435333,0.4812492371,7.202023425
15.20909154,7.319029999,-1.57607254,0.7066804504,7.520079922
15.21903054,7.55763382,-1.81362854,1.154399414,7.857462405
15.22896954,7.860454102,-1.957479401,1.682950287,8.273499015
15.23890854,8.096213837,-1.963167572,2.199975128,8.616414334
15.24884754,8.239166565,-1.868564301,2.603236542,8.840375485
15.25878654,8.357570343,-1.759441223,2.855911102,9.005600684
15.26872554,8.489296417,-1.691183167,3.027454376,9.170263582
15.27866454,8.613388367,-1.648970947,3.083288269,9.296033073
15.28860354,8.686586151,-1.588496704,2.956052856,9.312268748
15.29854254,8.803493042,-1.540596313,2.696342926,9.335158912
15.30848154,9.005572815,-1.552272034,2.468367004,9.465871638
15.31842054,9.299411774,-1.68609375,2.301164703,9.727144003
15.32835954,9.722881165,-1.974244537,2.211201782,10.16471706
15.33829854,10.25382706,-2.285447388,2.165995789,10.72640559
15.34823754,10.77264816,-2.562371521,2.220632172,11.29366652
15.35817654,11.30494125,-2.77433075,2.441123657,11.89359881
15.36811554,11.864328,-2.915487213,2.760409698,12.52526273
15.37805354,12.18181778,-2.78600647,3.137176208,12.8841139
15.38799254,12.3898851,-2.476899261,3.338507538,13.06866157
15.39793154,12.6141188,-2.156715088,3.367696838,13.23286799
15.40787054,12.98624496,-2.047142944,3.251538391,13.54274176
15.41780954,13.43950241,-2.515069885,3.094365234,14.01859115
15.42774854,13.80668884,-3.380869446,3.152594147,14.56000635
15.43768754,14.16459457,-4.03096756,3.564238129,15.15216923
15.44762654,14.42714859,-4.064497833,4.078568573,15.53375295
15.45756554,14.38598419,-3.477568359,4.513563995,15.47327641
15.46750454,13.80983231,-2.522404633,4.574786682,14.76491336
15.47744354,12.86439835,-1.652413788,4.269571381,13.65475946
15.48738254,12.05652832,-1.271605682,3.741469574,12.68761013
15.49732154,11.5219899,-1.440454559,3.244802399,12.05652948
15.50726054,11.56060959,-1.751058655,2.990930328,12.06895044
15.51719954,11.94366302,-2.056124268,2.940335541,12.47093848
15.52713854,12.44452148,-2.673290863,2.910547485,13.05694779
15.53707754,12.88849823,-3.474574585,2.96263916,13.67345187
15.54701654,13.52557343,-4.138893127,3.047662354,14.46927153
15.55695554,13.89126297,-4.467010803,3.17205368,14.93262525
15.56689454,13.67361557,-4.273313599,3.270099792,14.69430245
15.57683354,13.28277832,-3.939208374,3.19555481,14.21833791
15.58677254,12.90735901,-3.786226501,3.231629791,13.8339748
15.59671154,12.31833389,-3.743565216,3.376678162,13.31005582
15.60665054,11.4649585,-3.562441864,3.44942688,12.49138948
15.61658954,10.55964111,-3.385360107,3.383264465,11.59366905
15.62652854,9.685608673,-3.334016876,3.2235466,10.73861893
15.63646754,8.971294098,-3.359014893,3.038980408,10.05000004
15.64640654,8.253087616,-3.401077423,2.743345184,9.338454135
15.65634554,7.508685608,-3.393592987,2.265688477,8.545769549
15.66628454,6.843468933,-3.351530457,1.72007309,7.811816362
15.67622354,6.45652359,-3.303330688,1.349743195,7.377024956
15.68616154,6.212830353,-3.247945862,1.078058167,7.092998148
15.69610054,5.998625793,-3.119063873,0.8334667969,6.812249097
15.70603954,5.801785126,-3.049458618,0.5795947266,6.579957337
15.71597854,5.585634613,-3.066523132,0.3367996216,6.380933485
15.72591754,5.508844299,-3.137475586,0.1951940918,6.34265081
15.73585654,5.532046051,-3.169508972,0.2065704346,6.379027511
15.74579554,5.52516037,-3.177143097,0.3582051086,6.383568459
15.75573454,5.430557098,-3.315305786,0.433049469,6.377282705
15.76567354,5.482499084,-3.549119568,0.483943634,6.548911922
15.77561254,5.621260529,-3.774401093,0.6210585022,6.79929314
15.78555154,5.77199707,-3.972289581,0.8526269531,7.058470615
15.79549054,5.969885559,-4.064946899,1.10694809,7.306754475
15.80542954,6.204747162,-4.055366821,1.473984833,7.557613293
15.81536854,6.487509155,-4.104315033,2.140399017,7.969597536
15.82530754,6.621031494,-4.18888916,2.376009064,8.187201568
15.83524654,6.307134247,-4.279899902,2.077829132,7.900307556
15.84518554,6.124663696,-4.44395874,1.680555267,7.751421849
15.85512454,6.156697083,-4.687053223,1.590891724,7.89964071
15.86506354,6.469247131,-5.069208527,1.810485077,8.415811889
15.87500254,7.128027191,-5.422324219,1.819765778,9.13903272
15.88494154,7.580685883,-5.626499634,1.98217804,9.646415208
15.89488054,8.257877655,-5.993237,2.170636139,10.43183082
15.90481954,8.605305176,-6.417754211,2.22317688,10.96272602
15.91475854,8.674311676,-6.74197998,2.145189056,11.19373991
15.92469754,8.438102875,-6.856491852,2.00088913,11.0551625
15.93463654,8.313561859,-6.373895416,1.919458466,10.6501725
15.94457554,8.026608582,-5.783822479,1.832788696,10.06171766
15.95451479,8.260871429,-5.200186157,1.600920868,9.891758209
15.96445379,8.706345062,-5.096152496,1.577719116,10.2107988
15.97439279,8.930429077,-5.548661499,0.8960366821,10.55192351
15.98433179,9.796528015,-5.989345093,0.4159849548,11.48987638
15.99427079,10.91590027,-6.301595764,1.196012878,12.66086232
16.00420979,11.25314896,-7.064110107,2.046095123,13.44327037
16.01414779,12.10817093,-7.13161972,3.11711792,14.39389548
16.02408679,11.80505127,-6.079308014,3.852837982,13.82611955
16.03402579,11.36810989,-5.607339478,4.304897919,13.38687135
16.04396479,11.01649109,-4.766837311,4.398153992,12.78395762
16.05390379,10.60514648,-4.137994995,4.351301422,12.18712265
16.06384279,10.36624329,-3.760480042,4.332590332,11.84784997
16.07378179,10.17179764,-3.793112183,4.021387482,11.57690479
16.08372079,10.46174469,-4.118535461,3.616030426,11.81042389
16.09365979,10.73552536,-4.233496399,2.88195694,11.89452279
16.10359879,11.19297409,-4.13036087,2.04759201,12.10517174
16.11353779,11.29865433,-3.593577118,1.321601715,11.92979535
16.12347679,11.18384308,-3.125201111,0.6433621216,11.63009642
16.13341579,11.07172623,-3.098706207,0.2203417969,11.49928921
16.14335479,10.78851517,-2.560275879,-0.2998265076,11.09220303
16.15329379,9.935139771,-1.78443924,-0.5291496277,10.10797828
16.16323279,9.484427032,-1.296004944,-0.6544390869,9.594908831
16.17317179,8.902586975,-0.9954299927,-0.2266287231,8.960931665
16.18311079,8.348888397,-1.173110504,0.4049079895,8.440620605
16.19304979,7.664212189,-1.265468445,0.6310876465,7.793576231
16.20298879,6.993906097,-1.287772064,0.6506968689,7.141182381
16.21292779,6.493047638,-1.571581879,0.5894741821,6.706490665
16.22286679,6.244564362,-1.864223328,0.9238787842,6.582056266
16.23280579,6.209088135,-1.982926483,1.472487946,6.682289552
16.24274479,6.053112488,-1.991159363,1.572480011,6.563351262
16.25268379,6.020480347,-1.929786987,1.151106262,6.42614247
16.26262279,5.792654114,-1.824705505,0.8857081604,6.137497113
16.27256179,5.968238983,-1.694626007,0.3647914124,6.214877846
16.28250079,6.366111603,-1.545835419,0.3631448364,6.561162874
16.29243979,6.50337616,-1.88622757,0.7994874573,6.81842622
16.30237879,7.170987854,-2.321672058,1.153351593,7.625185102
16.31231779,7.241341553,-2.674188995,2.08396637,7.995700726
16.32225579,7.397766266,-2.755170593,2.161505127,8.184742827
16.33219579,7.885003052,-2.653531952,2.452799377,8.673564996
16.34213379,7.800428925,-2.241588593,2.727777557,8.56225328
16.35207279,8.275391235,-2.271226959,2.131417694,8.842144162
16.36201179,8.894354095,-2.023492126,1.950444031,9.327823277
16.37195079,9.209448853,-1.91197403,2.28514801,9.679436672
16.38188979,9.200168152,-1.758393402,1.82769928,9.543349833
16.39182879,9.49056427,-1.381776581,1.686692505,9.737815376
16.40176779,10.04995102,-1.391356659,2.304158478,10.40415951
16.41170679,10.34438873,-1.698817291,3.043321381,10.9157759
16.42164579,10.87398743,-1.86512146,3.095113678,11.45870888
16.43158479,11.289673,-2.160157928,3.400179291,11.9868352
16.44152379,11.79861465,-2.641856232,3.975882111,12.72770013
16.45146279,11.9851268,-3.400927734,4.212390289,13.15119028
16.46140179,12.14768875,-3.597918091,4.136947174,13.32762877
16.47134079,12.6340274,-3.371439056,3.763623505,13.6069876
16.48127979,12.92801605,-2.937491455,3.418591003,13.69120957
16.49121879,13.00106415,-2.49111969,3.119213562,13.60010439
16.50115779,13.17470306,-2.422412567,2.965782623,13.71993987
16.51109679,13.39729019,-2.885100403,3.477867737,14.13883845
16.52103579,13.18518127,-3.73488327,3.758683777,14.21006904
16.53097479,13.26227097,-4.701872406,3.801943817,14.57567193
16.54091379,13.30627945,-5.320535889,4.051774292,14.8923487
16.55085279,13.17485275,-5.391188965,3.71617218,14.71229415
16.56079179,13.33666626,-5.412444763,3.6588414,14.8508702
16.57073079,13.25209213,-5.244494019,3.91750351,14.78071369
16.58066979,12.46383133,-4.594695282,3.988006897,13.86948143
16.59060879,11.51824768,-3.695365448,3.821403351,12.68577467
16.60054779,10.8491391,-3.015628967,3.809428253,11.88737065
16.61048679,10.10009674,-3.072360992,3.654799805,11.17179117
16.62042579,9.87436615,-3.259621582,3.104993134,10.85215288
16.63036479,10.00743942,-3.876039734,2.949167175,11.12969518
16.64030279,10.30651749,-5.391638031,3.466641083,12.13720164
16.65024179,10.51623138,-6.846911774,4.875810699,13.46272087
16.66018079,10.67520081,-7.176975403,5.788313141,14.10579516
16.67011979,10.57371185,-6.793772278,5.480253754,13.71101401
16.68005879,10.39513321,-6.11957428,4.784051514,12.97671502
16.68999779,10.38390656,-5.295238495,3.736230469,12.24028121
16.69993679,10.42836411,-4.81488739,3.327280884,11.95845795
16.70987579,10.26415558,-4.568948822,3.335813141,11.71989046
16.71981479,9.81239502,-4.168531494,3.260220337,11.14848813
16.72975379,9.19103714,-3.864962769,3.099155273,10.44116202
16.73969279,8.693022766,-3.867208099,3.184028778,10.03304453
16.74963179,8.140222321,-3.85538269,3.619323578,9.707043746
16.75957079,7.44057724,-3.687132568,3.70449646,9.092877997
16.76950979,6.873556366,-3.55944809,3.269501038,8.402683194
16.77944879,6.448141022,-3.632196808,2.751727753,7.89578254
16.78938779,6.08095459,-3.634891205,2.286644897,7.444406469
16.79932679,5.83875824,-3.451223145,1.636397095,6.977093552
16.80926579,5.688770142,-3.368295593,1.080153809,6.698824761
16.81920479,5.540428619,-3.602109375,0.9909393311,6.682327588
16.82914379,5.414241028,-3.799399109,1.316661987,6.744111378
16.83908279,5.342839508,-4.001478882,1.668280792,6.880474406
16.84902179,5.332810364,-4.22047348,2.245031433,7.161803468
16.85896079,5.070256348,-4.414320374,2.75322464,7.264569479
16.86889979,4.892426147,-4.471202087,2.792592773,7.192082877
16.87883879,4.805756378,-4.688400421,2.674039307,7.226816664
16.88877779,4.673880615,-4.925956421,2.483635254,7.230397689
16.89871679,4.674778748,-4.900659027,2.058968353,7.078796926
16.90865579,4.734354858,-5.105732574,1.806293793,7.193421878
16.91859479,5.013374634,-5.357209625,2.040257263,7.615528208
16.92853379,5.208568726,-5.316045227,2.490520935,7.848071072
16.93847179,5.17533783,-5.229225769,2.490071869,7.76719909
16.94841079,5.323379974,-5.406906281,2.620151367,8.027340971
16.95834992,5.377417603,-5.632187805,2.64200592,8.223038053
16.96828892,5.431455231,-5.870941315,2.491269379,8.37705682
16.97822792,5.849685516,-6.0224263,2.389181671,8.729068005
16.98816692,6.23767868,-6.214476929,2.349813538,9.113176311
16.99810592,6.491999817,-6.551725616,2.240091705,9.491532069
17.00804492,6.971901855,-7.245682526,2.547552338,10.37291442
17.01798392,6.848708038,-7.314689026,2.974913635,10.45273115
17.02792292,7.204817505,-7.267986145,3.046764221,10.67781767
17.03786192,7.163503418,-7.360344086,3.502865753,10.85175169
17.04780092,6.766229553,-7.278314667,3.720962219,10.61137534
17.05773992,6.732549591,-7.096742249,3.138822784,10.27342119
17.06767892,6.83448761,-6.897356873,2.641856232,10.06295966
17.07761792,7.377258911,-7.26035202,2.314786377,10.60636113
17.08755692,8.118667145,-7.905809784,1.966460724,11.50137176
17.09749592,8.906329193,-8.802894287,2.012415161,12.68319606
17.10743492,9.532626801,-9.12547348,2.287393341,13.39318514
17.11737392,10.3939357,-9.130862274,3.251089325,14.21183053
17.12731292,10.57101746,-8.808881836,4.479584656,14.4709878
17.13725192,10.34244278,-7.5061409,5.236261139,13.81038394
17.14719092,10.28122009,-6.120173035,5.522615662,13.17798499
17.15712992,9.881850586,-4.708159332,5.143005066,12.09414058
17.16706892,9.99606308,-4.031117249,4.418361969,11.64873838
17.17700792,9.891580353,-4.165088654,3.809428253,11.38872552
17.18694692,10.30591873,-4.554728394,3.360212402,11.75791389
17.19688592,10.67295547,-5.162913666,3.482508087,12.35700282
17.20682492,10.96484848,-5.408253479,3.218307495,12.64257138
17.21676392,11.48112488,-5.476960602,3.31485672,13.14540227
17.22670292,11.56405243,-5.194497986,3.515738983,13.15562764
17.23664092,11.44400208,-4.615052948,3.222049713,12.75325455
17.24657992,11.01200043,-4.025279388,2.501747589,11.98856824
17.25651892,10.41444305,-3.813769226,2.046993256,11.27810451
17.26645792,9.389823761,-3.780388641,2.00433197,10.31879233
17.27639692,8.206085358,-3.931723938,2.158661041,9.351903951
17.28633592,6.983876953,-3.78053833,1.959425354,8.179630498
17.29627492,6.070326691,-3.474125519,1.375489655,7.128140434
17.30621392,5.459896088,-3.67994751,1.356778564,6.722598235
17.31615292,4.604874115,-3.823948059,1.617536316,6.200311936
17.32609192,4.229454803,-3.58160202,1.626817017,5.77604489
17.33603092,4.026476898,-3.076252899,1.279389496,5.226153996
17.34596992,4.12691803,-2.806064758,0.5445675659,5.020159926
17.35590892,4.217330017,-2.656226349,0.340841217,4.995756562
17.36584792,4.422104187,-2.577789459,0.4141886902,5.135324353
17.37578692,4.738546143,-2.68302063,0.6789880371,5.487571776
17.38572592,5.063520355,-2.764451294,1.368154907,5.929019919
17.39566492,5.344037018,-2.779420166,1.824705505,6.293922329
17.40560392,5.704337769,-2.911295929,2.008523254,6.711875969
17.41554292,6.264323273,-3.254681854,2.587219849,7.518537529
17.42548192,6.665638733,-3.316652985,3.05394928,8.04720653
17.43542092,7.191195831,-3.331322479,3.245251465,8.564033163
17.44535992,7.693551178,-3.385958862,3.215313721,8.999649408
17.45529892,8.125403137,-3.345692596,3.257076874,9.371466526
17.46523792,8.66098938,-3.208727417,3.330424347,9.818370283
17.47517692,9.031319275,-3.013982391,3.33940567,10.0896208
17.48511592,9.358538818,-2.825673981,3.311563568,10.32148902
17.49505492,9.63561264,-2.767894135,3.579955444,10.64529708
17.50499392,10.05519012,-2.530787201,3.78293335,11.03731476
17.51493292,10.36265076,-2.628833313,4.042044525,11.42949777
17.52487092,10.60065582,-2.712060242,4.031716003,11.66121385
17.53480992,10.84210373,-2.983445892,3.79580658,11.86845863
17.54474892,11.09612549,-3.199746094,3.311563568,12.0136934
17.55468792,11.4489418,-3.627406769,3.058889008,12.39327036
17.56462692,11.78903458,-4.159101105,3.22938446,12.91156002
17.57456592,12.01117264,-4.425696716,3.423530731,13.25049517
17.58450492,12.18406311,-4.530927887,3.875590668,13.5646933
17.59444392,12.17418365,-4.30714325,4.561464386,13.69559009
17.60438292,12.1523291,-3.802392883,4.85814743,13.6286056
17.61432192,12.11221252,-3.337310028,4.526137848,13.35399769
17.62426092,12.28076202,-3.225342865,3.936513977,13.2934606
17.63419992,12.56322464,-3.728296967,3.500770111,13.56429884
17.64413892,12.93969177,-4.704716492,3.499273224,14.20615689
17.65407792,13.20254517,-5.578449554,3.727099457,14.80937435
17.66401692,13.24430832,-6.135291595,4.251758423,15.20299166
17.67395592,13.14491501,-5.788313141,4.453987885,15.03766497
17.68389492,12.80078064,-4.892426147,4.436773682,14.40419312
17.69383392,12.27372665,-4.262685699,4.532424774,13.76073144
17.70377292,11.62347885,-3.894750824,4.786296844,13.15990053
17.71371192,10.8120163,-3.732338562,4.760251007,12.38910962
17.72365092,10.32597702,-3.811224518,4.434228973,11.86649149
17.73358992,9.892777863,-4.19352951,4.051325226,11.48329133
17.74352892,9.804311829,-4.929249573,3.834875336,11.62446991
17.75346792,9.820029144,-5.847290497,3.949686584,12.09230345
17.76340692,9.933193817,-6.603517914,4.085005188,12.60801553
17.77334592,10.1099762,-7.12114151,4.363575897,13.11346902
17.78328492,10.42132874,-6.859335938,4.288132782,13.19252307
17.79322392,10.77279785,-6.462211761,4.055217133,13.20068712
17.80316292,10.89614136,-6.212980042,4.201163635,13.2278794
17.81310192,10.71606583,-5.445675659,4.095483398,12.6989147
17.82303992,10.69211563,-4.734504547,3.994593201,12.356927
17.83297892,10.40546173,-4.323758698,4.171824646,12.0155168
17.84291792,9.946965179,-4.132157135,4.39246582,11.63230823
17.85285692,9.303153992,-4.021986237,4.520299988,11.09766459
17.86279592,8.671018524,-3.766766968,4.393064575,10.42468762
17.87273492,8.160430298,-3.640579376,4.150419159,9.852533686
17.88267392,7.488777008,-3.764072571,4.023782501,9.297357098
17.89261292,6.811285858,-3.87065094,3.670666809,8.651551801
17.90255192,6.392307129,-3.886068878,3.23761734,8.151397904
17.91249092,6.008804626,-3.862118683,2.703378296,7.637404531
17.92242992,5.802982635,-3.870351563,2.009421387,7.258925747
17.93236892,5.513784027,-4.103416901,1.689835968,7.077809701
17.94230792,5.148693237,-4.352049866,1.519639893,6.910765912
17.95224692,4.985981598,-4.587659912,1.53041748,6.946136597
17.96218637,4.822521515,-4.910089417,1.885778503,7.135954905
17.97212538,4.43931839,-5.115162964,2.182012482,7.115730348
17.98206437,4.279450836,-5.12968277,2.109413452,7.005495692
17.99200337,4.287084961,-5.321134644,2.352957001,7.227031064
18.00194238,4.1339534,-5.451064453,2.561623077,7.305175369
18.01188137,4.17017807,-5.476810913,2.600841522,7.358683275
18.02182037,4.131408691,-5.546266479,2.581980743,7.382156473
18.03175938,4.166136475,-5.642516327,2.616409149,7.486005641
18.04169837,4.461172943,-5.755381622,2.84213974,7.816920106
18.05163737,4.911436615,-5.988147583,3.34644104,8.436752262
18.06157637,4.979395294,-6.077661438,3.736380157,8.700165673
18.07151537,5.130131836,-6.256389771,3.568579102,8.842817561
18.08145438,5.308261414,-6.68584671,3.78293335,9.337492715
18.09139337,5.209616547,-6.936575317,3.960164795,9.536198766
18.10133237,5.294190674,-7.278913422,3.689976654,9.727639138
18.11127138,5.613476715,-7.710765381,3.503614197,10.16082359
18.12120938,5.771398315,-8.029752045,3.45990509,10.47649272
18.13114837,5.929469604,-8.288114777,3.505111084,10.77669987
18.14108737,6.016289062,-8.239465942,3.518732758,10.79194205
18.15102637,5.862708435,-7.965385895,3.343746643,10.44027606
18.16096537,5.833219757,-7.81734375,3.174598389,10.25745538
18.17090438,6.068680115,-7.809859314,3.323239288,10.43392065
18.18084337,6.248755646,-7.801776123,3.421435089,10.56507813
18.19078237,6.873855743,-8.154442749,3.369642792,11.18478081
18.20072138,7.498806152,-8.602012024,3.27743454,11.87300643
18.21066037,8.163124695,-9.123377838,3.336411896,12.68874589
18.22059937,8.743467865,-9.512867889,3.727398834,13.44754207
18.23053838,9.105415192,-9.47649353,4.257296906,13.81437991
18.24047737,9.108408966,-8.977431335,4.826114044,13.66926348
18.25041637,8.770860901,-7.97885788,5.268144836,12.97472636
18.26035537,8.565338287,-6.809788971,5.45031601,12.22473682
18.27029437,8.243058472,-5.822891235,5.271737366,11.38618857
18.28023338,8.212671661,-5.165158997,4.835245056,10.84003865
18.29017237,8.424930267,-4.968468018,4.371659088,10.71338078
18.30011137,8.750652924,-5.188660126,4.037254486,10.94511509
18.31005038,9.271419983,-5.589975586,3.614234161,11.41357718
18.31998937,10.03573059,-6.004014587,3.272045746,12.14373761
18.32992837,10.63224014,-6.205345917,2.983894958,12.6670627
18.33986738,10.83476898,-6.145769806,2.638114014,12.73272755
18.34980637,11.01005447,-5.940247192,2.411335602,12.74057988
18.35974537,10.94119766,-5.445825348,2.378254395,12.45081981
18.36968438,10.43704605,-4.803660736,2.321971436,11.72171652
18.37962337,9.781708832,-4.245621185,2.359992371,10.92138686
18.38956237,8.989556122,-3.816463623,2.433190155,10.06468719
18.39950038,8.08992691,-3.530258789,2.443368988,9.158585947
18.40944037,7.228468323,-3.365900574,2.270029449,8.290541277
18.41937837,6.712341614,-3.329376526,2.219883728,7.814612067
18.42931738,6.076463928,-3.21770874,1.8592836,7.12278028
18.43925637,5.685027924,-3.131637726,1.365909576,6.63267716
18.44919537,5.442232819,-3.238216095,0.9192384338,6.399135944
18.45913438,5.270689545,-3.203638,0.6300398254,6.200033459
18.46907337,5.44088562,-3.073408813,0.4977149963,6.26871584
18.47901237,5.616171112,-3.019520874,0.5803431702,6.402787086
18.48895137,5.851182404,-3.022215271,0.6053411865,6.613362126
18.49889037,6.226152649,-2.999163208,0.616867218,6.938334232
18.50882938,6.520590363,-3.040177917,0.7839198303,7.237078882
18.51876837,6.828500061,-3.219654694,1.075663147,7.625722303
18.52870737,7.216044159,-3.422333221,1.500479736,8.126198215
18.53864638,7.544910278,-3.628304901,2.021396484,8.612567057
18.54858537,7.848479004,-3.849245453,2.480940857,9.08682457
18.55852437,8.132438507,-4.037853241,2.852917328,9.517350059
18.56846338,8.312214661,-4.042194214,3.1744487,9.772889602
18.57840237,8.431217194,-3.962410126,3.438798981,9.930330095
18.58834137,8.582851868,-3.870201874,3.605252838,10.0817487
18.59828038,8.729397125,-3.669469299,3.55241272,10.11370433
18.60821937,8.989406433,-3.459755402,3.405119019,10.2163678
18.61815838,9.174870758,-3.346291351,3.140319672,10.25853434
18.62809737,9.400900726,-3.252286835,2.856060791,10.34946314
18.63803637,9.709708557,-3.174598389,2.627037048,10.54788315
18.64797538,10.09410919,-3.247496796,2.42091568,10.87649339
18.65791437,10.54766602,-3.464096375,2.31328949,11.34039375
18.66785337,11.00721039,-3.691772919,2.292482758,11.83399109
18.67779238,11.41032211,-3.923491058,2.326611786,12.28830156
18.68773137,11.83184555,-4.205803986,2.353855133,12.77583619
18.69767037,12.22612564,-4.449048157,2.536625061,13.25543829
18.70760837,12.48897903,-4.44395874,2.985092468,13.58801471
18.71754737,12.59840149,-4.213587799,3.354823608,13.70141904
18.72748637,12.70273453,-3.864962769,3.710783386,13.78649031
18.73742538,12.85676422,-3.482807465,3.916605377,13.88402434
18.74736437,13.2272438,-3.583697662,3.901486816,14.24866545
18.75730337,13.7541481,-4.361929321,3.880680084,14.94197762
18.76724238,14.16279831,-5.443430328,3.82499588,15.64756796
18.77718137,14.45993042,-6.283932495,3.908671875,16.24361755
18.78712037,14.53208038,-6.527476044,3.826941833,16.3839796
18.79705938,14.08091858,-6.260131989,3.660487976,15.83858241
18.80699837,13.37827972,-5.622158661,3.5301091,14.93481525
18.81693737,12.44571899,-4.732558594,3.501668243,13.76788701
18.82687637,11.62692169,-3.945195923,3.621119843,12.80087449
18.83681537,10.975177,-3.700305176,3.553310852,12.11498191
18.84675438,10.56847275,-3.884122925,3.444187775,11.77461067
18.85669337,10.38779846,-4.386178894,3.415896606,11.78190442
18.86663237,10.42102936,-5.045108643,3.251538391,12.02595011
18.87657138,10.54736664,-5.698200531,3.037034454,12.36689171
18.88651037,10.63882645,-6.315067749,2.963237915,12.7218508
18.89644937,10.68897217,-6.756649475,2.947819977,12.98445535
18.90638838,10.67385361,-6.972650299,3.033890991,13.10547586
18.91632737,10.54542068,-6.938371582,3.223696289,13.0283965
18.92626637,10.39797729,-6.702611847,3.50795517,12.85879803
18.93620538,10.08707382,-6.37224884,3.743415527,12.50471005
18.94614437,9.754615173,-5.974825287,4.017196198,12.1238987
18.95608329,9.391470337,-5.634133759,4.306843872,11.76826591
18.96602229,8.788075104,-5.233866119,4.509223022,11.17840377
18.97596129,8.193361816,-4.830754395,4.540807343,10.53974844
18.98590029,7.597451019,-4.472998352,4.511767731,9.903788381
18.99583929,7.07788147,-4.198918304,4.32929718,9.298931933
19.00577829,6.569538574,-4.043691101,3.854634247,8.623716135
19.01571629,6.188730469,-4.020489349,3.300935669,8.084608569
19.02565529,5.870941315,-4.037254486,2.806064758,7.657765675
19.03559429,5.633535004,-4.105213165,2.317780151,7.345855743
19.04553329,5.485642548,-4.189038849,1.947599945,7.171712918
19.05547229,5.352269897,-4.233496399,1.668729858,7.025236235
19.06541129,5.218298492,-4.30355072,1.45557312,6.918806332
19.07535029,5.175038452,-4.403542786,1.318009186,6.92165878
19.08528929,5.13671814,-4.576882324,1.249002686,6.992405363
19.09522829,5.173541565,-4.802463226,1.307830353,7.17910897
19.10516729,5.187612305,-5.008434906,1.651815033,7.39758302
19.11510629,5.194947052,-5.124892731,1.914818115,7.544436943
19.12504529,5.191504211,-5.286257172,2.13890213,7.711752926
19.13498429,5.157075806,-5.422024841,2.347268829,7.842413863
19.14492329,5.191055145,-5.503754883,2.475102997,7.960182547
19.15486229,5.146298218,-5.541027374,2.580932922,7.990530925
19.16480129,5.137466583,-5.533542938,2.666554871,8.00775719
19.17474029,5.069657593,-5.54267395,2.691103821,7.979016381
19.18467929,5.022355957,-5.623505859,2.635569305,7.987121075
19.19461829,5.050497437,-5.808521118,2.536175995,8.10423535
19.20455729,5.159919891,-6.079607391,2.451452179,8.342422736
19.21449629,5.31215332,-6.370452576,2.32496521,8.614354424
19.22443529,5.497617645,-6.626869354,2.222727814,8.89267767
19.23437429,5.752836914,-6.950496368,2.140548706,9.272889576
19.24431329,6.113886108,-7.200027466,2.284848633,9.718051869
19.25425229,6.388564911,-7.378755798,2.556234283,10.08930783
19.26419129,6.4378125,-7.486082611,2.822081451,10.26893404
19.27413029,6.442003784,-7.475604401,3.009641418,10.31707397
19.28406929,6.589447174,-7.382498016,3.183879089,10.39515161
19.29400829,6.834188232,-7.346423035,3.048859863,10.4867348
19.30394729,7.357050934,-7.520810394,2.82462616,10.89345218
19.31388629,8.024812317,-8.044571228,2.499951324,11.63453891
19.32382429,8.915310516,-8.947194214,2.321222992,12.84223976
19.33376329,9.571845245,-9.826166382,2.429597626,13.9311418
19.34370229,9.849368134,-10.32043854,2.798730011,14.53803267
19.35364129,9.79592926,-10.19934036,3.297642517,14.52106126
19.36358029,9.543554077,-9.095835114,3.917802887,13.75364753
19.37351929,9.304201813,-7.504793701,4.272565155,12.69428662
19.38345829,9.056317291,-6.168522491,4.352498932,11.79032652
19.39339729,8.982071686,-5.220843201,4.189338226,11.20202528
19.40333629,9.217382355,-4.761448517,3.767964478,11.03762138
19.41327529,9.627529449,-4.830904083,3.153043213,11.22357515
19.42321429,9.949659576,-5.163213043,2.60458374,11.50818626
19.43315329,10.39483383,-5.557193756,2.241139526,11.9982365
19.44309229,11.04747665,-5.794151001,1.901046753,12.61875212
19.45303129,11.51016449,-5.726192322,1.594035187,12.95430868
19.46297029,11.87750061,-5.469326477,1.397493896,13.15072401
19.47290929,11.83528839,-4.975503387,1.183738403,12.89305712
19.48284829,11.15255814,-4.259841614,1.145867157,11.99328208
19.49278729,10.26939468,-3.607797546,1.284927979,10.96027875
19.50272629,9.392967224,-3.152743835,1.5129039,10.02279927
19.51266529,8.574618988,-2.799478455,1.756597137,9.189494214
19.52260429,7.755971375,-2.557282104,1.981130219,8.40355048
19.53254329,7.093149719,-2.389181671,2.142195282,7.785240049
19.54248229,6.626120911,-2.270029449,2.201921082,7.342136506
19.55242129,6.280489655,-2.19623291,2.146236877,6.991017239
19.56236029,5.911357269,-2.207758942,1.774709473,6.554993366
19.57229929,5.55090683,-2.34247879,1.196162567,6.142522153
19.58223829,5.338797913,-2.527494049,0.7442523193,5.953562029
19.59217729,5.302124176,-2.651286621,0.4526586914,5.945312558
19.60211629,5.395529938,-2.735261993,0.2582130432,6.054756433
19.61205529,5.547164612,-2.848426666,0.2897973633,6.242479653
19.62199429,5.7158638,-3.028651886,0.2999761963,6.475632552
19.63193229,5.997428284,-3.318000183,0.3921844482,6.865280757
19.64187129,6.392307129,-3.673810272,0.7247927856,7.408359935
19.65181029,6.795269165,-4.04848114,1.283281403,8.013282332
19.66174929,7.279811554,-4.352349243,1.89670578,8.69115027
19.67168829,7.868986359,-4.450844421,2.626587982,9.41434686
19.68162729,8.429869995,-4.411775665,3.266956329,10.05979504
19.69156629,8.999734955,-4.271367645,3.603755951,10.59371832
19.70150529,9.543105011,-4.033063202,3.676804047,10.99342258
19.71144429,10.07195526,-3.713178406,3.706741791,11.35658009
19.72138329,10.47716263,-3.367996216,3.660637665,11.59804308
19.73132229,10.80393311,-3.030448151,3.407514038,11.72688102
19.74126129,11.11124405,-2.647394714,3.179238739,11.85647511
19.75120029,11.41735748,-2.357447662,2.97551239,12.03192775
19.76113929,11.65970352,-2.242786102,2.729424133,12.18312488
19.77107829,11.85070633,-2.301464081,2.517913971,12.33190448
19.78101729,12.06805435,-2.500250702,2.327060852,12.54210515
19.79095629,12.2319635,-2.776276703,2.110461273,12.71938246
19.80089529,12.32791397,-3.090772705,2.043400726,12.87267747
19.81083429,12.4482637,-3.317850494,2.21733902,13.07226046
19.82077329,12.45574814,-3.396437073,2.493814087,13.14916557
19.83071229,12.51547394,-3.481160889,2.728376312,13.27401998
19.84065129,12.6645639,-3.748205566,2.855611725,13.5127622
19.85059029,12.89164169,-4.320315857,2.952909393,13.91327526
19.86052929,13.28592178,-5.152734833,3.13582901,14.59108692
19.87046829,13.78767838,-6.045927429,3.375330963,15.42874501
