Time (s),Acceleration x (m/s^2),Acceleration y (m/s^2),Acceleration z (m/s^2),Absolute acceleration (m/s^2)
0.002446375001,7.709118805,-3.529660034,0.5631289673,8.49741884
0.01238537498,7.525151367,-3.348386993,0.6695576477,8.263649678
0.02232437499,7.338040466,-3.240162048,0.7168592834,8.053531847
0.032263375,7.171287231,-3.153641968,0.6625222778,7.862045153
0.04220237499,7.063062286,-3.129242706,0.5477110291,7.744610781
0.052141375,6.984176331,-3.133733368,0.4517605591,7.66831738
0.06208037501,6.96321991,-3.163072357,0.3478765869,7.65587855
0.07201937499,6.96546524,-3.207080841,0.2875520325,7.673705735
0.081958375,6.979985046,-3.276985474,0.2517764282,7.715064252
0.09189737498,6.962471466,-3.371588745,0.2874023438,7.741202729
0.101836375,6.924749908,-3.494632874,0.3820056152,7.765986641
0.111775375,6.879843292,-3.654949493,0.450712738,7.80346343
0.121714375,6.826105042,-3.798351288,0.4980143738,7.827592277
0.131653375,6.791377258,-3.886517944,0.5658233643,7.845252251
0.141592375,6.764433289,-3.942950592,0.6101312256,7.853450019
0.151531375,6.749614105,-4.005071411,0.6256988525,7.873333896
0.161470375,6.775510254,-4.100123749,0.652792511,7.946363446
0.171409375,6.747967529,-4.199666748,0.6828799438,7.977379995
0.181348375,6.664141846,-4.302802277,0.7068301392,7.963950202
0.191286375,6.577771454,-4.43467804,0.7301815796,7.966593485
0.201225375,6.498735809,-4.557123413,0.7408094788,7.971809055
0.211165375,6.425687714,-4.665048981,0.74065979,7.975006051
0.221103375,6.383475494,-4.812192993,0.7586224365,8.030035417
0.231042375,6.380930786,-5.027744751,0.7915539551,8.162172054
0.240981375,6.459367676,-5.319637756,0.8491841125,8.410891171
0.250920375,6.605763245,-5.606141968,0.9069639587,8.711344295
0.260859375,6.725813599,-5.860612793,1.017583923,8.978798801
0.270798375,6.804699554,-6.037095795,1.14437027,9.168426527
0.280737375,6.853647766,-6.134393463,1.198856964,9.275803409
0.290676375,6.893614655,-6.206842804,1.209933929,9.354718633
0.300615375,6.963818665,-6.288722534,1.23328537,9.463814998
0.310554375,7.077582092,-6.309379578,1.18763031,9.555673952
0.320493375,7.381749573,-6.413113861,1.018781433,9.831387072
0.330432375,7.938890991,-6.711892548,0.6981481934,10.41935231
0.340371375,8.573571167,-7.233707428,0.3450325012,11.2228202
0.350310375,9.128766632,-7.814200287,0.08981323242,12.01682873
0.360249375,9.584568787,-8.324489136,0.01167572021,12.69492869
0.370188375,9.819131012,-8.565188599,0.1480421448,13.03072162
0.380127375,9.8590979,-8.384514313,0.4505630493,12.95009261
0.390066375,9.777068481,-7.620203705,0.8794212341,12.42706539
0.400005375,9.624236298,-6.447392578,1.274150391,11.65410891
0.409944375,9.726324005,-5.251230011,1.426982574,11.14509195
0.419883375,10.09036697,-4.184398499,1.471739502,11.0222826
0.429822375,10.55574921,-3.498674469,1.460363159,11.2159362
0.439761375,11.12995514,-3.292104034,1.455273743,11.69750709
0.449700375,11.7249678,-3.57456665,1.572180634,12.35816122
0.459639375,12.15247879,-4.016148376,1.647923126,12.9045666
0.469578375,12.46892075,-4.378694458,1.587149506,13.31037164
0.479517375,12.65199005,-4.595443726,1.363065491,13.52955664
0.489456375,12.66471359,-4.632117462,1.012644196,13.52319973
0.499395375,12.42117004,-4.49425415,0.6851252747,13.22698689
0.509334375,11.95399155,-4.199666748,0.3965254211,12.67644852
0.519273375,11.35823044,-3.756288757,0.06421646118,11.96341204
0.529212375,10.79614929,-3.243305511,-0.5298980713,11.2852409
0.539151375,10.3633992,-2.654430084,-1.069076843,10.75123097
0.549090375,9.766889648,-2.084415436,-1.204395447,10.05919925
0.559029375,9.157506866,-1.773511963,-1.220861206,9.407219503
0.568968375,8.571026459,-1.728455658,-1.135538635,8.817000709
0.578907375,7.922574921,-1.757345581,-0.8946894836,8.164308062
0.588846375,7.37276825,-1.72471344,-0.6119274902,7.596499415
0.598785375,6.819818115,-1.807341614,-0.3620970154,7.064525255
0.608724375,6.399791565,-2.012265472,-0.3787124634,6.719372555
0.618663375,5.875881042,-2.35774704,-0.0303868103,6.331340497
0.628602375,5.427563324,-2.556234283,0.07349716187,5.999848263
0.638541375,5.28760437,-2.62688736,0.1074765015,5.90515439
0.648480375,5.08986557,-2.827919312,0.02664459229,5.822763012
0.658419375,5.031786346,-3.019071808,-0.1781295776,5.870723853
0.668358375,5.134921875,-3.313359833,-0.3790118408,6.122860934
0.678297375,5.173092499,-3.584446106,-0.4674778748,6.310917164
0.688236375,5.32861908,-3.765569458,-0.5257067871,6.545995896
0.698175375,5.522615662,-3.955973511,-0.4165837097,6.806067304
0.708114375,5.75687851,-4.169878693,-0.2026785278,7.111302066
0.718053375,6.061495056,-4.324357452,0.107177124,7.446695685
0.727992375,6.474935303,-4.422553253,0.4489164734,7.853998374
0.737931375,6.93747345,-4.456083527,0.6920109558,8.27430344
0.747870375,7.347620544,-4.404889984,0.8794212341,8.611850274
0.757809375,7.790998535,-4.384382629,0.9605525208,8.991392015
0.767748375,8.36849762,-4.41237442,0.8734336853,9.500720332
0.777687375,8.816665649,-4.390519867,0.7081773376,9.874804961
0.787626375,9.151369629,-4.356989594,0.5014572144,10.14802364
0.797565375,9.542506256,-4.373455353,0.2956352234,10.50113982
0.807504375,10.06447083,-4.428840179,0.09131011963,10.99620552
0.817443375,10.7668103,-4.520749054,-0.01631607056,11.67739878
0.827382375,11.50253036,-4.640200653,0.007035369873,12.40321395
0.837321375,12.10547653,-4.822072449,0.126486969,13.03115282
0.847260375,12.51487518,-5.047952728,0.287252655,13.49764578
0.857199375,12.75108398,-5.176086273,0.51717453,13.77132824
0.867138375,12.97606613,-5.208419037,0.8978329468,14.01113932
0.877077375,13.30478256,-5.157375183,1.196461945,14.31947202
0.887016375,13.687836,-5.329217834,1.255139923,14.74221127
0.896955375,14.17552185,-5.846542053,1.135239258,15.37583305
0.906894375,14.49031723,-6.448141022,0.9774673462,15.89035111
0.916833375,14.56695786,-6.83912796,0.9680369568,16.1216323
0.926772375,14.44720688,-6.845414886,1.034947815,16.02038104
0.936711375,14.25545563,-6.53960083,1.063388672,15.71989789
0.946650125,13.97059799,-5.936804352,1.115330658,15.22061814
0.956589125,13.63559464,-5.112169189,1.208287354,14.61244925
0.966528125,13.36346054,-4.325255585,1.309177551,14.10687277
0.976467125,13.1529982,-3.8273909,1.380279694,13.76791396
0.986406125,12.99073563,-3.744163971,1.418749695,13.59377897
0.996345125,12.78970367,-4.047133942,1.510658569,13.49955194
1.006284125,12.3885379,-4.618196411,1.562151489,13.31329887
1.016223125,11.89231979,-5.30990799,1.51170639,13.11135573
1.026162125,11.33308273,-5.880970459,1.392254791,12.84379037
1.036101125,10.74076447,-6.267317047,1.260977783,12.49933395
1.046040125,10.21056702,-6.406677246,1.105600891,12.10469105
1.055979125,9.781259766,-6.322552185,0.918639679,11.68296228
1.065918125,9.475445709,-6.146218872,0.7551795959,11.31946881
1.075857125,9.262139282,-5.894143066,0.5727090454,10.99345907
1.085796125,9.137298889,-5.569468231,0.4351451111,10.7097413
1.095735125,9.064101105,-5.225333862,0.3827540588,10.46940989
1.105674125,9.006470947,-4.88389389,0.3977229309,10.25315181
1.115613125,8.871302032,-4.531975708,0.5026547241,9.974540859
1.125552125,8.664731598,-4.257745972,0.6566844177,9.676632103
1.135491125,8.445138245,-4.054169312,0.7530839539,9.398073431
1.145430125,8.2174617,-3.91046814,0.7987390137,9.135448641
1.155369125,7.995623016,-3.856430511,0.812510376,8.914158223
1.165308125,7.771539001,-3.882775726,0.7734416199,8.721867789
1.175247125,7.55059845,-3.949387207,0.7077282715,8.550443004
1.185186125,7.323071594,-4.026925964,0.6128256226,8.379681709
1.195125125,7.157515869,-4.127666473,0.4990621948,8.277483132
1.205064125,7.018604736,-4.254153442,0.3829037476,8.216157815
1.215003125,6.860533447,-4.421355743,0.286204834,8.166836536
1.224942125,6.721921692,-4.620292053,0.1540296936,8.158128158
1.234881125,6.591692505,-4.767286377,0.06930587769,8.135246326
1.244820125,6.447392578,-4.927153931,0.0288899231,8.114588809
1.254759125,6.362070007,-5.103636932,0.01945953369,8.156189269
1.264698125,6.299350433,-5.263504486,0.04311035156,8.209028801
1.274637125,6.254294128,-5.428760834,0.1184037781,8.282611828
1.284576125,6.195316772,-5.509443054,0.2116598511,8.293413807
1.294515125,6.135590973,-5.552852783,0.3430865479,8.282352262
1.304454125,6.052962799,-5.582940216,0.4390370178,8.246231479
1.314393125,5.994883575,-5.591472473,0.4830455017,8.211974577
1.324332125,5.915398865,-5.578599243,0.5057981873,8.146689208
1.334271125,5.856870575,-5.596861267,0.4989125061,8.116446431
1.344210125,5.868995361,-5.669160919,0.4403842163,8.171807042
1.354149125,5.869294739,-5.727988586,0.3680845642,8.209382451
1.364088125,5.861660614,-5.789959717,0.2914439392,8.244248798
1.374027125,5.888155518,-5.893394623,0.2225871277,8.333787891
1.383966125,5.99787735,-6.050717468,0.1466949463,8.520987853
1.393905125,6.114634552,-6.221811676,0.1519340515,8.724836972
1.403844125,6.163732452,-6.414311371,0.2415975952,8.899064979
1.413783125,6.196065216,-6.567442932,0.4061054993,9.038111114
1.423722125,6.255341949,-6.663393402,0.6051914978,9.159496235
1.433661125,6.379733276,-6.711892548,0.758921814,9.291203397
1.443600125,6.658303986,-6.792275391,0.8336164856,9.547928225
1.453539125,7.090605011,-6.947502594,0.7429051208,9.954716457
1.463478125,7.588619385,-7.272476807,0.4296066284,10.51953539
1.473417125,8.049960022,-7.879464569,0.0008981323242,11.26444935
1.483356125,8.419391785,-8.596174164,-0.3737727356,12.03827539
1.493295125,8.655899963,-9.171876984,-0.5507048035,12.62343881
1.503234125,8.490643616,-9.424401855,-0.5249583435,12.6959033
1.513173125,8.111631775,-9.230704651,-0.2332150269,12.29060078
1.523112125,7.793243866,-8.5638414,0.1456471252,11.57995002
1.533051125,8.003556519,-7.665110321,0.462538147,11.09165338
1.542990125,8.935219116,-6.644382935,0.627046051,11.15254016
1.552929125,9.865085449,-5.628445587,0.6747967529,11.37781443
1.562868125,10.86545517,-4.955594788,0.6971003723,11.96252418
1.572807125,11.78155014,-4.755760345,0.5791456604,12.71839573
1.582746125,12.21594681,-5.002297668,0.2061213684,13.20207652
1.592685125,12.15816696,-5.601501617,-0.4034111023,13.39255707
1.602624125,11.71718399,-6.241121521,-1.184187469,13.32840195
1.612563125,11.20914047,-6.586004333,-1.734143829,13.11592688
1.622502125,10.4602478,-6.601871338,-2.096540222,12.54579492
1.632441125,9.495953064,-6.184239807,-2.264341278,11.55617532
1.642380125,8.779842224,-5.497917023,-2.244582367,10.59956938
1.652319125,8.373736725,-4.812791748,-2.03127594,9.869575122
1.662258125,8.085885315,-4.169279938,-1.578617249,9.233442963
1.672197125,7.765551453,-3.591331787,-0.94543396,8.607862612
1.682136125,7.34342926,-3.143762512,-0.3637435913,7.996343254
1.692075125,6.8531987,-2.849474487,0.009580078125,7.421989562
1.702014125,6.393804016,-2.750380554,0.1056802368,6.961069695
1.711953125,6.079308014,-2.749183044,-0.01332229614,6.672043976
1.721892125,5.869444427,-2.687960358,-0.2174977112,6.459319935
1.731831125,5.659281464,-2.600242767,-0.5507048035,6.252359948
1.741770125,5.546565857,-2.509531403,-1.016536102,6.172154106
1.751709125,5.341342621,-2.536924438,-1.381776581,6.072498095
1.761648125,5.23850647,-2.822829895,-1.718276825,6.193770572
1.771587125,5.166805573,-2.959046631,-1.830693054,6.229227388
1.781526125,5.399272156,-3.150947571,-1.871558075,6.525591164
1.791465125,5.663023682,-3.331322479,-1.812880096,6.815723067
1.801404125,5.999374237,-3.611240387,-1.600322113,7.182936672
1.811343125,6.493496704,-3.863914948,-1.278341675,7.663517182
1.821282125,7.129224701,-4.052223358,-0.8946894836,8.249050142
1.831221125,7.79159729,-4.189038849,-0.5611830139,8.864082648
1.841160125,8.259374542,-4.389621735,-0.3724255371,9.360809131
1.851099125,8.642877045,-4.540507965,-0.2793191528,9.766962444
1.861038125,8.942104797,-4.599335632,-0.2221380615,10.05805507
1.870977125,9.096583557,-4.607119446,-0.1598675537,10.19798704
1.880916125,9.283993835,-4.625680847,-0.0007484436035,10.37253418
1.890855125,9.526639252,-4.587360535,0.2704875183,10.57704569
1.900793125,9.814790039,-4.469106445,0.5128335571,10.79657419
1.910732125,10.09845016,-4.387526093,0.7370672607,11.03505093
1.920671125,10.43839325,-4.395459595,0.8722361755,11.35961771
1.930611125,10.79495178,-4.510121155,0.9144483948,11.73492193
1.940550125,11.24207199,-4.652924194,1.019978943,12.20959636
1.950488125,11.70954987,-4.752467194,1.112187195,12.68607358
1.960427125,11.93887299,-4.737049255,1.11622879,12.89272239
1.970366125,11.99051559,-4.735402679,1.032552795,12.93300692
1.980305125,11.91252777,-4.68390976,0.9306147766,12.83407076
1.990244125,12.02120178,-4.63002182,0.7911048889,12.90628689
2.000183125,12.35620514,-4.805157623,0.5602848816,13.26948621
2.010122125,12.88685165,-5.386997681,0.3484753418,13.97183326
2.020061125,13.39743988,-6.232888641,0.3218307495,14.77984679
2.030000125,13.73064697,-6.941215668,0.4537065125,15.39210807
2.039939125,13.91296783,-7.157515869,0.7828720093,15.66568211
2.049878125,13.87270157,-6.851701813,1.166823578,15.5164153
2.059817125,13.55566086,-6.074368286,1.484163666,14.92838347
2.069756125,13.27140198,-5.160818024,1.607058105,14.32992634
2.079695125,13.19895264,-4.437073059,1.487606506,14.00403303
2.089634125,13.31990112,-4.074826355,1.309177551,13.99063693
2.099573125,13.49354004,-4.077221375,1.245709534,14.1510123
2.109512125,13.55655899,-4.468807068,1.367705841,14.33949607
2.119451125,13.41285782,-5.090614014,1.569635925,14.43200827
2.129390125,12.95780411,-5.741161194,1.578916626,14.26038558
2.139329125,12.44976059,-6.269562378,1.302740936,14.00003875
2.149268125,11.93513077,-6.565047913,0.9315129089,13.65338481
2.159207125,11.45687531,-6.596332855,0.5990542603,13.23368675
2.169146125,11.09612549,-6.440357208,0.3908372498,12.83569069
2.179085125,10.70738388,-6.13708786,0.3062631226,12.34527092
2.189024125,10.39812698,-5.715714111,0.3083587646,11.86952053
2.198963125,10.16895355,-5.277724915,0.4213737488,11.464709
2.208902125,9.879455566,-4.864584045,0.5837860107,11.02763013
2.218841125,9.525741119,-4.498295746,0.7078779602,10.55819585
2.228780125,9.229806519,-4.193828888,0.7933502197,10.16891999
2.238719125,8.942104797,-4.003424835,0.8490344238,9.834099251
2.248658125,8.651259613,-3.92214386,0.8545729065,9.537179887
2.258597125,8.376880188,-3.972289581,0.8358618164,9.308591256
2.268536125,8.04906189,-4.124073944,0.7405101013,9.074345068
2.278475125,7.723937988,-4.292324066,0.5987548828,8.856735931
2.288414125,7.415429535,-4.474345551,0.4614903259,8.673023499
2.298353125,7.113806763,-4.623585205,0.3138972473,8.49013064
2.308292125,6.854994965,-4.784799957,0.1871109009,8.361834553
2.318231125,6.644981689,-4.92610611,0.1293310547,8.272788501
2.328170125,6.415059814,-5.085674286,0.06242019653,8.186633719
2.338109125,6.246959381,-5.246290283,0.02619552612,8.157741688
2.348048125,6.190227356,-5.356760559,0.0130229187,8.186205959
2.357987125,6.204148407,-5.401816864,0.005987548828,8.226245726
2.367926125,6.245312805,-5.449866943,0.02320175171,8.2888793
2.377865125,6.293362885,-5.518723755,0.03637435913,8.370427192
2.387804125,6.302344208,-5.58009613,0.04999603271,8.417809391
2.397743125,6.289470978,-5.607189789,0.04760101318,8.426166884
2.407682125,6.223907318,-5.620063019,0.06930587769,8.386115546
2.417621125,6.186335449,-5.664819946,0.09145980835,8.388640904
2.427560125,6.157894592,-5.73457489,0.1564247131,8.416025408
2.437499125,6.024521942,-5.795348511,0.2758763123,8.364032325
2.447438125,5.935906219,-5.819747772,0.3977229309,8.322417336
2.457377125,5.886958008,-5.849386139,0.4429289246,8.310702667
2.467316125,5.888155518,-5.951922913,0.4290078735,8.383305405
2.477255125,5.934109955,-6.135740662,0.3803590393,8.544334229
2.487194125,5.980962524,-6.347849579,0.3046165466,8.726963861
2.497133125,6.013894043,-6.558162231,0.2182461548,8.900788999
2.507072125,6.047574005,-6.830446014,0.155975647,9.124279287
2.517011125,6.127657471,-7.089108124,0.1460961914,9.371498502
2.526950125,6.173611908,-7.21245163,0.2547702026,9.497254885
2.536889125,6.164181519,-7.201973419,0.4984634399,9.492840498
2.546828125,6.084547119,-7.098688202,0.7226971436,9.377386576
2.556767125,6.091133423,-6.999893646,0.8075706482,9.314106924
2.566706125,6.370452576,-7.069199524,0.7072792053,9.54235253
2.576645125,6.908733215,-7.433841248,0.2868035889,10.15257832
2.586584125,7.510481873,-8.0396315,-0.3207829285,11.00663047
2.596523125,7.968379669,-8.733887787,-0.8602610779,11.8539411
2.606462125,8.224946136,-9.376501465,-1.132544861,12.52402398
2.616401125,8.399932251,-9.630523224,-1.093925171,12.82585325
2.626340125,8.446186066,-9.218130798,-0.7197033691,12.52317721
2.636279125,8.469986572,-8.225544891,-0.1657054138,11.80795154
2.646218125,8.745114441,-7.096891937,0.4167333984,11.27016275
2.656157125,9.235943756,-6.126759338,0.873583374,11.11768793
2.666096125,9.954000549,-5.356760559,0.959355011,11.34448644
2.676035125,10.46443909,-4.932393036,0.8178991699,11.59749738
2.685974125,10.73911789,-5.013674011,0.5285508728,11.86359752
2.695913125,10.75273956,-5.499114532,0.09310638428,12.07767931
2.705852125,10.57116714,-6.139931946,-0.3860472107,12.23100043
2.715791125,10.39273819,-6.595135345,-0.7577243042,12.33202998
2.725730125,10.09201355,-6.7244664,-1.015188904,12.16954372
2.735669125,9.812095642,-6.503076782,-1.222208405,11.83473793
2.745608125,9.53382431,-5.889652405,-1.34330658,11.28655324
2.755547125,9.227860565,-5.038522339,-1.375938721,10.60345818
2.765486125,9.040450287,-4.164938965,-1.352138214,10.04513493
2.775425125,8.879385223,-3.433859253,-1.19586319,9.595048727
2.785364125,8.54752533,-2.895279236,-0.9481283569,9.074237075
2.795303125,8.034542084,-2.566562805,-0.567020874,8.453556873
2.805242125,7.419022064,-2.432142334,-0.2245330811,7.81073747
2.815181125,6.747518463,-2.427352295,0.1251397705,7.171938687
2.825120125,6.225553894,-2.481240234,0.4083508301,6.714225554
2.835059125,5.875881042,-2.558629303,0.5911207581,6.43599143
2.844998125,5.634133759,-2.618205414,0.6227050781,6.243894971
2.854937125,5.43265274,-2.679877167,0.4553530884,6.074767803
2.864876125,5.321134644,-2.77657608,0.1445993042,6.00372864
2.874815125,5.289550323,-2.899021454,-0.2315684509,6.036331002
2.884754125,5.331014099,-3.040926361,-0.5858816528,6.16524142
2.894693125,5.468278656,-3.165617065,-0.8818162537,6.379718079
2.904632125,5.633235626,-3.300037537,-1.0683284,6.615505796
2.914571125,5.917494507,-3.460803223,-1.139430542,6.949259108
2.924510125,6.291416931,-3.620371399,-1.123413849,7.345139532
2.934449125,6.632707214,-3.811374207,-1.021775208,7.717733016
2.9443885,6.945556641,-3.997886353,-0.8912466431,8.063384706
2.9543275,7.315587158,-4.17481842,-0.7813751221,8.459164935
2.9642665,7.747439117,-4.277055817,-0.7310797119,8.879780227
2.9742055,8.132737885,-4.353097687,-0.6780899048,9.249361648
2.9841445,8.441545715,-4.472998352,-0.5918692017,9.571714448
2.9940835,8.704848175,-4.582720184,-0.476459198,9.848995858
3.0040225,9.097182312,-4.641098785,-0.3809577942,10.21976775
3.0139615,9.734407196,-4.640949097,-0.3213816833,10.78890069
3.0239005,10.77564194,-4.466561737,-0.3761677551,11.67073841
3.0338395,11.94740524,-4.109554138,-0.5578898621,12.64674537
3.0437785,12.60738281,-3.849095764,-0.7303312683,13.20208405
3.0537175,12.87128403,-3.91046814,-0.8749305725,13.48062376
3.0636565,12.79748749,-4.111051025,-1.032552795,13.48119401
3.0735955,12.54765701,-4.389172668,-1.151106262,13.34292243
3.0835345,12.55603958,-4.474195862,-1.14781311,13.37871569
3.0934735,12.77937515,-4.347559204,-0.980760498,13.53423775
3.1034125,13.16961365,-4.27076889,-0.7523355103,13.86521544
3.1133515,13.78887589,-4.463717651,-0.5343887329,14.50322188
3.1232905,14.45693665,-5.016667786,-0.2975811768,15.30550644
3.1332295,14.84672607,-5.7357724,0.01796264648,15.91617676
3.1431685,15.01168304,-6.250701599,0.3511697388,16.26484609
3.1531075,14.98922974,-6.385571136,0.7132667542,16.30831924
3.1630465,14.79074249,-6.141578522,0.9557624817,16.0436446
3.1729855,14.41188034,-5.619464264,1.064436493,15.5052797
3.1829245,13.93347519,-4.981940002,1.066532135,14.83573213
3.1928635,13.49683319,-4.413272552,0.9258247375,14.23020141
3.2028025,13.12350952,-4.098926239,0.8146060181,13.7728458
3.2127415,12.83386185,-4.08710083,0.8652008057,13.49670239
3.2226805,12.53792725,-4.370162201,0.9957293701,13.31500711
3.2326195,12.22477844,-4.96816864,1.061592407,13.23838684
3.2425585,11.96042816,-5.655239868,1.007105713,13.26830214
3.2524975,11.65985321,-6.180946655,0.9903405762,13.23393565
3.2624365,11.41017242,-6.521937561,1.019080811,13.18204195
3.2723755,11.28473328,-6.569089508,1.067729645,13.10107586
3.2823145,11.0959758,-6.409221954,0.8776249695,12.84402704
3.2922535,10.89928482,-6.171665955,0.5330415344,12.53666636
3.3021925,10.74809921,-5.77439209,0.4122427368,12.20799675
3.3121315,10.43524979,-5.287454681,0.3288661194,11.70298116
3.3220705,10.16386414,-4.910688171,0.2992277527,11.29196749
3.3320095,9.966574402,-4.496200104,0.409997406,10.9415044
3.3419485,9.668843536,-4.005071411,0.5909710693,10.48219343
3.3518875,9.354497223,-3.647764435,0.6646179199,10.06253053
3.3618265,9.085656281,-3.407364349,0.6725514221,9.726849812
3.3717655,8.804690552,-3.273991699,0.686023407,9.418716764
3.3817045,8.558901672,-3.304677887,0.7798782349,9.207817539
3.3916435,8.454868011,-3.48565155,0.94543396,9.193933064
3.4015825,8.417894897,-3.732488251,1.149309998,9.279727179
3.4115215,8.21865921,-3.975283356,1.195114746,9.207471761
3.4214605,7.915539551,-4.315675507,0.986149292,9.069361162
3.4313995,7.552694092,-4.669240265,0.6950047302,8.906628109
3.4413385,7.372019806,-4.968767395,0.5507048035,8.907221858
3.4512775,7.167395325,-5.118306427,0.5712121582,8.825808731
3.4612165,6.770869904,-5.070256348,0.3589535522,8.466464807
3.4711555,6.675518188,-5.450166321,-0.02380050659,8.617854865
3.4810945,7.254663849,-5.913153534,-0.006137237549,9.359250501
3.4910335,7.245233459,-5.988746338,-0.08247848511,9.400281553
3.5009725,6.347400513,-5.471871185,-0.4019142151,8.390018032
3.5109115,5.584586792,-4.985981598,-0.7583230591,7.52480405
3.5208505,4.987927551,-4.782854004,-1.256187744,7.023754077
3.5307895,4.61131073,-4.993765411,-1.437460785,6.947530003
3.5407285,4.479285278,-5.270689545,-0.9366023254,6.98007083
3.5506675,4.968018951,-5.411846008,-0.1151106262,7.347281128
3.5606065,5.626649323,-5.321883087,0.7770341492,7.783662651
3.5705455,5.481301575,-5.321733398,1.197210388,7.732970065
3.5804845,5.101391602,-5.746699677,1.059496765,7.757015331
3.5904235,5.563181305,-6.296356659,0.62599823,8.425257693
3.6003625,5.726491699,-6.281387787,0.07948471069,8.500285732
3.6103015,5.736670532,-6.391558685,-0.2869532776,8.593238819
3.6202405,6.540498962,-6.424789581,-0.2565664673,9.171797762
3.6301795,7.106022949,-6.317612457,-0.3739224243,9.51565065
3.6401185,7.00767746,-5.736820221,-0.4912783813,9.069730099
3.6500575,7.457791443,-5.598657532,-0.2222877502,9.328077573
3.6599965,7.665709076,-5.476511536,0.001347198486,9.42100186
3.6699355,7.313341827,-5.42337204,-0.307610321,9.110025086
3.6798745,7.659571838,-5.977819061,-0.7536827087,9.745327039
3.6898135,8.153245239,-6.479575653,-0.8018824768,10.44525366
3.6997525,8.206085358,-6.943910065,-0.9804611206,10.79439799
3.7096915,9.001830597,-7.172933807,-1.217118988,11.57433852
3.7196305,9.813442841,-7.23580307,-1.281036072,12.25975366
3.7295695,10.50605255,-7.178621979,-1.506167908,12.81320785
3.7395085,11.21153549,-6.530769196,-1.625769196,13.07641388
3.7494475,11.74547516,-5.360802155,-1.616787872,13.01185573
3.7593865,12.18795502,-4.227658539,-1.031205597,12.94151186
3.7693255,11.83932999,-3.183430023,-0.3122506714,12.26382737
3.7792645,11.23862915,-2.966680756,0.209564209,11.62548481
3.7892035,10.99254089,-3.360062714,0.8256829834,11.52422358
3.7991425,11.24641296,-3.396287384,1.56319931,11.85158912
3.8090815,11.74787018,-3.418890381,2.046693878,12.40524974
3.8190205,11.58455978,-3.675606537,2.492167511,12.40657115
3.8289595,11.4582225,-4.31881897,1.924098816,12.39537077
3.8388985,10.86335953,-4.442012787,0.5176235962,11.74785053
3.8488375,11.51031418,-4.551734619,-0.6357279968,12.39394088
3.8587765,11.33697464,-3.761378174,-0.8970845032,11.97830206
3.8687155,9.77721817,-2.476001129,-0.2662962341,10.08937513
3.8786545,8.945996704,-1.993105316,-0.3824546814,9.173308968
3.8885935,8.057594147,-2.118843842,-0.506995697,8.3469376
3.8985325,7.616162109,-2.088307343,-0.04730163574,7.897416684
3.9084715,7.312144318,-1.761836243,0.6036946106,7.545592664
3.9184105,6.337071991,-1.376387787,0.7167095947,6.524308193
3.9283495,6.597230988,-1.478475494,0.2868035889,6.766949297
3.9382885,6.046526184,-1.882185974,-0.2077679443,6.336108463
3.948227125,5.784570923,-1.854792938,-0.09774673462,6.075448299
3.958166125,6.374494171,-1.947599945,0.4447251892,6.680202241
3.968105125,5.924679565,-1.989662476,0.7698490906,6.297082844
3.978044125,5.375172272,-2.364483032,0.4290078735,5.887894761
3.987983125,5.52635788,-2.362986145,0.4411326599,6.026519141
3.997922125,5.345833282,-1.894161072,0.3760180664,5.683939588
4.007861125,5.217699738,-2.483784943,0.09460327148,5.779492017
4.017800125,5.714067535,-2.755469971,0.2927911377,6.350504642
4.027739125,6.454577637,-2.681673431,0.8991801453,7.047089456
4.037678125,6.376140747,-2.560724945,0.8497828674,6.923482794
4.047617125,6.949298859,-2.769989777,0.3345542908,7.48849281
4.057556125,7.566016388,-2.421215057,0.5037025452,7.959937348
4.067495125,8.573870544,-2.197280731,0.803379364,8.887334647
4.077433125,9.156309357,-2.248324585,1.294807434,9.516800448
4.087372125,9.293573914,-1.835782471,1.072220306,9.533638852
4.097311125,10.04396347,-1.507515106,0.3191363525,10.16147883
4.107250125,10.67594925,-1.243464203,0.2778222656,10.7517106
4.117189125,10.71052734,-1.325792999,0.5066963196,10.80415958
4.127128125,11.08415039,-1.483115845,0.6620732117,11.20251594
4.137068125,11.33248398,-1.61469223,1.030756531,11.49325381
4.147006125,11.55941208,-1.998194733,1.106199646,11.78288876
4.156945125,12.27193039,-2.175126801,1.543739777,12.55844674
4.166884125,12.57505005,-2.558180237,1.69776947,12.94444248
4.176823125,12.81170792,-3.260370026,2.136207733,13.39153673
4.186762125,13.22020844,-3.000959473,2.602637787,13.8041078
4.196701125,13.62766113,-2.90994873,2.655328217,14.18561657
4.206640125,13.4622551,-2.840642853,2.644550629,14.01053932
4.216579125,13.5948793,-2.753074951,2.508034515,14.0957583
4.226518125,13.84545822,-2.85965332,1.994003448,14.27761816
4.236457125,14.06190811,-3.353177032,1.57727005,14.54196812
4.246396125,14.58866272,-3.912863159,1.530866547,15.18167087
4.256335125,15.24265274,-4.218078461,1.739233246,15.91086361
4.266274125,15.65115326,-4.176764374,1.685944061,16.28638592
4.276213125,15.64651291,-3.838767242,1.569186859,16.18678002
4.286152125,15.27348862,-3.395239563,1.305585022,15.70068975
4.296091125,14.85061798,-2.966830444,1.369651794,15.20588318
4.306030125,14.20605835,-2.599644012,1.433568878,14.51293776
4.315969125,13.33831284,-2.536325684,1.682201843,13.68113081
4.325908125,12.61980698,-2.689457245,1.90718399,13.0433914
4.335847125,11.99111435,-3.25872345,2.171833649,12.61439508
4.345786125,11.38891663,-3.993096313,2.444716187,12.3137678
4.355725125,10.97083603,-4.730912018,2.658321991,12.23958527
4.365664125,11.09043732,-5.190007324,2.858904877,12.57407305
4.375603125,11.01304825,-5.438939667,2.799628143,12.59790515
4.385542125,10.75288925,-5.482349396,2.339185638,12.29441221
4.395481125,10.75588303,-5.31454834,1.806892548,12.13253083
4.405420125,10.90736801,-5.013674011,1.125808868,12.05715761
4.415359125,10.9459877,-4.690196686,0.7303312683,11.93088326
4.425298125,10.97293167,-4.291875,0.65758255,11.80075571
4.435237125,11.02352646,-4.071832581,0.8669970703,11.78344772
4.445176125,10.48315018,-3.839815063,1.178050232,11.226238
4.455115125,9.934840393,-3.505260773,1.217118988,10.60515372
4.465054125,9.588460693,-3.286415863,1.176703033,10.20410396
4.474993125,8.928034058,-3.254532166,1.173110504,9.574860835
4.484932125,8.406069489,-3.350033569,1.34914444,9.149039287
4.494871125,7.935148773,-3.358416138,1.463207245,8.739938241
4.504810125,7.608827362,-3.630699921,1.679357758,8.59630608
4.514749125,7.067103882,-3.921395416,1.913470917,8.305580668
4.524688125,6.509513397,-3.902834015,1.519041138,7.740372342
4.534627125,6.505322113,-4.049379272,0.9855505371,7.725800809
4.544566125,6.234086151,-4.170028381,0.7247927856,7.53513712
4.554505125,5.630092163,-4.531676331,0.4763095093,7.242989637
4.564444125,5.484594727,-4.669988708,0.5224136353,7.222360408
4.574383125,5.52276535,-4.883295135,0.7086264038,7.406055622
4.584322125,5.003944244,-4.969665527,0.4972659302,7.069958052
4.594261125,4.86757782,-4.959786072,0.1428030396,6.950768621
4.604200125,4.86054245,-4.885241089,0.00628692627,6.891334626
4.614139125,4.792583771,-4.927902374,-0.005388793945,6.874089761
4.624078125,4.886588287,-4.888983307,0.09071136475,6.912968351
4.634017125,4.872367859,-4.940176849,0.360151062,6.948023074
4.643956125,4.728816376,-4.936284943,0.7476951599,6.876602461
4.653895125,4.79737381,-4.923411713,0.8876541138,6.931284743
4.663834125,4.79497879,-4.884642334,0.7553292847,6.886368757
4.673773125,4.703369293,-4.837041321,0.5180726624,6.766612944
4.683712125,4.940027161,-4.970713348,0.4363426208,7.02155641
4.693651125,5.276078339,-5.194647675,0.9032217407,7.459033222
4.703590125,5.530698853,-5.236261139,0.9457333374,7.674729445
4.713529125,5.938899994,-5.393733673,0.552052002,8.041620327
4.723468125,6.407575378,-5.600603485,0.360151062,8.517833669
4.733407125,6.978637848,-5.822741547,0.2360591125,9.091833106
4.743346125,7.662415924,-6.213578796,0.4263134766,9.874356811
4.753285125,8.018974457,-6.410269775,0.9077124023,10.30628215
4.763224125,8.253386993,-6.577771454,1.055155792,10.60654646
4.773163125,8.516090698,-6.591542816,1.106798401,10.82576742
4.783102125,8.666228485,-6.575077057,0.7529342651,10.90422232
4.793041125,8.903485107,-6.881639557,0.4125421143,11.26051513
4.802980125,9.260193329,-7.536228333,0.4052073669,11.94613373
4.812919125,9.692045288,-8.15668808,0.4436773682,12.67533636
4.822858125,10.15563126,-8.599317627,0.200433197,13.3088423
4.832797125,10.61787003,-8.916807404,0.08397537231,13.86562909
4.842736125,10.88551346,-8.699758759,0.2417472839,13.93695259
4.852675125,11.0122998,-8.045169983,0.5480104065,13.64902277
4.862614125,11.06858276,-6.878346405,1.14077774,13.0815346
4.872553125,10.78911392,-5.672005005,1.549577637,12.28730283
4.882492125,10.40471329,-4.360432434,1.593885498,11.39350256
4.892431125,10.17134857,-3.68578537,1.45093277,10.91542722
4.902370125,9.868378601,-3.646566925,1.572330322,10.63741365
4.912309125,9.955796814,-3.718716888,1.611848145,10.74917671
4.922248125,10.09949799,-3.954177246,1.093625793,10.90098136
4.932187125,10.51787796,-4.323609009,0.672102356,11.39171072
4.942126375,11.02217926,-4.593497772,0.1683998108,11.94223664
4.952065375,11.6201857,-4.577032013,-0.458795929,12.49753702
4.962004375,11.8337915,-4.403093719,-0.9696835327,12.6635754
