Time (s),Acceleration x (m/s^2),Acceleration y (m/s^2),Acceleration z (m/s^2),Absolute acceleration (m/s^2)
4.969890292,3.187770996,-8.479866028,-1.071471863,9.122393531
4.979830292,3.733835449,-8.560697937,-0.08936416626,9.339971214
4.989769292,4.090244293,-8.948691101,0.9776170349,9.88761376
4.999709292,4.108356628,-9.090296631,1.212029572,10.0489354
5.009648292,3.771856384,-8.976682892,1.11862381,9.800972174
5.019587292,3.386407928,-8.692274323,0.9830058289,9.380282086
5.029527292,3.32653244,-8.160729675,0.7939489746,8.848371708
5.039466292,3.683090973,-7.595505066,1.230740662,8.530625938
5.049406292,4.114493866,-7.329657898,2.591261444,8.795884296
5.059345292,4.541256409,-7.721542969,2.530038757,9.308401136
5.069284292,5.211861877,-8.407865753,1.503772888,10.00585047
5.079224292,6.129304047,-9.244326324,0.7882608032,11.11968041
5.089163292,6.96905777,-9.937235413,0.4420307922,12.1454438
5.099103292,7.341782684,-10.21356079,0.4679269409,12.58719797
5.109042292,7.49207016,-10.21909927,0.6834786987,12.68969063
5.118981292,7.425159302,-9.983040161,1.161584473,12.49573367
5.128921292,7.029981079,-9.716743927,2.158361664,12.18582257
5.138860292,6.397546234,-9.599238281,3.190315704,11.96879642
5.148800292,5.908064117,-9.639354858,3.436403961,11.81656701
5.158739292,5.993386688,-9.774224396,2.552042999,11.74602358
5.168678292,6.65890274,-9.915680237,1.071920929,11.99211052
5.178618292,7.490722961,-10.06042923,-0.00419128418,12.54285392
5.188557292,8.118667145,-10.25487488,-0.5544470215,13.09131874
5.198497292,8.43870163,-10.41549088,-0.7253915405,13.4246165
5.208436292,8.426277466,-10.43330383,-0.2549198914,13.41346208
5.218375292,8.094417572,-10.35576508,1.155746613,13.19459042
5.228315292,7.632777557,-10.48000671,3.683689728,13.47810832
5.238254292,7.15856369,-10.88311844,6.624474335,14.61406724
5.248194292,6.823260956,-11.37843842,7.716902618,15.34849624
5.258133292,6.950047302,-11.52797745,6.322402496,14.87179192
5.268072292,6.824458466,-11.04193817,4.4006987,13.7063409
5.278012292,6.281986542,-10.07704468,3.47981369,12.37413786
5.287951292,6.040089569,-9.408085785,2.500849457,11.45639595
5.297891292,6.20729187,-9.870773621,0.9943821716,11.70262535
5.307830292,6.958280182,-11.12501541,-2.123783569,13.29263283
5.317769292,7.732170868,-11.91073151,-4.885989532,15.01748598
5.327709292,7.87587204,-12.17373459,-5.636828156,15.5564458
5.337648292,7.588918762,-12.76874725,-5.096002808,15.70356135
5.347588292,7.418722687,-14.08241547,-3.993844757,16.41044386
5.357527292,7.200027466,-15.90592346,-2.81055542,17.68440043
5.367466292,6.370153198,-17.40580444,-1.963466949,18.63856439
5.377406292,4.718637543,-18.38791214,-0.9948312378,19.00974861
5.387345292,2.525398407,-19.52225327,2.789000244,19.88151232
5.397284292,0.6045927429,-19.8867453,9.213939514,21.92589456
5.407224292,0.5014572144,-18.02701263,7.257657623,19.43960488
5.417163292,0.5987548828,-15.67989349,1.811233521,15.79550994
5.427103292,0.1887574768,-13.38381821,-1.084943848,13.42904771
5.437042292,0.4040098572,-11.0840007,-2.967129822,11.48138297
5.446981292,0.4441264343,-9.286089478,-3.180735626,9.825771481
5.456921292,0.09250762939,-8.037386169,-3.193758545,8.649174975
5.466860292,0.1354682922,-7.13640976,-3.731141052,8.054074091
5.476800292,0.9375004578,-6.292614441,-3.317850494,7.175237663
5.486739292,2.028132477,-5.249134369,-1.273701324,5.769666197
5.496678292,2.845732269,-4.459376678,0.9800120544,5.380023804
5.506618292,2.770139465,-3.994293823,1.239422607,5.016395539
5.516557292,2.112706604,-3.977977753,-0.07993377686,4.504911276
5.526497292,1.37953125,-4.338128815,-1.116079102,4.687014043
5.536436292,0.9924362183,-4.576882324,-1.542093201,4.930601677
5.546375292,0.439486084,-4.841681671,-2.056124268,5.278510815
5.556315292,-0.4703219604,-5.224884796,-2.36118988,5.752898533
5.566254292,-1.556313629,-5.452860718,-1.874102783,5.972274555
5.576194292,-2.524500275,-5.413193207,-1.192869415,6.090870198
5.586133292,-3.205733643,-5.082081757,-0.829125824,6.065618913
5.596072292,-3.496429138,-4.561913452,-0.8267308044,5.80685413
5.606012292,-3.485352173,-4.021237793,-0.8131091309,5.383231336
5.615951292,-3.471580811,-3.565136261,-0.5671705627,5.00836823
5.625891292,-3.439697113,-3.291355591,-0.7548802185,4.820205597
5.635830292,-3.336411896,-3.184477844,-1.14901062,4.75318513
5.645769292,-2.89123764,-3.241060181,-1.203946381,4.507018202
5.655709292,-2.178569641,-3.650458832,-0.009131011963,4.251129113
5.665648292,-0.4019142151,-4.63241684,3.26456131,5.681389034
5.675588292,3.424578552,-5.724246368,10.31534912,12.28418342
5.685527292,8.496481476,-6.846462708,19.80995499,22.61633405
5.695466292,12.71740402,-9.5233461,20.22294617,25.71758227
5.705406292,13.33786377,-14.2677301,16.41935577,25.51591614
5.715345292,15.11062729,-19.68212082,23.61010254,34.25133397
5.725285292,16.10485977,-22.15752319,20.85852448,34.42964399
5.735224292,14.74538681,-19.33858521,11.13818802,26.74820634
5.745163292,12.59705429,-13.62332016,5.252128143,19.28381391
5.755103292,10.23287064,-7.246880035,4.100872192,13.19265191
5.765042292,8.12510376,-2.385289764,6.423292694,10.628528
5.774982292,7.034022675,0.6634204102,8.469687195,11.02965107
5.784921292,7.519163818,0.6059399414,2.458487549,7.93404996
5.794860292,7.436685333,-2.151026917,-9.71988739,12.42607808
5.804800292,5.835614777,-6.319109344,-16.50857025,18.61500563
5.814739292,4.085753632,-10.51623138,-14.00263138,17.98216313
5.824679292,4.138743439,-14.39316925,-9.26707901,17.61167998
5.834618667,3.258424072,-18.0261145,-3.974085846,18.74437222
5.844557667,3.594924316,-26.60357758,28.56554764,39.20031036
5.854497667,1.598525848,-25.46384766,19.3851384,32.04288397
5.864436667,-0.4987628174,-15.79979416,-9.741592255,18.56827616
5.874375667,-2.658621368,-12.18795502,-6.735243988,14.17667192
5.884315667,-4.816384277,-9.11843811,-4.11988266,11.10481446
5.894254667,-5.322631531,-6.655160522,-2.909050598,9.004673419
5.904194667,-3.838168488,-5.623356171,-3.896696777,7.844610745
5.914133667,-2.948418732,-5.004243622,-3.653153229,6.861570939
5.924072667,-2.734663239,-5.064717865,-3.491339722,6.731953887
5.934012667,-2.600093079,-5.733676758,-2.962040405,6.957673213
5.943951667,-1.889371033,-6.748117218,-1.953437805,7.274800901
5.953891667,-1.478325806,-7.797734528,-1.138682098,8.017899218
5.963830667,-1.087189178,-8.477770386,-0.6804849243,8.574242285
5.973769667,-0.8009843445,-8.900491333,-0.4884342957,8.949798319
5.983709667,-0.6905140686,-9.161698151,-0.4779560852,9.200106777
5.993648667,-0.763711853,-9.262887726,-0.5111869812,9.308364891
6.003588667,-0.7529342651,-9.408534851,-0.7141648865,9.465593988
6.013527667,-0.4194277954,-9.611812134,-1.097667389,9.683373682
6.023466667,0.1216969299,-9.747430115,-1.551074524,9.870817401
6.033406667,0.8590635681,-9.719737701,-1.950444031,9.950654406
6.043345667,1.71184021,-9.542506256,-2.068099365,9.912964115
6.053285667,2.401306458,-9.247469788,-1.783840485,9.719262166
6.063224667,3.203039246,-8.913813629,-0.8318202209,9.508283689
6.073163667,4.753964081,-8.445737,1.535057831,9.812596521
6.083103667,5.606441345,-8.617879028,2.435585175,10.56560924
6.093042667,5.712570648,-8.94060791,2.286644897,10.85341781
6.102982667,5.394482117,-9.100176086,1.722767487,10.71828204
6.112921667,4.944368134,-9.046288147,0.9910890198,10.35685101
6.122860667,4.501439209,-8.841813354,0.1383123779,9.92268858
6.132800667,4.208947449,-8.407716064,-0.3766168213,9.409929239
6.142739667,4.352199554,-7.668104095,0.2565664673,8.820843935
6.152679667,4.690645752,-6.9620224,0.8220904541,8.43491234
6.162618667,4.90964035,-6.868017883,0.4378395081,8.453753098
6.172557667,5.396727448,-7.233557739,0.3379971313,9.031238385
6.182497667,5.89489151,-7.868686981,0.6776408386,9.855210694
6.192436667,6.43661499,-8.6328479,0.9833052063,10.81309227
6.202375667,7.150181122,-9.395661621,1.366059265,11.88569162
6.212315667,7.574997711,-9.803264008,1.809886322,12.52039392
6.222254667,7.401209106,-9.719288635,2.059118042,12.3888028
6.232194667,6.90933197,-9.426946564,2.287692719,11.90964852
6.242133667,6.537056122,-9.193881226,2.425256653,11.53873583
6.252072667,6.622378693,-9.223669281,2.003284149,11.53018308
6.262012667,7.22532486,-9.501192169,1.160536652,11.9926985
6.271951667,7.979756012,-9.862091675,0.3700305176,12.69150428
6.281891667,8.416697388,-10.18362305,0.02409988403,13.21164464
6.291830667,8.604407043,-10.53703812,0.2064207458,13.60542548
6.301769667,8.345595245,-10.78926361,0.9957293701,13.6765729
6.311709667,7.804320831,-10.81935104,2.649640045,13.60096956
6.321648667,7.758216705,-10.90976303,4.766837311,14.21040442
6.331588667,8.42927124,-11.12770981,5.762117615,15.10233554
6.341527667,9.315129089,-11.20629639,4.818779297,15.3483987
6.351466667,9.517059174,-11.0482251,4.221820679,15.18095725
6.361406667,8.562045135,-10.39348663,4.354444885,14.1525394
6.371345667,7.574848022,-9.480535126,4.092190247,12.80643939
6.381285667,7.175328827,-9.109756165,3.096610565,12.00258298
6.391224667,7.186106415,-9.934091949,0.9282197571,12.2958489
6.401163667,7.221133575,-11.00885696,-2.486928406,13.39867585
6.411103667,7.23116272,-11.56869278,-4.79033844,14.4593122
6.421042667,6.990612946,-12.31938171,-4.936284943,15.00009147
6.430982667,6.512207794,-13.26002563,-4.111200714,15.33424604
6.440921667,6.185137939,-14.69179825,-3.202590179,16.25919589
6.450860667,5.782175903,-16.80974396,-1.841470642,17.87154342
6.460800667,4.933590546,-19.07094177,0.3724255371,19.70227998
6.470739667,2.902913361,-21.23229721,4.744833069,21.9488221
6.480678667,0.659229126,-22.39268417,9.321116638,24.26417324
6.490618667,0.4258644104,-21.04488693,5.578449554,21.7758519
6.500557667,1.010847931,-18.36426132,0.4517605591,18.39760841
6.510497667,1.116528168,-15.77988556,-1.82889679,15.92470681
6.520436667,0.7514373779,-13.09207489,-3.062780914,13.46654039
6.530376667,0.7716453552,-10.48524582,-3.179687805,10.98390782
6.540315667,0.3622467041,-8.493487701,-2.941982117,8.995877655
6.550254667,0.2242337036,-7.230863342,-2.747985535,7.738674946
6.560194667,0.702638855,-6.512956238,-2.82687149,7.13466907
6.570133667,1.553619232,-5.909261627,-2.844684448,6.739831994
6.580072667,2.417323151,-5.314698029,-1.200952606,5.960851744
6.590012667,2.74154892,-4.722679138,0.4038601685,5.475663591
6.599951667,2.450703735,-4.410278778,0.8884025574,5.123062249
6.609891667,1.690883789,-4.450245667,0.1472937012,4.762926612
6.619830667,1.214274902,-4.609364777,-0.9135502625,4.853378335
6.629769667,0.8903485107,-4.55981781,-1.525926819,4.890103433
6.639709667,0.343535614,-4.579576721,-1.976040802,4.999527669
6.649648667,-0.4731660461,-4.558769989,-2.113005981,5.046886585
6.659588667,-1.351689148,-4.24861496,-1.985920258,4.880745015
6.669527667,-2.165995789,-3.890260162,-1.73519165,4.778760504
6.679466667,-2.786605225,-3.519780579,-1.56559433,4.754483106
6.689406667,-3.242856445,-3.294049988,-1.543889465,4.873446207
6.699345667,-3.545976105,-3.174897766,-1.517843628,4.995775379
6.709285667,-3.700005798,-3.075205078,-1.381327515,5.005496467
6.719224667,-3.62725708,-2.938239899,-1.196461945,4.818897053
6.729163667,-3.148103485,-2.81639328,-0.6310876465,4.270936464
6.739103667,-2.240391083,-2.795586548,0.9443861389,3.704932055
6.749042667,0.02290237427,-3.113824768,3.529061279,4.706453306
6.758982667,2.779420166,-4.259392548,8.739725647,10.11189427
6.768921667,6.530320129,-5.9335112,18.631306,20.61497513
6.778860667,10.65619034,-8.797206116,21.88523941,25.88259902
6.788800667,11.24850861,-13.61269226,14.76364883,23.01737742
6.798739667,12.52475464,-19.71460327,23.6026181,33.20570195
6.808679667,12.88310944,-23.92010788,22.96689011,35.57561118
6.818618667,11.11319,-22.97452423,11.94890213,28.17992225
6.828557667,8.753497009,-16.73040894,6.317911835,19.91095937
6.838497042,6.180796967,-9.341025238,4.897066498,12.22449442
6.848436042,4.407584381,-4.258344727,6.253845062,8.756190836
6.858375042,3.032543793,-1.200653229,8.384214935,8.996274235
6.868315042,2.457290039,0.5517526245,9.63920517,9.962779813
6.878254042,3.574267273,-1.574425964,2.498903503,4.636671476
6.888194042,4.72836731,-5.745053101,-9.977950745,12.44679049
6.898133042,4.364773407,-9.643546143,-16.12282242,19.28716236
6.908072042,3.835773468,-13.07935135,-13.46899109,19.16236704
6.918012042,4.826862488,-16.29601227,-8.772956543,19.12650997
6.927951042,6.157744904,-20.23686722,4.342619476,21.59414182
6.937891042,9.409732361,-24.89039017,29.70408005,39.87990669
6.947830042,3.88232666,-18.94415543,2.724634094,19.52887903
6.957769042,-0.3177891541,-12.36009705,-9.288634186,15.46453084
6.967709042,-2.104473724,-9.427545319,-5.638175354,11.18465206
6.977648042,-2.899171143,-7.410639496,-3.554658051,8.715409624
6.987588042,-2.984344025,-6.011798401,-2.727927246,7.244971796
6.997527042,-2.417772217,-5.127736816,-2.384541321,6.150231269
7.007466042,-1.718725891,-5.050497437,-2.36118988,5.834103247
7.017406042,-1.44269989,-5.675597534,-2.679727478,6.440087709
7.027345042,-1.068029022,-6.728657684,-2.440524902,7.236828174
7.037285042,-0.5757028198,-7.966433716,-1.967807922,8.226042056
7.047224042,-0.419128418,-8.948391724,-1.791923676,9.13566492
7.057163042,-0.08322692871,-9.411528625,-1.725611572,9.56877908
7.067103042,0.1913021851,-9.549841003,-1.626218262,9.689202524
7.077042042,0.1986369324,-9.594597931,-1.611698456,9.7310502
7.086981042,0.2607577515,-9.620943146,-1.642684021,9.763654665
7.096921042,0.6123765564,-9.585616608,-1.69432663,9.753450339
7.106860042,1.158291321,-9.539512482,-1.792073364,9.775247522
7.116800042,1.782193909,-9.444759521,-1.939217377,9.805114052
7.126739042,2.326761475,-9.173972626,-2.092498627,9.692994542
7.136678042,2.719993744,-8.725654907,-1.932182007,9.341774287
7.146618042,3.163072357,-8.392447815,-1.353335724,9.070265963
7.156557042,3.86601059,-8.168513489,-0.4945715332,9.050704475
7.166497042,4.449347534,-8.25608139,0.664019165,9.402153735
7.176436042,4.678071899,-8.500223694,1.861678619,9.879474016
7.186375042,4.617747345,-8.609945526,3.166066132,10.2702837
7.196315042,4.180955658,-8.520132294,3.588787079,10.14654804
7.206254042,3.646267548,-8.244255981,2.447410583,9.340922989
7.216194042,3.320095825,-7.846083984,0.9868977356,8.576598237
7.226133042,3.138074341,-7.382797394,0.2282752991,8.025292365
7.236072042,3.359763336,-7.192243652,-0.01047821045,7.938292526
7.246012042,3.671265564,-7.382647705,-0.0008981323242,8.24510029
7.255951042,4.038152618,-7.817792816,0.1663041687,8.800694186
7.265891042,4.749772797,-8.590485992,0.3504212952,9.822402267
7.275830042,5.428461456,-9.563312988,0.1498384094,10.99761795
7.285769042,5.970184937,-10.35232224,-0.03023712158,11.95050619
7.295709042,6.388265533,-10.8265361,0.2832110596,12.57394246
7.305648042,6.532715149,-10.75992462,1.106199646,12.63629783
7.315588042,6.282734985,-10.20981857,2.525847473,12.25124727
7.325527042,5.953868866,-9.565558319,4.434079285,12.1082418
7.335466042,5.545218658,-9.33024765,5.40466095,12.12490541
7.345406042,5.509592743,-9.742041321,3.267255707,11.65924273
7.355345042,6.053112488,-10.28975235,0.5947132874,11.95294349
7.365284042,6.645580444,-10.46369064,-0.4549040222,12.40401141
7.375224042,7.025939484,-10.41938278,-0.6710545349,12.58481932
7.385163042,7.18550766,-10.35845947,-0.6497987366,12.62344808
7.395103042,7.201524353,-10.45665527,0.05882766724,12.69673396
7.405042042,7.010371857,-10.30996033,1.537901917,12.56207538
7.414981042,7.169341278,-10.39019348,2.692301331,12.90751957
7.424921042,8.095016327,-10.77758789,3.961212616,14.04908878
7.434860042,9.433083801,-11.51645142,5.065017242,15.72469786
7.444800042,10.47297134,-12.03123093,4.861440582,16.6753486
7.454739042,10.34304153,-11.55102951,4.671186218,16.19335579
7.464678042,9.021888885,-10.35516632,4.052373047,14.31941605
7.474618042,8.076754303,-9.009165344,3.615132294,12.62807197
7.484557042,7.559430084,-8.508456573,2.730471954,11.70445614
7.494497042,7.053781586,-9.868977356,0.08442443848,12.1309388
7.504436042,6.87655014,-11.67631897,-3.171903992,13.91705218
7.514375042,6.871760101,-12.56532028,-4.966522064,15.15832122
7.524315042,6.257886658,-13.31960175,-5.018613739,15.54861473
7.534254042,5.485642548,-14.47205521,-4.368964691,16.08168239
7.544194042,4.805457001,-15.87703354,-3.142565002,16.88337424
7.554133042,4.273762665,-17.74679535,-1.754950562,18.33831083
7.564072042,3.478765869,-19.68167175,-0.233664093,19.98811181
7.574012042,1.525627441,-21.4765892,3.514391785,21.81564513
7.583951042,-0.5013075256,-21.80470688,8.471333771,23.39786416
7.593891042,-0.222437439,-19.60173798,5.46079422,20.34939517
7.603830042,0.3610491943,-16.86243439,0.3520678711,16.86997338
7.613769042,0.1025367737,-14.53507416,-2.014660492,14.67439101
7.623709042,-0.172591095,-11.96282318,-3.000360718,12.33454866
7.633648042,0.08247848511,-9.627529449,-3.21770874,10.15134353
7.643587042,0.3350033569,-7.833510132,-2.610271912,8.26375385
7.653527042,0.232616272,-6.682553558,-2.185904388,7.034828384
7.663466042,0.2378553772,-6.105802917,-2.684966583,6.674312699
7.673406042,0.8497828674,-5.717660065,-3.077450409,6.548623409
7.683345042,1.895807648,-5.258564758,-2.493215332,6.1206791
7.693284042,2.70173172,-4.790039062,-1.266366577,5.643360064
7.703224042,2.74499176,-4.290378113,-0.112565918,5.094604519
7.713163042,2.307152252,-4.082310791,-0.1775308228,4.692518524
7.723103042,1.921404419,-4.041595459,-1.368603973,4.679675804
7.733042042,1.592089233,-4.129911804,-2.362088013,5.017009011
7.742981042,0.9309141541,-4.118086395,-2.778522034,5.054247858
7.752921042,0.2847079468,-4.182452545,-2.709365845,4.991455819
7.762860042,-0.4948709106,-4.154610443,-2.438129883,4.842536781
7.772800042,-1.456321564,-4.049379272,-2.252515869,4.857177445
7.782739042,-2.014959869,-3.733236694,-2.174827423,4.767283693
7.792678042,-2.387834473,-3.342399445,-2.206860809,4.663005699
7.802618042,-3.050656128,-3.174748077,-2.045795746,4.854977693
7.812557042,-3.425476685,-3.115471344,-2.108665009,5.087879748
7.822497042,-3.22713913,-3.03523819,-2.630180511,5.152178894
7.832436042,-2.539319458,-3.081342316,-2.001038818,4.4662031
7.842374792,-1.270557861,-3.49268692,0.426612854,3.741012928
7.852314792,1.260079651,-4.531526642,4.087250519,6.231223895
7.862253792,4.117787018,-5.972280579,11.67961212,13.74909614
7.872192792,7.918084259,-7.775131531,21.81713104,24.47725343
7.882132792,10.82114731,-11.98467773,22.70298889,27.85956629
7.892071792,9.37590271,-17.53049515,18.98651733,27.49024649
7.902011792,9.924062805,-23.33751938,26.05526779,36.35937036
7.911950792,10.42117905,-24.68307129,18.99070862,32.84055412
7.921889792,9.79712677,-18.87724457,9.067693634,23.12049141
7.931829792,7.938441925,-10.44797333,5.287454681,14.14694963
7.941768792,6.273903351,-4.827910309,4.865033112,9.291885082
7.951708792,4.673880615,-1.17131424,6.592590637,8.165744814
7.961647792,3.688330078,1.763782196,9.328601074,10.18516099
7.971586792,4.094435577,1.707499237,4.102069702,6.042096671
7.981526792,4.972659302,-1.749861145,-7.105274506,8.847275307
7.991465792,4.649481354,-6.813680878,-13.63499588,15.93602951
8.001405792,3.746409302,-11.70969955,-14.2518631,18.82201498
8.011344792,4.081412659,-15.71971069,-9.841734009,18.99018067
8.021283792,4.072431335,-19.16853882,-4.553530884,20.11845473
8.031223792,8.44214447,-26.17756348,23.37404343,36.09543654
8.041162792,6.69752243,-25.60799789,20.81646194,33.67419562
8.051101792,-0.1381626892,-15.46015045,-8.734935608,17.75765866
8.061041792,-2.437830505,-11.28398483,-6.735992432,13.36581181
8.070980792,-4.586911469,-8.052355042,-1.659898224,9.414639698
8.080920792,-4.612208862,-5.762866058,-1.112636261,7.464653726
8.090859792,-2.229912872,-5.485792236,-3.117566986,6.69220829
8.100798792,-1.180894318,-5.316344604,-2.699486389,6.078261109
8.110738792,-0.5438191223,-5.478457489,-2.79528717,6.174371714
8.120677792,-0.5218148804,-6.246061249,-3.192411346,7.033993325
8.130617792,-0.5361849976,-7.375612335,-2.566862183,7.827894553
8.140556792,-0.5270539856,-8.427025909,-1.789528656,8.631046541
8.150495792,-0.5294490051,-9.025631104,-1.555265808,9.173940527
8.160435792,-0.4076023865,-9.308093719,-1.506916351,9.438090129
8.170374792,-0.3182382202,-9.385033722,-1.46724884,9.504364928
8.180314792,-0.288899231,-9.391919403,-1.52577713,9.519433213
8.190253792,-0.04071533203,-9.424252167,-1.909728699,9.615885313
8.200192792,0.5730084229,-9.391021271,-2.482587433,9.730511781
8.210132792,1.098415833,-9.273515625,-2.832409973,9.758440226
8.220071792,1.32339798,-9.101972351,-2.88195694,9.638618091
8.230011792,1.542093201,-8.882378998,-2.596500549,9.381712168
8.239950792,1.679956512,-8.535250854,-2.283202057,8.993651798
8.249889792,1.774859161,-8.189769287,-2.014959869,8.618730144
8.259829792,2.107916565,-8.161777496,-1.146465912,8.50719156
8.269768792,2.931354218,-8.505612488,0.7833210754,9.030607579
8.279707792,3.724105682,-8.946745148,2.527494049,10.01506056
8.289647792,4.101321259,-9.143286438,3.858675842,10.73824484
8.299586792,4.082610168,-9.202114105,4.816833344,11.16012963
8.309526792,3.733835449,-9.099577332,3.926634521,10.59067011
8.319465792,3.452570343,-8.646319885,1.217568054,9.389438828
8.329404792,3.879332886,-7.946375427,0.5141807556,8.857679601
8.339344792,4.466711426,-7.320377197,1.0577005,8.640495566
8.349283792,4.994962921,-7.268884277,0.6746470642,8.845421521
8.359223792,5.52396286,-7.881410522,-0.1862127686,9.626290703
8.369162792,5.929619293,-8.732989655,-0.6595285034,10.57641107
8.379101792,6.266269226,-9.561816101,-0.722996521,11.45500682
8.389041792,6.725065155,-10.15398468,-0.2691403198,12.18205002
8.398980792,7.174281006,-10.47117508,0.7223977661,12.71368059
8.408920792,7.026987305,-10.40201889,2.132166138,12.73289755
8.418859792,6.343358917,-10.08063721,3.87768631,12.52572952
8.428798792,5.379662933,-9.967771912,5.649551697,12.65759395
8.438738792,4.738546143,-10.20203476,5.323679352,12.44495458
8.448677792,5.393134918,-10.60814026,2.533331909,12.16701749
8.458616792,6.391408997,-10.88431595,0.6111790466,12.63692931
8.468556792,6.981032867,-10.91320587,-0.08876541138,12.95533719
8.478495792,7.137756958,-10.87922653,-0.2192939758,13.01357884
8.488435792,7.120393066,-10.97038696,0.0426612854,13.07865465
8.498374792,7.331603851,-11.14088242,1.074914703,13.38010156
8.508313792,8.149353333,-11.49205215,2.905009003,14.38465501
8.518253792,9.348809052,-11.93887299,5.25482254,16.04836686
8.528192792,10.42626846,-12.19858292,6.993457031,17.50488333
8.538132792,10.79659836,-11.67122955,6.067183228,17.01748653
8.548071792,9.623787231,-10.62295944,3.803141327,14.82998422
8.558010792,7.947872314,-9.390871582,2.437082062,12.54179064
8.567950792,7.299420776,-9.195378113,1.376387787,11.82078532
8.577889792,6.519991608,-10.58942917,-0.5104385376,12.44615797
8.587829792,6.139333191,-12.05862396,-3.099754028,13.8820135
8.597768792,6.248456268,-13.08833267,-4.47210022,15.17719797
8.607707792,6.013744354,-14.19423294,-4.533023529,16.06828156
8.617647792,5.569168854,-15.6068454,-3.739822998,16.98751133
8.627586792,5.000651093,-17.54800873,-2.45714035,18.41131881
8.637525792,4.250860291,-19.10492111,-0.9756710815,19.59642207
8.647465792,2.474055176,-20.41245209,2.34607132,20.69524583
8.657404792,-0.3170407104,-21.36791519,8.871002655,23.13834485
8.667344792,-0.7952961731,-20.00170624,7.38085144,21.33489434
8.677283792,-0.05044509888,-17.53977585,0.4749623108,17.54627797
8.687222792,0.24923172,-15.32183807,-2.243384857,15.48720808
8.697162792,0.5884263611,-12.92382477,-3.237018585,13.3360332
8.707101792,0.8587641907,-10.53658905,-3.751199341,11.21733842
8.717041792,1.133143616,-8.614735565,-3.523373108,9.376131471
8.726980792,1.013542328,-7.34582428,-3.277584229,8.107463276
8.736919792,1.314266968,-6.39455246,-2.524350586,6.999281728
8.746859792,1.923350372,-5.576503601,-2.40564743,6.370542255
8.756798792,2.797831879,-4.857249298,-1.977388,5.943971506
8.766738792,3.237168274,-4.128265228,-0.8360115051,5.312320347
8.776677792,3.144660645,-3.788172455,0.2647993469,4.930442152
8.786616792,2.527494049,-3.837270355,0.1701960754,4.598025299
8.796556792,1.967508545,-4.111799469,-0.7436535645,4.618550137
8.806495792,1.649270325,-4.377197571,-1.446442108,4.896135818
8.816434792,1.241667938,-4.418960724,-1.803599396,4.931726263
8.826374792,0.8887019348,-4.571792908,-2.137554932,5.12447291
8.836316792,0.3758683777,-4.653672638,-2.314187622,5.210893437
8.846256792,-0.38963974,-4.512216797,-2.379302216,5.115955295
8.856195792,-1.306483154,-4.216581573,-2.39397171,5.021708768
8.866134792,-2.085762634,-3.85538269,-2.401156769,4.997993126
8.876074792,-2.929108887,-3.534450073,-2.196532288,5.088886939
8.886013792,-3.610342255,-3.368295593,-2.041155396,5.342873922
8.895953792,-3.84370697,-3.202141113,-2.220183105,5.473299188
8.905892792,-3.882925415,-3.064577179,-2.340832214,5.47249838
8.915831792,-3.56169342,-3.216660919,-1.75869278,5.111317617
8.925771792,-2.702031097,-3.839216309,0.6535409546,4.740007352
8.935710792,-0.03817062378,-5.037773895,6.671326904,8.359857982
8.945650792,4.779111786,-6.88014267,19.35969131,21.09440496
8.955589792,9.478738861,-9.219927063,29.15846466,32.01670824
8.965528792,9.670939178,-13.40312805,17.76670395,24.26575108
8.975468792,8.128995667,-17.88271271,14.71754471,24.54542944
8.985407792,9.884245605,-22.96239944,25.85064331,35.96144962
8.995346792,9.741741943,-23.33886658,19.68990463,32.05146757
9.005286792,7.393425293,-17.51582565,8.769364014,20.93725462
9.015225792,5.087021484,-10.37312897,4.476141815,12.39013469
9.025165792,3.964805145,-5.455255737,4.168381805,7.928108342
9.035104792,2.680924988,-2.246977386,6.767576752,7.618159965
9.045043792,2.420466614,-0.586330719,10.37702087,10.67169174
9.054983792,4.447102203,-2.568808136,3.630699921,6.289473361
9.064922792,5.899082794,-7.403903503,-8.494236145,12.71884478
9.074862792,5.251080322,-12.16475327,-15.46763489,20.36670802
9.084801792,4.60307785,-16.06668915,-13.85893021,21.71167364
9.094740792,4.997507629,-19.85471191,-8.450676727,22.1494606
9.104680792,8.859776001,-23.60576157,13.05540115,28.39315251
9.114619792,8.621321869,-21.82027451,14.85241425,27.76771109
9.124559792,0.7268884277,-14.31578018,-5.742059326,15.44154054
9.134498792,-1.694476318,-9.611812134,-6.17690506,11.55042591
9.144437792,-2.610571289,-6.846762085,-4.287683716,8.489844825
9.154377792,-2.970123596,-5.291945343,-3.185226288,6.853611179
9.164316792,-2.875819702,-4.627626801,-3.006497955,6.22288508
9.174255792,-2.629282379,-4.689897308,-2.859503632,6.089747418
9.184195792,-2.498753815,-5.407355347,-2.969225464,6.655791638
9.194134792,-2.624941406,-6.888824615,-2.682122498,7.844743658
9.204074792,-2.374212799,-8.664132843,-2.224823456,9.254940505
9.214013792,-1.895358582,-10.05324417,-1.726659393,10.37504001
9.223952792,-1.266815643,-10.94044922,-1.21457428,11.08031776
9.233892792,-0.4402345276,-11.16722763,-0.7821235657,11.20323599
9.243831792,0.05688171387,-10.94583801,-0.6728507996,10.96664641
9.253771792,-0.01751358032,-10.46638504,-0.8000862122,10.49693577
9.263710792,-0.1664538574,-9.765991516,-0.9581575012,9.814293809
9.273649792,-0.04745132446,-9.193282471,-1.202449493,9.271708526
9.283589792,0.2869532776,-8.803792419,-1.532513123,8.940788535
9.293528792,0.8186476135,-8.626860352,-1.824256439,8.855552778
9.303468792,1.374441833,-8.580905914,-2.003284149,8.91819399
9.313407792,1.892963562,-8.605305176,-2.070494385,9.051051608
9.323346792,2.442770233,-8.619525604,-1.85808609,9.14963562
9.333286792,3.164269867,-8.681945801,-1.325942688,9.335250971
9.343225792,4.251758423,-8.64811615,-0.2198927307,9.63927982
9.353165792,5.450615387,-8.668473816,1.075214081,10.29600562
9.363104792,5.939049683,-8.847800903,1.094523926,10.71232349
9.373043792,5.98036377,-8.936117249,1.19930603,10.81930114
9.382983792,5.777086487,-8.846304016,1.040935364,10.61674948
9.392922792,5.344186707,-8.600814514,0.2939886475,10.13019107
9.402861792,4.96352829,-8.03379364,-0.4406835938,9.453711195
9.412801792,4.962929535,-7.281308441,-0.5671705627,8.830051225
9.422740792,5.247637482,-6.645131378,-0.3216810608,8.473426041
9.432680792,5.521867218,-6.649322662,-0.3701802063,8.651100671
9.442619792,5.789660339,-7.129823456,-0.3769161987,9.192204043
9.452558792,5.983656921,-7.719896393,0.008382568359,9.76734461
9.462498792,5.799390106,-8.587791595,0.8710386658,10.39912489
9.472437792,5.551355896,-9.613758087,2.002236328,11.28055172
9.482377792,5.709127808,-10.11222153,3.073109436,12.01229229
9.492316792,6.303691406,-9.986782379,3.390449524,12.28688307
9.502255792,6.833140411,-9.604627075,2.905158691,12.14004185
9.512195792,7.070995789,-9.359886017,2.171833649,11.92993332
9.522134792,7.389383698,-9.310189362,1.39000946,11.96723626
9.532073792,7.73666153,-9.464368744,0.7370672607,12.24636581
9.542013792,7.83485733,-9.585017853,0.3989204407,12.38614929
9.551952792,7.579937439,-9.506730652,0.2959346008,12.16227596
9.561892792,7.040010223,-9.347910919,0.4281097412,11.71018618
9.571831792,6.489754486,-9.45314209,0.9478289795,11.5055286
9.581770792,6.279741211,-9.896370392,1.817370758,11.86069699
9.591710792,6.84032547,-10.78417419,2.339634705,12.98315663
9.601649792,8.554860077,-12.04575073,2.274969177,14.94861955
9.611589792,10.81471069,-13.19042038,2.123184814,17.18874838
9.621528792,11.84037781,-13.49234253,2.435136108,18.11540067
9.631467792,11.35403915,-12.3500679,4.24502243,17.30487208
9.641407792,10.44677582,-10.53748718,5.957311707,15.98947541
9.651346792,9.214687958,-8.857380981,4.610562286,13.58752945
9.661285792,8.241561584,-8.11567337,2.745141449,11.88794739
9.671225792,6.785090332,-8.762328644,0.9716294861,11.1247435
9.681164792,5.719606018,-10.01672012,-0.7387138367,11.55829889
9.691104792,5.757028198,-10.89853638,-2.071691895,12.49853496
9.701043792,5.910608826,-12.07987976,-3.123255157,13.80628533
9.710982792,6.303691406,-13.52168152,-3.41904007,15.30562744
9.720922792,6.16283432,-15.02126312,-3.023861847,16.51552643
9.730861792,5.483397217,-16.60422134,-2.553839264,17.67172619
9.740801792,4.484374695,-18.22160797,-1.62412262,18.8354556
9.750740792,3.308719482,-18.97005157,0.1992356873,19.25747066
9.760679792,2.116897888,-18.43371689,2.599644012,18.73609682
9.770619792,1.684297485,-17.19713837,4.614005127,17.88483909
9.780558792,1.541644135,-15.79680038,3.015928345,16.15584702
9.790497792,1.23672821,-14.36577621,0.1784289551,14.42001594
9.800437792,0.8804690552,-12.77308823,-1.621428223,12.90565915
9.810376792,0.9506730652,-10.9340126,-2.695744171,11.30147988
9.820316792,1.106499023,-9.230255585,-3.432512054,9.909798043
9.830255792,1.086590424,-8.073910217,-4.401297455,9.259596332
9.840192542,1.510209503,-7.324867859,-4.424349518,8.689608193
9.850132542,2.314487,-6.662944336,-4.182452545,8.200279665
9.860071542,2.501897278,-5.75687851,-2.882406006,6.907199472
9.870011542,2.53318222,-4.989723816,-0.8771759033,5.664255775
9.879950542,2.45010498,-4.551135864,0.1784289551,5.171816795
9.889889542,2.132764893,-4.487069092,0.02380050659,4.968203054
9.899829542,1.622176666,-4.631668396,-0.6081852722,4.945068108
9.909768542,1.068029022,-4.666695557,-1.304986267,4.96202807
9.919708542,0.3902384949,-4.842130737,-1.711241455,5.150423621
9.929647542,-0.01781295776,-5.088967438,-1.961820374,5.454048594
