Time (s),Acceleration x (m/s^2),Acceleration y (m/s^2),Acceleration z (m/s^2),Absolute acceleration (m/s^2)
29.82159908,-0.05224136353,-5.451064453,0.2513273621,5.457105302
29.83153908,-0.9228309631,-5.444178772,-1.115630035,5.63341192
29.84147908,-1.416354675,-4.957840118,-1.574126587,5.39111433
29.85141908,-1.402433624,-3.603007507,-1.566941528,4.17178486
29.86135908,-1.370250549,-2.245181122,-1.573378143,3.064954097
29.87129908,-1.072519684,-0.8997789001,-1.190923462,1.837987822
29.88123908,-0.6411167908,-0.1592687988,-0.3758683777,0.7600488978
29.89118008,-0.2779719543,0.2624043274,0.05987548828,0.3869231352
29.90112008,-0.2124082947,0.3388952637,0.1260379028,0.4193481088
29.91106008,-0.1251397705,0.554147644,0.08577163696,0.5745401181
29.92100008,-0.03338058472,1.285826111,0.09026229858,1.289422481
29.93094008,-0.01676513672,2.038610687,0.6607260132,2.143075703
29.94088008,0.6697073364,2.643652496,1.009500732,2.908005875
29.95082008,3.71617218,3.461401978,0.8104147339,5.142763009
29.96076008,8.403674469,3.438200226,1.00156723,9.134883814
29.97070008,13.44833405,2.544408875,0.3338058472,13.69098723
29.98064008,19.17602325,1.0086026,0.7623646545,19.21765717
29.99058008,25.74032272,0.1046324158,1.195414124,25.7682785
30.00052008,30.39204941,-0.6756948853,0.3032693481,30.4010724
30.01046008,30.02201889,-1.869163055,1.093775482,30.1000288
30.02040008,27.44872009,-3.154390411,2.714155884,27.76236762
30.03034108,23.74646896,-2.931354218,4.789290619,24.40133051
30.04028108,21.7539624,-1.233884125,5.689817963,22.51957768
30.05022108,22.27667542,-0.2652484131,5.069807281,22.84783513
30.06016108,23.3797316,1.80779068,4.702171783,23.91632029
30.07010108,21.57822784,1.803898773,4.78450058,22.17578439
30.08004108,21.9371814,-0.55579422,4.543651428,22.40967655
30.08998108,23.97309769,-3.584595795,8.398585052,25.65336178
30.09992108,19.32496353,-10.28571075,21.25654678,30.51378119
30.10986108,14.29632065,-4.619094543,-2.197280731,15.18383552
30.11980108,5.378016357,7.692503357,-13.7156781,16.61979222
30.12974108,3.178340607,6.981781311,-11.67048111,13.96593171
30.13968108,4.545447693,4.838538208,-6.37584137,9.204558647
30.14962108,2.346221008,1.214424591,-2.535128174,3.661482618
30.15956108,0.750838623,-0.1523831177,-1.910327454,2.058234737
30.16950108,0.4385879517,-1.576820984,-1.860331421,2.477812907
30.17944208,-0.4784051514,-2.920876007,-0.6732998657,3.03541115
30.18938208,-0.8644523621,-2.108365631,-0.003742218018,2.27870523
30.19932208,-0.3606001282,-1.079854431,-0.1715432739,1.151323213
30.20926208,0.3113525391,0.520916748,-1.504521332,1.622306722
30.21920208,0.416434021,1.846260681,-1.91541687,2.692752789
30.22914208,0.5219645691,2.245929565,-1.448088684,2.722794054
30.23908208,0.4179309082,2.018851776,-1.167272644,2.369167399
30.24902208,0.4016148376,1.463806,-0.8304730225,1.730233488
30.25896208,0.228874054,0.4887336731,-0.5496569824,0.7703030145
30.26890208,-0.1371148682,-0.1722917175,-0.2748284912,0.3521585191
30.27884208,-0.589025116,-0.978664856,-0.1175056458,1.148278304
30.28878208,-0.8285270691,-1.723216553,-0.06152206421,1.913038775
30.29872208,-0.6276448059,-1.361119537,0.1642085266,1.50782918
30.30866208,0.6215075684,-0.09445358276,0.08637039185,0.6345494318
30.31860208,2.580783234,1.09632019,0.8372090149,2.926308082
30.32854308,5.141807556,1.951342163,2.089504852,5.883192306
30.33848308,8.554411011,2.136956177,2.662962341,9.21064047
30.34842271,12.43479172,1.806144104,2.543061676,12.82003761
30.35836271,17.39607468,1.641187134,2.310445404,17.62540971
30.36830271,23.5894455,1.863474884,1.426982574,23.7059224
30.37824271,30.03159897,2.075134735,0.7584727478,30.11276144
30.38818271,33.34166565,0.6560856628,1.602417755,33.386597
30.39812271,33.28478394,-0.8996292114,2.387086029,33.38239587
30.40806271,27.23436584,-2.379002838,2.824925537,27.48364135
30.41800271,20.13238449,-3.188968506,3.770209808,20.72913185
30.42794271,17.23396179,-1.524429932,5.056634674,18.02506255
30.43788271,23.92849045,0.5415737915,4.521796875,24.35800904
30.44782271,27.31310211,-0.6959028625,4.084556122,27.62559369
30.45776271,20.97887421,-1.550625458,4.561913452,21.52507042
30.46770271,16.54015457,-2.180066528,10.9566156,19.95937947
30.47764271,14.27521454,-3.597768402,21.05491608,25.69114981
30.48758371,9.413773956,0.9328601074,-1.398392029,9.562681023
30.49752371,4.890031128,5.632487183,-14.0434964,15.9014813
30.50746371,5.166955261,4.708907776,-8.541837158,11.03785401
30.51740371,6.799460449,3.146756287,-6.838529205,10.14397453
30.52734371,5.158123627,1.439855804,-3.515888672,6.406316979
30.53728371,3.198398895,0.4076023865,-1.353485413,3.496829701
30.54722371,1.874851227,-0.512384491,-0.4808001709,2.002192247
30.55716371,0.4827461243,-1.365310822,-0.7243437195,1.619194641
30.56710371,-0.4987628174,-1.917961578,-1.564696198,2.52499805
30.57704371,-0.8508306885,-2.063758392,-1.839524689,2.892552963
30.58698371,-1.052461395,-1.441203003,-1.665736084,2.441191878
30.59692371,-0.8824150085,-0.6713539124,-1.459465027,1.832869468
30.60686371,-0.6956034851,-0.3287164307,-1.142574005,1.377459276
30.61680371,-0.3894900513,-0.2534230042,-0.9418414307,1.050233783
30.62674371,-0.0375718689,-0.4718188477,-0.796942749,0.9268993557
30.63668471,0.1562750244,-1.050814819,-0.4312532043,1.146565739
30.64662471,0.1285826111,-1.592388611,0.1320254517,1.603017684
30.65656471,0.1971400452,-1.710942078,0.1508862305,1.728859059
30.66650471,0.5655239868,-1.530118103,0.3508703613,1.668588865
30.67644471,1.295855255,-0.8396040344,0.9279203796,1.801447198
30.68638471,3.308719482,0.4079017639,1.384470978,3.609815556
30.69632471,6.470294952,1.80779068,1.959125977,6.997928158
30.70626471,10.46892975,2.917283478,2.892135773,11.24604296
30.71620471,15.96415237,3.124901733,2.655028839,16.48236482
30.72614471,22.939048,2.574346619,1.535656586,23.13407498
30.73608471,29.75886612,1.919458466,0.5400769043,29.82559499
30.74602471,33.02477463,1.307381287,1.586999817,33.08872245
30.75596471,32.11526596,0.4854405212,3.485950928,32.30755042
30.76590471,28.72062515,-1.788181458,2.606380005,28.89403258
30.77584471,22.91330154,-2.727627869,4.131408691,23.44201099
30.78578471,19.15521652,-2.347268829,5.999823303,20.20964796
30.79572571,23.64662659,-0.1676513672,5.917494507,24.37637785
30.80566571,25.6265593,-0.1640588379,5.111121368,26.1318009
30.81560571,21.41177399,-0.9398954773,4.228257294,21.84549447
30.82554571,17.10343323,-2.818039856,9.196276245,19.62244311
30.83548571,14.83954102,-5.696404266,17.13816101,23.37472057
30.84542571,10.24245071,1.812281342,-4.387975159,11.28921991
30.85536571,4.364773407,4.989424438,-11.96117661,13.67535553
30.86530571,4.440366211,4.607269135,-8.006400604,10.24920639
30.87524571,6.774612122,2.626438293,-5.313650208,9.001579086
30.88518571,4.355792084,0.6885681152,-1.08464447,4.541310863
30.89512571,3.244353333,-0.9388476562,0.3094065857,3.391606685
30.90506571,2.223476257,-2.261347504,-0.3743714905,3.193382722
30.91500571,0.9731263733,-2.881807251,-1.504371643,3.393364409
30.92494571,0.4716691589,-2.613864441,-1.385518799,2.995733876
30.93488571,0.04550537109,-2.316582642,-1.344653778,2.678940025
30.94482671,-0.2113604736,-1.701511688,-1.274300079,2.136271511
30.95476671,-0.3180885315,-0.6915618896,-1.687590637,1.851323937
30.96470671,-0.6023474121,-0.1667532349,-1.872605896,1.974153461
30.97464671,-0.5261558533,-0.04790039063,-1.595382385,1.680588999
30.98458671,-0.196690979,-0.2285746765,-1.273851013,1.309056961
30.99452671,0.1270857239,-0.5301974487,-1.368903351,1.473484476
31.00446671,0.4254153442,-0.8357121277,-1.233584747,1.549556164
31.01440671,0.8577163696,-0.8896000671,-0.6486012268,1.395617857
31.02434671,1.112037506,-0.7033872986,-0.1017883301,1.319750723
31.03428671,0.9554631042,-0.05194198608,0.735869751,1.207108945
31.04422671,1.032552795,1.264121246,1.794318695,2.425643704
31.05416671,1.682201843,2.777025146,1.724414063,3.676312768
31.06410671,3.252586212,3.05514679,1.203347626,4.621826964
31.07404671,6.447691956,1.451830902,1.830693054,6.8579867
31.08398671,10.62565384,-1.346450043,1.723066864,10.84833658
31.09392671,15.67465439,-3.693868561,1.914818115,16.21745922
31.10386671,21.87131836,-4.046235809,1.842368774,22.31862258
31.11380771,27.82294189,-2.804567871,2.067650299,28.04027237
31.12374771,31.1366011,-0.9589059448,2.24308548,31.23201661
31.13368771,31.39765823,0.7797285461,2.854114838,31.5367546
31.14362771,29.83835083,0.6866221619,3.57112381,30.05913431
31.15356771,25.41639633,0.2923420715,3.586392059,25.66984368
31.16350771,20.45646057,0.3861968994,4.3117836,20.90950513
31.17344771,21.66819077,1.747915192,4.766238556,22.25494841
31.18338771,25.55126587,2.671793976,4.18769165,26.02964525
31.19332771,23.89945084,0.9116043091,4.663252716,24.36720539
31.20326771,18.77096558,-4.731211395,13.11467789,23.38222158
31.21320771,17.85951096,-8.438402252,13.99529663,24.20820299
31.22314771,10.4788092,2.689307556,-11.7077536,15.9408065
31.23308771,4.072431335,5.821693726,-13.05435333,14.86246802
31.24302771,6.958429871,4.563110962,-8.744815063,12.07118546
31.25296771,6.335275726,1.407822418,-3.350183258,7.303520408
31.26290871,4.61131073,-1.080153809,-0.9550140381,4.831456376
31.27284871,3.534749451,-2.996768188,-0.9864486694,4.737948315
31.28278871,2.958597565,-4.153862,-1.891766052,5.439360979
31.29272871,2.046544189,-5.842500458,-0.9024732971,6.256006136
31.30266871,0.5565426636,-4.688999176,-2.537523193,5.360548196
31.31260871,-0.1606159973,-4.100722504,-2.337089996,4.722680616
31.32254871,-0.980760498,-2.730322266,-1.188229065,3.135034153
31.33248871,-1.586101685,-1.309476929,-0.6186634827,2.147834464
31.34242842,-1.480421448,0.09415420532,-0.2037263489,1.49733667
31.35236842,-1.061592407,1.034049683,0.4044589233,1.536171932
31.36230842,-0.7150630188,1.305884399,0.8985813904,1.738993301
31.37224842,-0.3475772095,1.025218048,1.241069183,1.646855999
31.38218842,0.1178050232,0.7098239136,1.327140198,1.509645361
31.39212842,-0.05688171387,0.5432203674,0.9418414307,1.088755793
31.40206842,-0.3511697388,0.4438270569,0.7837701416,0.9667462318
31.41200842,-0.5932164001,0.7262896729,0.4592449951,1.044178314
31.42194842,-0.357456665,1.599873047,0.343535614,1.674928581
31.43188942,1.173409882,2.710263977,0.3854484558,2.978421073
31.44182942,4.129313049,2.927462311,0.6740483093,5.106427613
31.45176942,7.681127014,1.726360016,0.8909472656,7.922993004
31.46170942,11.48172363,0.7201524353,1.11622879,11.55831146
31.47164942,16.69822586,-0.4041595459,1.049916687,16.73608129
31.48158942,23.57028534,-2.743345184,2.51686615,23.86250006
31.49152942,29.48942642,-1.602268066,0.9156459045,29.54711392
31.50146942,33.95718567,-0.8294252014,0.2836601257,33.96849817
31.51140942,34.05328583,-0.2022294617,0.6740483093,34.06055657
31.52134942,28.20180405,-0.90681427,2.086062012,28.29338648
31.53128942,23.47732864,-2.021695862,3.52546875,23.8264799
31.54122942,19.85246658,-1.276844788,4.133654022,20.31841179
31.55116942,20.7613765,0.3365002441,5.569019165,21.49795248
31.56110942,25.60814758,-0.795894928,5.626649323,26.23108564
31.57104942,27.68971893,-1.116677856,4.395459595,28.05864518
31.58098942,20.66512665,-4.677922211,21.98328552,30.53187282
31.59092942,15.70698715,-8.019273834,13.48351089,22.19962307
31.60087042,7.719297638,6.998995514,-10.34034714,14.67979132
31.61081042,3.840413818,6.422244873,-8.850195923,11.58964949
31.62075042,5.67020874,4.78794342,-10.54377411,12.89367449
31.63069042,7.133415985,0.9348060608,-3.753294983,8.114598525
31.64063042,3.646566925,-0.217048645,1.02027832,3.7928259
31.65057042,1.606159973,0.1987866211,1.567989349,2.253409989
31.66051042,0.4900808716,-0.4698728943,-1.337768097,1.500194414
31.67045042,-1.07057373,-1.093326416,-1.968706055,2.493450279
31.68039042,-2.143243103,-1.088087311,-1.611548767,2.89387533
31.69033042,-2.252815247,-0.4927752686,-1.328786774,2.661518042
31.70027042,-1.825603638,0.6499484253,-2.143692169,2.889753919
31.71021042,-1.06129303,1.314716034,-1.784139862,2.457229373
31.72015042,-0.06930587769,1.397643585,-1.083896027,1.770039969
31.73009042,0.1089733887,0.7896080017,-0.6797364807,1.047567506
31.74003042,0.01422042847,-0.1724414062,0.1411564636,0.2233011563
31.74997042,-0.5728587341,-0.8807684326,0.8890013123,1.376315187
31.75991042,-1.059496765,-0.7000941467,1.19466568,1.743528404
31.76985142,-1.261576538,-0.007334747314,1.007704468,1.614650877
31.77979142,-1.087338867,0.7246430969,1.102158051,1.70943435
31.78973142,-0.6673123169,1.053658905,0.9943821716,1.595085803
31.79967142,0.3682342529,1.099463654,0.8961863708,1.465457881
31.80961142,2.480192413,1.082997894,1.275497589,2.991844405
31.81955142,5.384602661,0.9791139221,2.081421661,5.855333127
31.82949142,8.168812866,1.3947995,2.379451904,8.621876864
31.83943142,13.13383804,0.1419049072,4.484075317,13.8789326
31.84937142,17.15312988,-0.6355783081,5.298531647,17.96408256
31.85931142,21.40129578,-1.443298645,4.952151947,22.01414047
31.86925142,28.16078934,-1.954785004,4.03096756,28.51490733
31.87919142,33.57413223,-2.104174347,0.2493814087,33.64092888
31.88913142,36.38109512,-2.693349152,-1.459015961,36.50981977
31.89907142,30.69936035,-4.4405159,-0.559536438,31.02389383
31.90901142,23.3691037,-4.804858246,2.518961792,23.99055729
31.91895142,20.4295166,-4.310735779,3.384461975,21.15188347
31.92889142,21.26193558,-1.288670197,6.85783905,22.37767932
31.93883242,26.6537233,0.4052073669,7.12817688,27.59340617
31.94877242,28.33547607,2.316882019,6.134692841,29.08438761
31.95871242,21.35653885,3.47277832,4.658612366,22.13288526
31.96865242,15.71971069,1.466949463,14.84732483,21.67266249
31.97859242,12.48823059,-4.44276123,32.21346176,34.83390804
31.98853242,9.347910919,5.034480743,-17.51238281,20.47957487
31.99847242,4.182751923,6.411916351,-16.62098648,18.29932448
32.00841242,8.587641907,4.186793518,-11.73858948,15.13510213
32.01835242,8.935219116,-0.366587677,-4.681365051,10.09394402
32.02829242,4.732857971,-1.739233246,0.3373983765,5.053584324
32.03823242,3.449127502,-1.385668488,0.4200265503,3.740719181
32.04817242,1.889071655,-1.284179535,-0.4819976807,2.334530051
32.05811242,-0.05313949585,-1.179696808,-1.446442108,1.867271576
32.06805242,-1.320703583,-1.953886871,-0.8708889771,2.514036489
32.07799242,-2.006128235,-1.793420563,0.1944456482,2.697909732
32.08793242,-2.004781036,-0.3894900513,-1.043031006,2.293199333
32.09787242,-2.20207077,0.1466949463,-1.027014313,2.434213114
32.10781342,-1.908531189,0.643661499,-1.176703033,2.33268546
32.11775342,-1.570534058,0.2812651062,-1.144519958,1.963571547
32.12769342,-0.938997345,-0.1871109009,-0.8571176147,1.285059185
32.13763342,-0.4882846069,-0.7529342651,-0.1004411316,0.9030062491
32.14757342,-0.4291575623,-1.190324707,0.655486908,1.425030599
32.15751342,-0.1260379028,-0.6053411865,0.4102967834,0.7420693738
32.16745342,0.3553610229,-0.8334667969,0.7047344971,1.147867183
32.17739342,0.2583627319,-1.183439026,2.275418243,2.577752395
32.18733342,0.5694158936,-0.8216413879,1.883383484,2.132243508
32.19727342,1.581161957,-0.6730004883,1.948348389,2.597896117
32.20721342,3.689078522,-0.1371148682,1.125958557,3.859518558
32.21715342,8.262218628,0.003293151855,1.1572435,8.342870011
32.22709342,13.42917389,-0.5987548828,1.305135956,13.50572466
32.23703342,18.97080002,-1.924697571,3.628604279,19.4103705
32.24697342,22.13806366,-0.8746311951,2.033221893,22.24843441
32.25691342,26.39775558,-0.3119512939,1.361269226,26.43467169
32.26685342,29.43074844,-0.1480421448,1.55152359,29.47198833
32.27679442,31.99701187,-0.4861889648,-0.4412823486,32.00374788
32.28673442,29.30321365,-1.084494781,2.676883392,29.44520613
32.29667442,23.66443954,-2.65727417,5.826783142,24.51567268
32.30661442,20.95163086,-2.278262329,4.136647797,21.47727101
32.31655442,20.35362442,-0.4290078735,4.925207977,20.94544696
32.32649442,21.56101364,1.024469604,3.95253067,21.94423263
32.33643442,23.79915939,0.1547781372,3.557352448,24.06405412
32.34637517,21.27840134,-1.143921204,3.777843933,21.64141918
32.35631517,14.70751556,-4.289929047,14.12881897,20.84077807
32.36625517,14.29467407,-10.75318863,29.83775208,34.78879448
32.37619517,6.323749695,4.402494965,-18.21966202,19.7820084
32.38613517,0.5219645691,6.550528107,-16.29002472,17.56549945
32.39607517,4.005071411,4.323159943,-10.87054459,12.36523548
32.40601517,3.642375641,1.503323822,-3.89519989,5.540709793
32.41595517,1.385818176,1.175655212,0.3983216858,1.860461599
32.42589517,1.129700775,1.4438974,-0.4334985352,1.883874869
32.43583517,-0.08083190918,1.327439575,-1.437011719,1.957966369
32.44577517,-0.9608518982,1.387165375,-2.372416534,2.911326907
32.45571517,-0.5117857361,-0.4052073669,-2.043700104,2.145420184
32.46565617,0.1368154907,-0.7140151978,-2.097588043,2.220002653
32.47559617,0.4640350342,-1.525926819,-2.000739441,2.558659704
32.48553617,0.1546284485,-1.560504913,-1.345402222,2.066202478
32.49547617,-0.2157014465,-1.224304047,-0.3418890381,1.289315953
32.50541617,-0.3504212952,-0.9264234924,0.5077441406,1.113040738
32.51535617,0.03293151855,-0.7107220459,0.3947291565,0.8136469864
32.52529617,0.2930905151,-0.8568182373,0.4815486145,1.02563571
32.53523617,0.4613406372,-1.141675873,0.02814147949,1.231686212
32.54517617,0.3917353821,-1.31980545,-0.3814068604,1.428570695
32.55511617,0.4186793518,-0.7682025146,-0.2281256104,0.9041398107
32.56505617,1.882335663,0.1330732727,0.4918771362,1.950086962
32.57499617,4.717889099,0.9228309631,1.66858017,5.088639732
32.58493617,8.235574036,1.573527832,2.821482697,8.846549279
32.59487617,12.06311462,1.697619781,3.400029602,12.64756295
32.60481617,16.38462799,1.368454285,3.775598602,16.86961311
32.61475617,21.42599442,0.5460644531,2.644550629,21.59548729
32.62469617,27.82309158,-0.007933502197,0.6304888916,27.83023544
32.63463617,31.44361267,-1.255738678,1.781295776,31.51905252
32.64457717,31.59360077,-2.85740799,3.954626312,31.96810065
32.65451717,29.33674393,-3.582350464,3.837569733,29.80276364
32.66445717,25.9132132,-5.043911133,5.3602034,26.9382152
32.67439717,23.26357315,-4.572241974,6.697372742,24.63643712
32.68433717,24.96792892,-2.750230865,5.682333527,25.7536436
32.69427717,26.84547455,-0.757275238,4.68855011,27.26234531
32.70421717,22.40630585,0.3649411011,3.270249481,22.64663894
32.71415717,17.49741394,0.9698332214,5.071603546,18.24338876
32.72409717,14.26847855,-0.3043171692,14.48911972,20.33756817
32.73403717,11.54623947,-3.352578278,17.19504272,20.98153763
32.74397717,6.40503067,1.110241241,-16.5025827,17.73674968
32.75391717,3.051703949,4.247567139,-12.92966263,13.94743343
32.76385717,7.106771393,3.613785095,-9.114845581,12.1097503
32.77379717,5.808371429,1.414259033,-4.0742276,7.234406528
32.78373717,3.069516907,0.5450166321,-0.5131329346,3.159475048
32.79367717,2.02888092,0.3643423462,-0.2959346008,2.082469789
32.80361717,0.9876461792,0.4602928162,-0.74065979,1.317532306
32.81355717,-0.3463796997,0.4665797424,-0.3559597778,0.6814564666
32.82349717,-1.284628601,0.9131011963,-1.010698242,1.8723075
32.83343817,-1.399140472,-0.7295828247,-0.8613088989,1.797703585
32.84337817,-1.466799774,-0.6478527832,-1.626817017,2.284239132
32.85331817,-1.294807434,-0.3082090759,-2.040406952,2.436140319
32.86325817,-0.9707313538,-0.2857557678,-1.282083893,1.633314063
32.87319817,-0.5433700562,-0.3071612549,-0.688717804,0.9294790304
32.88313817,0.0390687561,-0.3403921509,-0.2709365845,0.4368063838
32.89307817,0.4077520752,-0.3558100891,-0.2576142883,0.5993560677
32.90301817,0.4784051514,-0.2179467773,-0.1748364258,0.5540217165
32.91295817,0.5270539856,0.2149530029,-0.09610015869,0.5772572544
32.92289817,0.3667373657,0.3460803223,0.4423301697,0.6707636423
32.93283817,0.5447172546,0.189206543,0.8617579651,1.036890927
32.94277817,0.9951306152,0.1685494995,0.732127533,1.246877941
32.95271817,1.619931335,0.1014889526,0.6783892822,1.759172975
32.96265817,3.256777496,-0.02305206299,0.8592132568,3.368290142
32.97259817,6.185587006,-0.2724334717,1.149309998,6.297350242
32.98253817,9.46721283,-0.8170010376,1.195713501,9.577334714
32.99247817,13.57931168,-0.8701405334,1.569186859,13.69734272
33.00241817,19.84947281,-0.8057743835,2.178419952,19.98490322
33.01235917,30.50745941,-1.89086792,3.335663452,30.74747326
33.02229917,37.10019974,-2.499801636,1.758094025,37.22586095
33.03223917,37.33311539,-4.65337326,1.734592896,37.66197286
33.04217917,29.51652008,-7.042554932,3.274291077,30.52119787
33.05211917,23.13484085,-5.938600616,5.054539032,24.41385269
33.06205917,20.93636261,-1.848506012,4.920717316,21.58614631
33.07199917,23.25159805,0.240100708,5.40106842,23.8718663
33.08193917,29.11041458,-0.2799179077,5.194947052,29.57164294
33.09187917,24.72977417,-0.4435276794,4.974605255,25.22905358
33.10181917,17.58138931,-1.069076843,8.598718872,19.60066687
33.11175917,16.86258408,-5.620961151,21.86263641,28.17652954
33.12169917,13.29879501,-3.106789398,-1.685944061,13.76054129
33.13163917,4.058659973,6.438261566,-16.4084285,18.08757746
33.14157917,5.662724304,4.965623932,-9.351503448,12.00726798
33.15151917,7.411238251,2.650837555,-4.199517059,8.92128554
33.16145917,4.957989807,1.234632568,-0.5237608337,5.136176196
33.17139917,3.817810822,0.450712738,-0.5716612244,3.886594653
33.18133917,2.421514435,0.02978805542,-1.432970123,2.813898161
33.19127917,0.8479866028,0.1974394226,-1.819915466,2.01746274
33.20121917,0.2622546387,-0.6909631348,-0.918639679,1.179027739
33.21115917,-0.4433779907,-1.144819336,-0.5484594727,1.344620076
33.22110017,-1.081650696,-1.261875916,-1.644629974,2.338184511
33.23104017,-1.517993317,-1.303788757,-2.64440094,3.316176287
33.24098017,-1.682650909,-1.388213196,-2.803669739,3.552325149
33.25092017,-1.184935913,-0.9621990967,-2.470462646,2.903977601
33.26086017,-0.4924758911,-0.5550457764,-1.972298584,2.107266006
33.27080017,-0.06451583862,-0.1320254517,-1.288969574,1.29731861
33.28074017,0.6051914978,0.2240840149,-1.092428284,1.268806506
33.29068017,0.6695576477,0.1927990723,-0.9752220154,1.198556175
33.30062017,0.1609153748,-0.4483177185,-1.070124664,1.171345095
33.31056017,-0.06346801758,-0.7695497131,-1.347348175,1.552926932
33.32050017,0.5204676819,-0.1606159973,-0.9515711975,1.096435976
33.33044017,1.519190826,1.265169067,0.4787045288,2.034146396
33.34038017,3.450474701,2.863694916,1.065484314,4.608880673
33.35032058,6.560108185,3.676055603,0.9175918579,7.575643802
33.36026058,10.36624329,3.263812866,0.9366023254,10.90819409
33.37020058,14.71006027,1.945055237,1.524429932,14.91619924
33.38014058,21.01929016,1.051712952,2.160157928,21.15615611
33.39008058,27.52206757,-0.1697470093,2.733765106,27.65802757
33.40002058,31.58042816,-2.103725281,3.191662903,31.81093861
33.40996158,31.11923721,-4.515210571,2.892285461,31.5778303
33.41990158,27.69076675,-7.202422485,3.499123535,28.82528957
33.42984158,24.51347397,-7.391778717,6.306086426,26.36883624
33.43978158,21.07946503,-4.050576782,7.099137268,22.60859943
33.44972158,22.82932617,-0.9662406921,6.667584686,23.80269817
33.45966158,29.18331299,-1.084794159,5.898633728,29.79322767
33.46960158,24.66331238,-2.165097656,5.053341522,25.26861464
33.47954158,18.54089401,-1.554068298,6.434818726,19.68722355
33.48948158,16.60676605,-1.945653992,10.85377945,19.93426137
33.49942158,13.00660263,-1.911225586,7.716603241,15.24370233
33.50936158,6.874753876,2.007625122,-7.292385406,10.2211391
33.51930158,3.785777435,4.382286987,-9.577683105,11.19234398
33.52924158,4.390968933,2.090103607,-7.167095947,8.661201163
33.53918158,3.263513489,0.7890092468,-4.881498871,5.924701436
33.54912158,1.890119476,0.2140548706,-4.002676392,4.431680203
33.55906158,0.749790802,-0.1128652954,-4.057462463,4.127702323
33.56900158,-0.2103126526,-0.2165995789,-3.647614746,3.660087448
33.57894158,-0.926124115,-0.1887574768,-2.747087402,2.905137597
33.58888158,-0.9259744263,-0.2404000854,-2.383044434,2.567902181
33.59882158,-0.5791456604,-0.2218386841,-1.795665894,1.899746851
33.60876258,0.1359173584,-0.2731819153,-1.596430206,1.625328056
33.61870258,0.6595285034,-0.2266287231,-1.193617859,1.382411667
33.62864258,0.9330097961,-0.2568658447,-0.6017486572,1.1395564
33.63858258,0.927171936,-0.3847000122,-0.3487747192,1.062678551
33.64852258,0.5426216125,-0.5914201355,-0.1306782532,0.8131991127
33.65846258,0.08861572266,-0.736917572,-0.01407073975,0.7423599127
33.66840258,-0.1095721436,-0.5448669434,0.1842668152,0.5855256611
33.67834258,-0.4559518433,-0.2278262329,0.3814068604,0.636606683
33.68828258,-0.2850073242,0.2624043274,0.682281189,0.7845972385
33.69822258,0.6391708374,0.7875123596,1.150956573,1.534084779
33.70816258,2.789000244,1.264570312,1.776505737,3.540287145
33.71810258,5.706134033,1.707499237,1.841620331,6.234347175
33.72804258,9.116941223,2.032024384,1.201251984,9.417576476
33.73798258,13.1994017,2.442171478,0.9214837646,13.45501911
33.74792258,17.83945267,2.321222992,1.71184021,18.07109694
33.75786258,24.28040863,1.703757019,2.252515869,24.44411706
33.76780258,33.19242599,-0.7258406067,3.305276642,33.36448474
33.77774258,36.97056931,-2.810405731,3.667223969,37.25815222
33.78768258,33.43447266,-5.785019989,4.967120819,34.29289587
33.79762258,25.91441071,-5.966442719,6.748715973,27.43538387
33.80756258,21.39800262,-4.923561401,6.516099701,22.90361387
33.81750358,24.64415222,-2.1459375,6.358926544,25.54163725
33.82744358,28.73409714,-2.077080688,5.754333801,29.37813745
33.83738358,23.11747696,-3.113824768,4.714745636,23.79795101
33.84732358,17.62689468,-1.390608215,4.39950119,18.22077984
33.85726358,15.27723083,-1.104702759,8.761280823,17.64579814
33.86720358,12.89478516,-0.3067121887,8.980275421,15.71670777
33.87714358,7.620054016,2.201771393,-2.784060516,8.406188996
33.88708358,4.038901062,3.845652924,-11.15645004,12.47269601
33.89702358,4.573439484,3.161425781,-7.94368103,9.696031662
33.90696358,5.000351715,2.101030884,-5.143304443,7.474719302
33.91690358,3.023712158,1.258582764,-3.628604279,4.888111578
33.92684358,2.120041351,0.4411326599,-3.490441589,4.107597332
33.93678358,1.334325256,-0.1743873596,-2.832859039,3.136227858
33.94672358,0.367635498,-0.2219883728,-2.028431854,2.073395882
33.95666358,0.0715512085,-0.02903961182,-1.163680115,1.166239377
33.96660358,0.04730163574,0.03113525391,-0.8223898315,0.8243372391
33.97654358,-0.2089654541,-0.4345463562,-0.155975647,0.506779537
33.98648358,-0.06092330933,-0.7818241882,0.7575746155,1.090357744
33.99642358,-0.2653981018,-0.2206411743,0.5978567505,0.6903270054
34.00636358,-0.2412982178,-1.682201843,1.415157166,2.211492183
34.01630358,-0.7809260559,-1.196761322,1.82410675,2.31720707
34.02624458,-1.494641876,-0.7478448486,1.260528717,2.093360672
34.03618458,-1.411714325,-0.3517684937,0.8589138794,1.689500358
34.04612458,-1.040037231,0.2987786865,0.1350192261,1.090493621
34.05606458,-0.5062472534,0.9126521301,-0.3839515686,1.112042715
34.06600458,-0.07768844604,1.44150238,-0.8372090149,1.668797034
34.07594458,0.6712042236,2.012714539,-1.260828094,2.468040196
34.08588458,2.729424133,2.737207947,-1.26486969,4.067180691
34.09582458,5.876629486,3.163521423,-0.602946167,6.701207801
34.10576458,9.661808167,2.375859375,-0.9601034546,9.995851312
34.11570458,14.29212936,0.1035845947,-0.7937992859,14.31453139
34.12564458,20.29210236,-2.897225189,1.702110443,20.56843484
34.13558458,28.69787247,-5.335055695,2.64320343,29.30899568
34.14552458,34.53962448,-7.023095398,3.382815399,35.40837427
34.15546458,35.35662552,-7.401807861,3.608246613,36.30285349
34.16540458,31.04304565,-6.352938995,3.324885864,31.86040463
34.17534458,25.23512329,-5.493426361,5.298831024,26.36411938
34.18528458,21.96936447,-3.907923431,7.665409698,23.59413797
34.19522458,25.21491531,-1.488804016,5.993087311,25.96007679
34.20516458,27.53479111,-0.3520678711,5.012177124,27.98947289
34.21510458,21.44201111,0.213306427,3.786226501,21.77477557
34.22504458,16.85210587,0.6712042236,4.011508026,17.33597946
34.23498558,14.6724884,-0.3237767029,10.90841583,18.28606801
34.24492558,11.27156067,-0.7214996338,10.55964111,15.46203939
34.25486558,4.906347198,2.506537628,-13.48889969,14.57070309
34.26480558,2.974614258,5.060376892,-13.56613907,14.78160592
34.27474558,6.055058441,4.179458771,-6.846762085,10.05036116
34.28468558,4.772375793,2.24428299,-3.861070862,6.536072601
34.29462558,2.794389038,1.24496109,-2.145338745,3.736444372
34.30456558,1.722019043,0.6945556641,-1.013692017,2.115497261
34.31450558,0.5252577209,0.6439608765,-0.5538482666,0.9986637003
34.32444558,-0.4781057739,0.4772076416,0.4921765137,0.8357930275
34.33438558,-1.00276474,0.4216731262,0.6298901367,1.257023044
34.34432558,-1.163680115,0.2228865051,0.3594026184,1.23814379
34.35426467,-1.100661163,-0.1341210938,0.3444337463,1.161067642
34.36420467,-0.9653425598,-0.349972229,0.05164260864,1.02812148
34.37414467,-1.153950348,-0.4766088867,0.2038760376,1.265038685
34.38408467,-1.147214355,-0.3956272888,0.03876937866,1.21413541
34.39402467,-0.9839039612,-0.2137554932,-0.4047583008,1.085167129
34.40396467,-0.9506730652,0.01272354126,-0.4604425049,1.05638462
34.41390467,-1.014739838,0.1390608215,-0.3159928894,1.071861165
34.42384467,-0.7887098694,0.4108955383,-0.08038284302,0.8929500562
34.43378467,-0.6381230164,0.4575984192,0.1082249451,0.7926600381
34.44372467,0.2345622253,0.273331604,0.4740641785,0.5953708496
34.45366567,2.278861084,0.35102005,0.6734495544,2.402073525
34.46360567,5.560486908,0.6520440674,0.3790118408,5.611401438
34.47354567,9.751322021,0.3468287659,0.3471281433,9.763660651
34.48348567,14.48417999,-0.4950205994,1.147663422,14.53800697
34.49342567,20.37323364,-1.654808807,1.589394836,20.50202959
34.50336567,28.14582047,-2.994373169,0.9339079285,28.32005763
34.51330567,34.21180618,-4.21703064,1.944157104,34.52550907
34.52324567,34.58108826,-4.771178284,2.690205688,35.01218379
34.53318567,31.53641968,-3.268453217,1.513802032,31.74145789
34.54312567,27.50679932,-4.102967834,2.799628143,27.95167743
34.55306567,24.29642532,-3.867956543,6.608906708,25.47459556
34.56300567,22.57156219,-0.6313870239,6.910230103,23.61409218
34.57294567,26.68994797,-0.3797602844,5.613476715,27.27652216
34.58288567,26.23369675,0.4149371338,5.244943085,26.75609175
34.59282567,18.67217102,1.236279144,4.266427917,19.19324787
34.60276567,15.36240372,-0.8614585876,12.67773651,19.93666376
34.61270567,13.24790085,-3.177442474,19.16090469,23.51049311
34.62264567,5.452261963,3.875740356,-13.06797501,14.68061629
34.63258567,1.269659729,7.209457855,-18.96466278,20.32847148
34.64252567,4.850962372,3.457809448,-7.902965698,9.896724152
34.65246567,3.44358902,0.5990542603,-4.019740906,5.326864771
34.66240567,1.375040588,-0.6749464417,-2.82462616,3.213223033
34.67234567,0.4790039062,-1.661844177,-2.061962128,2.691255957
34.68228567,-0.7077282715,-2.378703461,-1.620380402,2.963906562
34.69222667,-1.243314514,-1.744172974,-2.267185364,3.118990192
34.70216667,-1.088686066,-3.07026535,-1.321152649,3.515282491
34.71210667,-0.6885681152,-2.085912323,-0.8728349304,2.363682949
34.72204667,-0.3746708679,-1.170416107,-1.178349609,1.702574499
34.73198667,-0.200433197,-0.264200592,-0.3677851868,0.4952185002
34.74192667,-0.1378633118,0.4189787292,-0.07349716187,0.4471591452
34.75186667,-0.2330653381,0.5544470215,0.3433859253,0.6925639647
34.76180667,-0.1194515991,0.7512876892,0.4134402466,0.8658144801
34.77174667,-0.2323168945,0.577199707,0.26210495,0.6751515727
34.78168667,-0.965791626,-0.0722996521,0.0940045166,0.9730455044
