Time (s),Acceleration x (m/s^2),Acceleration y (m/s^2),Acceleration z (m/s^2),Absolute acceleration (m/s^2)
9.940495792,-1.646875305,-0.5182223511,-1.250349884,2.131695923
9.950434792,-1.963167572,-0.6786886597,-1.390757904,2.499770542
9.960374792,-1.91661438,-0.6448590088,-1.409019928,2.464668533
9.970313792,-1.689835968,-0.4990621948,-1.2952565,2.186846605
9.980252792,-1.443747711,-0.357456665,-1.118025055,1.860688782
9.990192792,-1.291214905,-0.2769241333,-0.9129515076,1.605429339
10.00013179,-2.072739716,-1.170266418,0.06421646118,2.381154588
10.01007179,-2.607577515,-1.650767212,0.3207829285,3.102804307
10.02001079,-2.491568756,-0.6981481934,0.5767506409,2.651031322
10.02995079,-3.450025635,0.9036708069,2.706222382,4.476933927
10.03988979,-4.007466431,2.104324036,5.537584534,7.152119218
10.04982879,-1.491797791,2.411036224,5.918991394,6.563003538
10.05976879,1.793420563,2.161505127,3.698808289,4.644313134
10.06970779,2.016606445,0.4875361633,-0.2418969727,2.088757337
10.07964779,2.168839874,1.60062149,-0.5755531311,2.756286807
10.08958679,3.352428589,2.918930054,-0.9665400696,4.548970192
10.09952679,5.409001923,5.034630432,-2.618055725,7.83958042
10.10946579,24.93065643,10.6088887,-5.726042633,27.69248479
10.11940479,58.29447601,21.97684891,-2.506986694,62.34992224
10.12934479,78.54197113,31.78310669,2.093396759,84.75487838
10.13928379,77.91761948,32.13951553,-1.920805664,84.30773024
10.14922379,52.7167749,20.55136322,5.598058777,56.85732273
10.15916279,20.47292633,11.72586594,15.81850525,28.40531205
10.16910279,10.0541423,8.295000458,12.2134021,17.86225072
10.17904179,7.161258087,5.760471039,5.494324493,10.70767228
10.18898079,4.732708282,3.058290253,1.633103943,5.866744876
10.19892079,2.35774704,1.217418365,-0.2468367004,2.664959087
10.20885979,0.6053411865,0.2809657288,-0.9999206543,1.202173452
10.21879979,-0.1866618347,-0.05807922363,-0.7744894409,0.7987801518
10.22873879,-0.5408253479,-0.1878593445,-0.6387217712,0.8577579445
10.23867879,-0.8083190918,-0.386945343,-0.562230835,1.057927202
10.24861779,-0.9391470337,-0.5700146484,-0.7032376099,1.30439909
10.25855679,-0.9571096802,-0.6735992432,-1.063538361,1.581426168
10.26849679,-1.172661438,-0.8327183533,-1.207389221,1.877856074
10.27843579,-1.610500946,-1.285377045,-1.21217926,2.390666435
10.28837579,-1.960922241,-1.738335114,-1.314566345,2.931741748
10.29831479,-2.280357971,-2.269879761,-1.57607254,3.582790987
10.30825479,-2.91354126,-3.114423523,-1.766476593,4.616145157
10.31819379,-3.419788513,-3.82379837,-1.832189941,5.447321125
10.32813279,-3.261717224,-3.854185181,-1.654958496,5.313419829
10.33807279,-2.806663513,-3.464096375,-1.0683284,4.584610053
10.34801179,-2.6104216,-3.171305237,-0.522563324,4.140597815
10.35795179,-2.668201447,-2.909349976,-0.2032772827,3.952839219
10.36789079,-2.559377747,-2.600392456,-0.1240919495,3.650733377
10.37783079,-2.1857547,-2.225272522,-0.1175056458,3.121404969
10.38776979,-1.750310211,-1.786834259,-0.1118174744,2.503770287
10.39770879,-1.14556778,-1.248553619,-0.03487747192,1.694823919
10.40764842,-0.05733078003,-0.2317181396,0.3327580261,0.4095216948
10.41758742,2.623594208,4.084556122,3.056943054,5.736875989
10.42752742,4.376898193,3.709286499,5.037923584,7.635228757
10.43746642,3.045267334,0.3230282593,1.490300903,3.40573005
10.44740642,3.246149597,-0.2411485291,0.3144960022,3.27025191
10.45734542,7.169490967,0.8996292114,1.29181366,7.340280374
10.46728442,17.70922348,2.99542099,0.819994812,17.97947537
10.47722442,41.06859741,9.153016205,-2.939138031,42.17873791
10.48716342,66.77688675,22.24778549,-0.7099736023,70.3890661
10.49710342,76.54662048,32.80443283,-3.161276093,83.33972395
10.50704242,65.83489563,34.73856079,-4.125570831,74.55213896
10.51698242,39.40346008,22.68936722,3.744613037,45.62304438
10.52692142,19.92102402,12.95510971,10.54182816,25.99638833
10.53686042,10.18003052,8.39304657,10.7455545,17.01596878
10.54680042,5.412145386,5.629044342,7.196434937,10.61913997
10.55673942,2.611918488,3.001558228,4.153113556,5.75150608
10.56667942,0.6607260132,1.208886108,2.151176605,2.55451077
10.57661842,-0.5373825073,0.08382568359,1.122216339,1.247067046
10.58655842,-1.038690033,-0.5369334412,0.9581575012,1.511701129
10.59649742,-1.318009186,-0.8755293274,0.7804769897,1.764325409
10.60643742,-1.551822968,-1.192420349,0.4809498596,2.015275063
10.61637642,-1.630708923,-1.608704681,0.3173400879,2.312541259
10.62631542,-1.691332855,-2.20446579,0.4029620361,2.807606569
10.63625542,-1.754800873,-2.766397247,0.3246748352,3.292065246
10.64619442,-1.833237762,-3.145708466,-0.004790039062,3.64091546
10.65613442,-1.992207184,-3.260220337,-0.3965254211,3.841244397
10.66607342,-2.17871933,-3.287613373,-0.8749305725,4.039891473
10.67601342,-2.426903229,-3.386407928,-1.226848755,4.343129725
10.68595242,-2.52509903,-3.453318787,-1.206191711,4.444821053
10.69589142,-2.65487915,-3.749702454,-1.108744354,4.726305728
10.70583142,-2.844983826,-4.06015686,-1.178798676,5.095917289
10.71577042,-2.824925537,-4.070485382,-0.9933343506,5.053292854
10.72571042,-2.229314117,-3.774999847,-0.7119195557,4.441541932
10.73564942,-1.457818451,-3.432811432,-0.8020321655,3.814798102
10.74558942,-0.752485199,-2.408192139,-1.149908752,2.772708692
10.75552842,-0.1637594604,-0.6251000977,-1.375489655,1.519716777
10.76546742,0.6149212646,0.8876541138,-1.21801712,1.627766474
10.77540742,2.017504578,1.488205261,-0.3879931641,2.536852048
10.78534642,3.818559265,0.7885601807,0.9828561401,4.021097886
10.79528642,5.835465088,0.1038839722,1.486109619,6.022621229
10.80522542,10.24903702,1.084345093,1.563348999,10.42413661
10.81516542,19.98988083,4.737498322,-0.0260458374,20.54360982
10.82510442,36.86039841,11.73230255,-3.873345337,38.87593983
10.83504342,57.7067981,21.96696945,-3.546425171,61.84819662
10.84498342,75.49251251,32.32692581,3.209475861,82.18546291
10.85492242,70.78165878,35.37354034,9.958191833,79.75271883
10.86486242,40.46535187,23.40592712,7.411088562,47.33081829
10.87480142,16.53790924,18.79701141,15.93002335,29.67483317
10.88474142,4.411027222,14.86304214,16.72591827,22.80621681
10.89468042,1.895358582,9.058113556,10.59062668,14.0642518
10.90461942,4.795876923,5.319039001,1.530267792,7.323546332
10.91455942,4.773273926,3.833528137,-2.276166687,6.53154015
10.92449842,2.556383972,2.564167786,-3.169359283,4.811953212
10.93443842,0.9469308472,1.710043945,-2.884801025,3.484681518
10.94437742,-0.3716770935,1.182241516,-2.48288681,2.774989329
10.95431742,-1.071172485,0.7595205688,-2.23949295,2.596076013
10.96425642,-1.265917511,0.2140548706,-1.519639893,1.989389865
10.97419542,-1.332229614,-0.2656974792,-0.9719288635,1.670352242
10.98413542,-1.467548218,-0.6732998657,-0.9714797974,1.884357577
10.99407442,-1.569785614,-0.9870474243,-1.173260193,2.194317427
11.00401442,-1.569486237,-1.237476654,-1.250050507,2.357384522
11.01395342,-1.797312469,-1.516496429,-1.217118988,2.647918459
11.02389342,-2.319726105,-1.81482605,-1.154100037,3.163332054
11.03383242,-2.928061066,-2.22437439,-1.040037231,3.821395095
11.04377142,-3.241060181,-2.579735413,-1.237476654,4.323292075
11.05371142,-3.240760803,-2.768941956,-1.095122681,4.401007137
11.06365042,-3.253634033,-3.015928345,-0.7288343811,4.495904554
11.07359042,-3.339555359,-3.338058472,-0.510737915,4.749328118
11.08352942,-3.291056213,-3.650009766,-0.4438270569,4.934633193
11.09346942,-3.112028503,-4.725672913,-1.167572021,5.777536699
11.10340842,-2.412233734,-4.901407471,-1.398092651,5.638912115
11.11334742,-0.8449928284,-2.696193237,-0.5155279541,2.872149008
11.12328742,0.9876461792,-0.01422042847,1.488654327,1.786543843
11.13322642,2.75442215,0.3341052246,2.813249817,3.951308924
11.14316642,3.481759644,-0.559536438,1.554217987,3.853741661
11.15310542,4.249662781,-0.1700463867,1.245859222,4.431784598
11.16304542,6.463259583,0.3007246399,1.03554657,6.55259616
11.17298442,14.85660553,2.054926758,-0.4147874451,15.00378287
11.18292342,31.4711554,6.779701538,-4.505630493,32.50690205
11.19286342,53.60368057,16.1057579,-6.47403717,56.34414935
11.20280242,74.08124725,29.91648834,1.304986267,79.90450837
11.21274242,75.92181976,40.10445236,5.847589874,86.06209458
11.22268142,50.68594803,31.70945984,5.118605804,60.0062938
11.23262142,24.28699493,19.87506958,12.38868759,33.7395331
11.24256042,10.93086914,12.69090912,14.69898331,22.28459523
11.25249942,6.392307129,6.978637848,11.0296637,14.53328792
11.26243942,6.445895691,3.563489685,4.043691101,8.40234894
11.27237842,4.449197845,1.680106201,0.1005908203,4.756914633
11.28231842,1.985770569,0.1767823792,-0.9481283569,2.207596916
11.29225742,0.3613485718,-0.7899073792,-1.562151489,1.787412581
11.30219742,-0.3466790771,-0.769100647,-1.847458191,2.030961338
11.31213642,-0.6679110718,-0.9756710815,-1.788181458,2.143742565
11.32207642,-1.393751678,-1.75869278,-1.469494171,2.682341729
11.33201542,-2.142644348,-2.738555145,-0.8872050476,3.588557075
11.34195442,-2.859503632,-3.858376465,-0.9292675781,4.891560916
11.35189442,-3.69985611,-4.211791534,-1.579964447,5.824466569
11.36183342,-4.744833069,-4.011208649,-2.237996063,6.603927775
11.37177342,-5.472769318,-3.850892029,-2.210902405,7.047599795
11.38171242,-5.726940765,-3.929628296,-1.393003235,7.083804563
11.39165242,-5.300926666,-3.738176422,-1.068478088,6.57384453
11.40159142,-4.784949646,-3.768114166,-0.7683522034,6.138794067
11.41153038,-4.900958405,-4.240082703,-0.7309300232,6.521652652
11.42147038,-5.168601837,-4.467609558,-0.2570155334,6.836668567
11.43140938,-4.673132172,-4.186494141,0.3426374817,6.283494086
11.44134938,-2.947221222,-2.776875458,0.602946167,4.093982696
11.45128838,-1.496887207,-0.1239422607,1.697320404,2.26647955
11.46122838,-0.4192781067,2.887196045,5.256319427,6.011704339
11.47116738,1.518891449,0.9940827942,2.661615143,3.221711813
11.48110638,2.188449097,-0.7241940308,0.05867797852,2.305907532
11.49104638,2.424059143,-0.3694317627,0.2418969727,2.463951441
11.50098538,3.068469086,-0.01751358032,0.1678010559,3.073103716
11.51092538,7.507338409,-0.01811233521,-0.1245410156,7.508393205
11.52086438,20.81900665,0.8554710388,-0.07768844604,20.83672009
11.53080438,47.80039856,6.718927917,2.218087463,48.32123764
11.54074338,74.19950134,12.29872467,-4.949307861,75.37453334
11.55068238,77.79577286,22.20542358,-4.474195862,81.02642495
11.56062238,58.85655716,35.86032806,4.524790649,69.06903199
11.57056138,35.72875168,30.78842514,7.89802597,47.82101665
11.58050138,25.83522537,16.34451141,5.147495728,31.00159086
11.59044038,18.19765778,9.316027222,3.529210968,20.74604641
11.60038038,11.73050629,4.784799957,2.319576416,12.87942247
11.61031938,5.836063843,2.482437744,1.245559845,6.463246681
11.62025838,1.254092102,1.202748871,0.6691085815,1.862003797
11.63019838,-1.556762695,0.4147874451,0.423918457,1.665912835
11.64013738,-2.889740753,-0.4294569397,0.259410553,2.932972676
11.65007738,-3.549119568,-1.548679504,0.03308120728,3.872434929
11.66001638,-4.08949585,-2.905158691,-0.606688385,5.052919366
11.66995638,-4.326004028,-3.741020508,-0.9523196411,5.797970161
11.67989538,-4.098028107,-3.924538879,-1.375040588,5.83837104
11.68983438,-3.929478607,-3.803889771,-2.170187073,5.883884044
11.69977438,-3.622017975,-3.516188049,-2.1260289,5.47746214
11.70971338,-3.540437622,-3.366499329,-1.095272369,5.006759216
11.71965338,-3.77006012,-3.189417572,-0.4936734009,4.962806785
11.72959238,-3.983516235,-3.040926361,-0.2237846375,5.016544059
11.73953238,-3.763174438,-3.013683014,-0.1374142456,4.823136929
11.74947138,-3.356769562,-3.054548035,0.006735992432,4.538525197
11.75941138,-3.437601471,-3.27743454,0.3887416077,4.765480151
11.76935038,-3.429218903,-3.292702789,0.5387297058,4.784523345
11.77928938,-3.202290802,-2.946772156,0.5206173706,4.38282728
11.78922938,-2.671943665,-1.523382111,0.6631210327,3.146379746
11.79916838,-1.328188019,0.4784051514,0.9264234924,1.688554231
11.80910838,0.006885681152,0.3255729675,0.7286846924,0.7981394306
11.81904738,1.335223389,-0.2712359619,0.1520837402,1.370955838
11.82898638,2.496209106,-0.2779719543,0.1754351807,2.517758093
11.83892637,3.143463135,-0.08936416626,0.2869532776,3.157798065
11.84886538,4.208049316,0.1240919495,-0.05807922363,4.210279214
11.85880537,7.057823181,0.6779402161,-0.5340893555,7.110395378
11.86874438,14.96857269,2.319726105,-0.6289920044,15.16030767
11.87868437,31.34017776,8.25144104,0.03817062378,32.40824708
11.88862338,52.20918045,18.24795319,-0.8702902222,55.31314242
11.89856337,74.16133072,29.07643524,-0.1930984497,79.65788942
11.90850238,78.21520065,39.23760498,-0.6478527832,87.50786805
11.91844138,56.07025131,34.80232819,0.1465452576,65.99315574
11.92838138,26.30434982,23.3306337,8.932375031,36.27705352
11.93832038,8.853040009,15.0229097,15.9677449,23.64387892
11.94826038,3.601660309,8.798852692,12.81021103,15.95284527
11.95819938,3.572770386,5.624703369,4.436773682,8.005431714
11.96813938,2.095941467,3.930676117,0.01422042847,4.454591742
11.97807838,-0.08472381592,2.185605011,-1.724414063,2.785256047
11.98801737,-1.41815094,0.5490582275,-2.716251526,3.11297918
11.99795738,-1.503323822,-0.4745132446,-2.722089386,3.145618534
12.00789637,-1.250050507,-0.9886940002,-2.224673767,2.736661372
12.01783638,-1.191821594,-1.255888367,-1.810036011,2.504780362
12.02777537,-1.202599182,-1.506317596,-1.516496429,2.452549472
12.03771538,-1.331181793,-1.825603638,-1.11862381,2.52114911
12.04765437,-1.860630798,-2.191891937,-0.7556286621,2.972761663
12.05759338,-2.380200348,-2.35415451,-0.8346643066,3.45022632
12.06753337,-2.70637207,-2.334844666,-0.9765692139,3.705352456
12.07747238,-3.028651886,-2.421963501,-0.9846524048,4.001022345
12.08741237,-3.144211578,-2.579136658,-0.8755293274,4.159875473
12.09735138,-3.027903442,-2.737657013,-0.9961784363,4.201825395
12.10729137,-2.807411957,-2.903512115,-1.25319397,4.228763368
12.11723038,-2.696791992,-2.743943939,-1.502276001,4.130223792
12.12716938,-2.585573273,-2.151176605,-1.15020813,3.554677015
12.13710938,-2.452350311,-1.854493561,-0.7807763672,3.172188543
12.14704838,-2.234702911,-1.693578186,-0.6396199036,2.875972496
12.15698838,-1.873054962,-1.333726501,-0.5878276062,2.373331533
12.16692738,-0.4797523499,-0.4644841003,-0.4918771362,0.8293677796
12.17686738,1.529519348,-0.3427871704,-0.2920426941,1.594434513
12.18680638,2.28050766,-1.431922302,-0.4478686523,2.72978076
12.19674638,3.386407928,-1.171014862,-0.03817062378,3.58336315
12.20668538,5.343587952,-0.9208850098,0.1706451416,5.425042042
12.21662437,8.726852417,-0.6697073364,0.6351292419,8.775525635
12.22656438,15.86116653,0.422870636,2.543510742,16.06937679
12.23650337,25.66023926,1.334624634,0.2794688416,25.69644342
12.24644338,38.30519394,5.050347748,-0.9286688232,38.64785015
12.25638238,53.38887726,14.85810242,1.379980316,55.4350049
12.26632238,61.31055405,31.24737076,6.851851501,69.15439311
12.27626138,60.41975647,43.74488205,6.669380951,74.8908694
12.28620038,44.75378403,33.39121262,6.517446899,56.21700258
12.29614038,22.81091446,15.84904175,7.947572937,28.89106883
12.30607938,14.38942703,8.467591553,4.730313263,17.35314325
12.31601938,10.89195007,5.163961487,-0.9996212769,12.09546681
12.32595838,6.647825775,3.316203918,-3.777245178,8.334169251
12.33589838,2.030527496,1.612297211,-3.707190857,4.523915147
12.34583738,-1.357377319,0.2484832764,-1.768123169,2.242872414
12.35577638,-2.388283539,-0.3888912964,-0.96414505,2.604747661
12.36571638,-2.21150116,-0.6524931335,-0.9803114319,2.505493
12.37565538,-1.861379242,-0.7282356262,-0.5966592407,2.085919955
12.38559538,-1.547481995,-0.7777825928,-0.582588501,1.827308306
12.39553438,-1.298100586,-0.7309300232,-0.7795788574,1.681388422
12.4054745,-1.466799774,-0.8788224792,-0.7756869507,1.877637018
12.4154135,-1.831740875,-1.069226532,-0.7195536804,2.239704782
12.4253525,-2.330354004,-1.277593231,-0.6484515381,2.73555911
12.4352925,-2.785407715,-1.576371918,-1.048270111,3.367835327
12.4452315,-2.945275269,-1.781146088,-1.281036072,3.672625928
12.4551715,-2.834206238,-1.870210876,-0.825383606,3.494520256
12.4651105,-2.657423859,-1.879940643,-0.2061213684,3.261681224
12.4750505,-2.38933136,-1.637744293,-0.003293151855,2.896743268
12.4849895,-2.043251038,-1.269210663,-0.0896635437,2.407033456
12.4949295,-1.830842743,-1.072819061,-0.1802252197,2.129649506
12.5048685,-1.749561768,-1.006506958,-0.2688409424,2.036246077
12.5148075,-1.725012817,-0.8068222046,-0.3685336304,1.939703154
12.5247475,-1.436562653,0.08786727905,-0.5396278381,1.537085267
12.5346865,-0.8611592102,1.773961029,-0.5602848816,2.049988309
12.5446265,-0.9560618591,3.15918045,1.013093262,3.452655985
12.5545655,-0.7243437195,2.167941742,2.663561096,3.50987221
12.5645055,0.8170010376,-0.4760101318,-0.6518943787,1.148495808
12.5744445,1.432521057,0.1429527283,-0.7999365234,1.646951882
12.5843835,1.50586853,0.9494755554,-0.6292913818,1.888160879
12.5943235,1.805245972,1.667083282,-0.8779243469,2.60937365
12.6042625,2.412533112,2.499651947,-0.7372169495,3.551346886
12.6142025,13.12575485,3.960164795,-1.179996185,13.7608407
12.6241415,34.61446884,8.451275482,-3.578757935,35.81051548
12.6340815,63.12552979,16.67786819,-3.270099792,65.37336882
12.6440205,79.38980804,28.02921295,3.608695679,84.26981123
12.6539595,73.20272415,38.78090469,5.277425537,83.00872612
12.6638995,43.99246719,27.97113373,2.082020416,52.1733294
12.6738385,22.15003876,16.72606796,9.120982819,29.21605542
12.6837785,11.54174881,10.04336472,14.10920975,20.81227859
12.6937175,8.127648468,5.927224274,9.596394196,13.9025695
12.7036575,7.710016937,4.256548462,1.112187195,8.876909729
12.7135965,4.945116577,2.847079468,-1.501826935,5.900468083
12.7235365,2.058369598,1.532363434,-1.292113037,2.873078349
12.7334755,0.1008901978,0.4352947998,-0.8047265625,0.9204592523
12.7434145,-1.356778564,-0.5786965942,-0.152233429,1.48287317
12.7533545,-2.080972595,-1.422042847,0.03936813354,2.520754381
12.7632935,-2.623145142,-2.429597626,0.3635939026,3.593888644
12.7732335,-3.309767303,-3.7278479,0.3177891541,4.995237684
12.7831725,-3.723357239,-4.409530334,-0.7490423584,5.819657323
12.7931125,-4.008514252,-4.367318115,-1.773961029,6.187777611
12.8030515,-4.393513641,-4.322112122,-2.437082062,6.62744176
12.8129905,-4.906347198,-4.387975159,-2.387535095,7.001920641
12.8229305,-4.911286926,-4.196074219,-1.567390594,6.647141596
12.8328695,-4.481231232,-4.065246277,-0.7226971436,6.09343514
12.8428095,-3.720962219,-4.086202698,-0.0889151001,5.527252321
12.8527485,-2.627486115,-3.99698822,0.6780899048,4.831087252
12.8626885,-1.8884729,-3.776646423,0.9370513916,4.325211372
12.8726275,-1.557810516,-3.723506927,0.6996450806,4.096435119
12.8825665,-1.416354675,-3.382216644,0.8499325562,3.76401851
12.8925065,-0.9611512756,-2.324815521,2.146835632,3.30718645
12.9024455,0.3212319946,-0.5807922363,3.363804932,3.428657643
12.9123855,2.284848633,0.3616479492,3.00245636,3.790259451
12.9223245,3.384611664,-0.7387138367,1.560953979,3.799719934
12.9322645,3.95836853,-1.172062683,0.8140072632,4.207733378
12.9422035,5.344186707,-0.9794132996,0.765358429,5.486834742
12.9521435,9.985135803,-0.3026705933,1.967358856,10.18160338
12.9620825,18.72201736,0.7042854309,1.822011108,18.82364674
12.9720215,30.40387482,2.171534271,-1.846110992,30.53717883
12.9819615,45.90489029,8.82834137,-3.73024292,46.89470414
12.9919005,61.06760925,20.88786346,-3.363655243,64.62870815
13.0018405,65.09767868,32.95397186,-1.749561768,72.98447093
13.0117795,55.12766144,34.94782562,1.968556366,65.30149145
13.0217195,35.46619766,26.25315628,5.818699951,44.50771462
13.0316585,18.43656097,17.91684174,9.005722504,27.24009978
13.0415975,8.077502747,10.97891922,9.178912354,16.43274627
13.0515375,3.657793579,6.639443207,5.925428009,9.62145296
13.0614765,1.778601379,4.20879776,2.010768585,4.99205286
13.0714165,-0.5331912231,2.27586731,-0.2670446777,2.352695848
13.0813555,-2.3927742,0.7545808411,-1.608255615,2.980142068
13.0912955,-3.026556244,-0.302820282,-2.674638062,4.050361907
13.1012345,-3.18851944,-1.140029297,-3.588487701,4.933920044
13.1111735,-3.099304962,-1.318907318,-2.889291687,4.43770371
13.1211135,-2.580633545,-1.506467285,-1.383423157,3.292866958
13.1310525,-1.949994965,-1.610650635,-0.7235952759,2.630639837
13.1409925,-1.656455383,-1.643582153,-0.7204518127,2.442182947
13.1509315,-1.66858017,-1.686393127,-0.8322692871,2.514110922
13.1608715,-2.040856018,-1.961970062,-0.8279283142,2.949556764
13.1708105,-2.341131592,-2.52973938,-0.5306465149,3.487415115
13.1807505,-2.499801636,-3.53370163,0.2005828857,4.333161539
13.1906895,-2.48528183,-3.702999573,0.2507286072,4.466732189
13.2006285,-2.339934082,-2.999911652,0.1821711731,3.808930002
13.2105685,-2.244881744,-2.631976776,0.1029858398,3.46083832
13.2205075,-1.989063721,-2.741997986,0.1240919495,3.389738375
13.2304475,-1.502725067,-2.882256317,0.289947052,3.26338067
13.2403865,-0.9978250122,-2.817291412,0.3833528137,3.013261528
13.2503265,-0.5806425476,-2.548749847,0.4686753845,2.655734958
13.2602655,0.01422042847,-0.9460327148,1.839375,2.068448817
13.2702045,1.280587006,1.391805725,4.59140213,4.965682206
13.2801445,2.97206955,1.783990173,5.009482727,6.091858135
13.2900835,3.182082825,-0.6845265198,1.977837067,3.808683122
13.3000235,4.596341858,-0.6421646118,1.131347351,4.776890274
13.3099625,8.007747803,0.1823208618,1.569935303,8.162227798
13.3199025,15.0998497,1.563498688,1.964365082,15.30714602
13.3298415,28.57318176,6.036197662,1.134490814,29.22583562
13.3397805,47.49398575,18.17236038,3.502266998,50.97233797
13.3497205,65.84537384,28.52812546,-0.8663983154,71.76501825
13.3596595,72.49364868,36.50204361,-6.435866547,81.41958404
13.3695995,56.99472885,36.01450745,-5.106780396,67.6130392
13.3795385,27.56383072,25.47163147,2.262694702,37.59905
13.3894785,10.0289946,15.9545723,8.754694519,20.77916711
13.3994175,4.957840118,10.2704425,8.405321045,14.16727178
13.40935638,4.619842987,7.124135284,3.611240387,9.226988128
13.41929638,3.09960434,5.025349731,0.5517526245,5.930102693
13.42923538,0.2802172852,2.458786926,-1.598076782,2.945845257
13.43917538,-1.230740662,0.902024231,-2.623594208,3.035064556
13.44911438,-1.716779938,0.333356781,-2.33080307,2.913949734
13.45905438,-1.713337097,0.1068777466,-1.462009735,2.2548657
13.46899338,-1.69312912,-0.2281256104,-0.7993377686,1.886178247
13.47893338,-1.614243164,-0.5996530151,-0.2933898926,1.746837817
13.48887238,-1.467548218,-0.8848100281,-0.07334747314,1.715216141
13.49881138,-1.271605682,-0.9922865295,0.05807922363,1.613997139
13.50875138,-1.447190552,-1.25199646,0.54292099,1.989125142
13.51869038,-1.908980255,-1.628613281,1.165626068,2.766816034
13.52863038,-2.282603302,-1.911524963,1.197958832,3.209253945
13.53856937,-2.640509033,-2.149230652,0.8690927124,3.513801715
13.54850938,-2.920876007,-2.21030365,0.4323010254,3.688338793
13.55844837,-2.825224915,-2.036814423,-0.09639953613,3.484221818
13.56838838,-2.635718994,-1.776056671,-0.4745132446,3.213495719
13.57832737,-2.351011047,-1.564845886,-0.5646258545,2.880069087
13.58826638,-2.146685944,-1.569635925,-0.5126838684,2.708295078
13.59820637,-2.002835083,-1.794019318,-0.337098999,2.709887344
13.60814538,-2.002984772,-2.286644897,-0.1333726501,3.042775238
13.61808537,-1.789229279,-2.321821747,0.03742218018,2.931483934
13.62802438,-1.205592957,-1.858235779,0.2341131592,2.227398383
13.63796437,-0.1306782532,-1.201850739,0.9403445435,1.531590632
13.64790338,1.668131104,-0.4851411438,2.062111816,2.69635466
13.65784238,2.80471756,-0.3870950317,2.256258087,3.620356848
13.66778238,2.746039581,-0.1324745178,1.213975525,3.005331838
13.67772138,4.914580078,1.297501831,3.854634247,6.379248664
13.68766138,9.532776489,2.813698883,3.802542572,10.6419011
13.69760038,19.72927277,4.92954895,-1.583856354,20.3973836
13.70754038,39.13985825,12.49167343,-2.468367004,41.15899955
13.71747938,65.28972931,26.02098907,-3.791315918,70.38618261
13.72741837,79.27843964,36.27571426,-4.530179443,87.3013228
13.73735838,69.30917084,38.54469589,3.466042328,79.38178754
13.74729737,36.76774109,28.48052444,9.443412323,47.45719222
13.75723738,17.79274979,16.51350998,8.52641922,25.72892888
13.76717637,10.81695602,9.91298584,5.113516388,15.53775646
13.77711638,7.553143158,6.169270935,-0.02874023438,9.752471555
13.78705537,4.402195587,3.675307159,-3.33356781,6.633240765
13.79699538,1.869462433,1.957329712,-3.630400543,4.528337166
13.80693437,0.3793112183,1.161584473,-2.693947906,2.958126233
13.81687338,-0.9201365662,0.4972659302,-1.739832001,2.030009876
13.82681337,-1.768422546,-0.0549357605,-0.8093669128,1.945613281
13.83675238,-2.083367615,-0.549357605,0.0592767334,2.155395121
13.84669238,-2.227218475,-1.041534119,1.056353302,2.676037697
13.85663138,-2.324067078,-1.557062073,1.826801147,3.341097501
13.86657138,-2.44666214,-2.049687653,2.110461273,3.826411097
13.87651038,-2.58707016,-2.33664093,1.849254456,3.946208926
13.88644938,-2.753524017,-2.323618011,1.203796692,3.798713157
13.89638938,-3.032543793,-2.286195831,0.3864962769,3.817380333
13.90632838,-3.35467392,-2.318678284,-0.4712200928,4.10513757
13.91626838,-3.356021118,-2.331701202,-0.7798782349,4.160278633
13.92620738,-3.167712708,-2.539169769,-0.55579422,4.097644949
13.93614738,-3.138673096,-3.095862122,-0.2811154175,4.417539695
13.94608638,-2.975213013,-3.669469299,0.1037342834,4.72521515
13.95602538,-2.846181335,-4.135749664,0.1728904724,5.023451462
13.96596538,-2.797083435,-4.288432159,-0.0853225708,5.120703669
13.97590438,-2.421065369,-3.820654907,-0.1766326904,4.526605853
13.98584438,-1.806742859,-3.212918701,-0.1806742859,3.690502613
13.99578338,-1.055904236,-1.833237762,0.09131011963,2.117553302
14.00572338,0.2489323425,1.441203003,2.139949951,2.591991358
14.01566238,2.558180237,3.112178192,5.613327026,6.909368967
14.02560238,3.050506439,0.1326242065,3.280278625,4.481451392
14.03554138,2.352657623,-1.233135681,0.5680686951,2.716306968
14.04548038,3.903582458,-0.3480262756,1.131946106,4.079262223
14.05542038,8.073311462,0.3070115662,0.3474275208,8.086613627
14.06535938,20.25947021,1.623074799,-0.3911366272,20.32814534
14.07529938,42.59557205,6.86607193,-2.289938049,43.20612825
14.08523838,65.3960083,21.54933792,-0.563278656,68.85731006
14.09517838,71.75673111,35.64387817,-3.251837769,80.18783548
14.10511738,66.09355774,43.8954689,-2.050735474,79.36860891
14.11505638,42.75499054,33.12027603,6.990463257,54.53263681
14.12499638,20.52606583,17.31554214,13.52976471,30.0699503
14.13493538,10.35711227,10.4403392,11.34041748,18.57082459
14.14487538,7.596103821,6.280789032,5.248685303,11.16681698
14.15481438,5.115162964,3.489693146,1.607357483,6.39737825
14.16475438,2.162552948,1.47084137,-0.627046051,2.689460232
14.17469338,-0.3079096985,-0.06616241455,-1.628313904,1.658490885
14.18463337,-1.648222504,-0.6526428223,-1.768123169,2.503765088
14.19457238,-1.969903564,-0.75353302,-1.611099701,2.654048664
14.20451138,-1.950294342,-0.909508667,-1.285526733,2.506677685
14.21445138,-1.79252243,-1.088386688,-1.293759613,2.464048738
14.22439038,-1.774859161,-1.283880157,-1.131946106,2.465720034
14.23433038,-2.067051544,-1.573677521,-0.9885443115,2.779637185
14.24426938,-2.69589386,-2.024090881,-0.8707392883,3.481806213
14.25420938,-3.934867401,-3.019371185,-0.7743397522,5.01989899
14.26414838,-4.689897308,-3.654500427,-1.376238098,6.102830609
14.27408738,-4.701273651,-3.748055878,-1.786235504,6.272203288
14.28402738,-4.505780182,-3.688030701,-1.323847046,5.971280976
14.29396638,-4.512366486,-3.645668793,-0.877325592,5.867030973
14.30390638,-4.394112396,-3.654650116,-0.5559439087,5.742278716
14.31384537,-3.860172729,-3.630849609,-0.3996688843,5.314483757
14.32378538,-3.115022278,-3.42712326,-0.4489164734,4.652962888
14.33372437,-2.983445892,-3.404370575,-0.2281256104,4.532408819
14.34366438,-2.797233124,-3.434757385,-0.2983296204,4.439715307
14.35360337,-0.8825646973,-0.5917195129,1.992805939,2.258390563
14.36354238,1.442550201,2.55428833,9.081914063,9.543924926
14.37348237,2.285447388,0.02874023438,3.579805756,4.247246757
14.38342138,2.517015839,-0.8047265625,0.5158273315,2.692402535
14.39336137,2.866389313,0.07544311523,0.7550299072,2.965122176
14.40330038,3.871399384,0.463585968,0.5644761658,3.93970538
14.41324067,6.901248779,1.501677246,-1.204844513,7.164769331
14.42317967,21.68525528,3.817661133,-4.116140442,22.40016619
14.43311867,49.53469208,10.83207458,-6.499933319,51.12013979
14.44305867,76.14994537,23.3557814,-0.15328125,79.65130382
14.45299767,76.64421753,36.84752518,9.23309967,85.54137199
14.46293767,56.11216415,35.15200104,1.481918335,66.23016099
14.47287667,37.44268753,25.60201035,3.588936768,45.50053022
14.48281667,20.74850327,17.7514357,8.284671936,28.53505995
14.49275567,8.970096588,10.91859467,9.91059082,17.25972632
14.50269567,4.108057251,5.966592407,7.919730835,10.73305622
14.51263467,2.163600769,3.243904266,3.423830109,5.189093928
14.52257367,0.4240681458,1.628164215,0.1889071655,1.693055941
14.53251367,-1.236877899,0.2630030823,-1.357227631,1.855021402
14.54245267,-2.127076721,-0.679586792,-1.868713989,2.911766742
14.55239267,-2.575843506,-1.443298645,-1.326691132,3.23700326
14.56233167,-2.580334167,-1.807640991,-0.5739065552,3.20235212
14.57227167,-2.342329102,-2.087858276,0.06376739502,3.138427008
14.58221067,-2.146536255,-2.392923889,0.2011816406,3.220896876
14.59214967,-2.12722641,-2.745141449,-0.03772155762,3.473084607
14.60208967,-2.326761475,-3.051853638,-0.233664093,3.844766377
14.61202867,-2.746338959,-3.4611026,-0.3561094666,4.432654153
14.62196867,-3.389551392,-4.018842773,-0.679586792,5.301131396
14.63190767,-3.78053833,-4.280049591,-0.6879693604,5.751921106
14.64184767,-3.575315094,-4.093238068,-0.6589297485,5.474638281
14.65178667,-3.161126404,-4.066892853,-0.4926255798,5.174458192
14.66172667,-2.847378845,-4.538112946,-0.2071691895,5.361432128
14.67166567,-2.49935257,-5.010829926,0.3582051086,5.611015123
14.68160467,-1.983375549,-5.079537048,0.9865983582,5.541556777
14.69154467,-1.76453064,-4.99511261,0.8190966797,5.360563192
14.70148367,-1.496138763,-4.391567688,-0.103434906,4.640581509
14.71142367,-0.5245092773,-0.933608551,0.4906796265,1.177922495
14.72136267,0.2977308655,2.190095673,3.300935669,3.972573349
14.73130267,1.862427063,1.180744629,3.907923431,4.48716592
14.74124167,3.148253174,-0.9809101868,1.288670197,3.540388922
14.75118167,4.864284668,-0.3941304016,1.439706116,5.088158587
14.76112067,7.756719818,0.1704954529,1.601070557,7.922070308
14.77105967,14.84732483,1.653012543,1.214723969,14.98836413
14.78099967,28.78065033,6.076014862,-0.6815327454,29.42292094
14.79093867,53.87476685,17.42047394,-2.960244141,56.69855783
14.80087867,73.29837524,31.69089844,-3.927532654,79.95242567
14.81081767,75.1476297,40.40353043,-2.517015839,85.35775822
14.82075767,54.4287648,36.28948563,-0.3004252625,65.41794448
14.83069667,27.02674759,26.04928024,8.004005585,38.38064866
14.84063567,9.972711639,18.81512375,14.15291885,25.56890634
14.85057567,4.051624603,11.01215012,10.30457153,15.61625136
14.86051467,4.660558319,6.511309662,2.756218414,8.468453065
14.87045467,3.595822449,4.174369354,-1.169817352,5.632385927
14.88039367,1.46141098,1.95403656,-2.359094238,3.394010394
14.89033367,-0.1987866211,0.3851490784,-1.955084381,2.002551091
14.90027267,-1.436412964,-0.6505471802,-0.6159690857,1.692900396
