Time (s),Acceleration x (m/s^2),Acceleration y (m/s^2),Acceleration z (m/s^2),Absolute acceleration (m/s^2)
24.85063167,-8.092172241,-0.3308120728,3.950135651,9.010896729
24.86057167,-8.245902557,-0.0845741272,4.174369354,9.242695563
24.87051067,-8.371341705,0.1904040527,4.317920837,9.421255543
24.88045067,-8.377628632,0.4555027771,4.199067993,9.382127492
24.89038967,-8.668773193,0.5135820007,3.888613586,9.51486788
24.90032967,-9.187294922,0.3674858093,3.43415863,9.815033332
24.91026867,-9.816137238,0.01257385254,3.07610321,10.28684205
24.92020867,-10.49302963,-0.8652008057,2.918480988,10.92564756
24.93014767,-11.21662491,-2.091600494,3.025658112,11.80432438
24.94008767,-12.02599182,-3.152294769,3.529959412,12.92370129
24.95002667,-12.46218475,-3.644171906,4.407883759,13.71187357
24.95996667,-11.98886902,-3.203039246,5.367987213,13.52064079
24.96990567,-11.10331055,-2.014660492,6.191574554,12.87159499
24.97984567,-10.79300583,-0.6429130554,6.971153412,12.86465281
24.98978467,-11.16722763,0.5806425476,7.78111908,13.62313961
24.99972467,-12.28195953,1.370549927,8.343349915,14.91094983
25.00966367,-13.511353,1.511407013,7.295678558,15.4294503
25.01960367,-14.13555496,1.057251434,5.227728882,15.10830381
25.02954267,-13.89725052,0.1044827271,3.528612213,14.33860498
25.03948267,-13.24385925,-1.200802917,2.204316101,13.47964187
25.04942167,-12.53448441,-1.967508545,1.120420074,12.73733608
25.05936167,-11.27350662,-1.99026123,0.2845582581,11.45137829
25.06930067,-9.946366425,-1.484762421,-0.2782713318,10.06042541
25.07924067,-9.174721069,-0.6408174133,-0.7415579224,9.226920494
25.08917967,-8.939859467,0.1911524963,-1.245410156,9.028215384
25.09911967,-9.043893127,0.8982820129,-1.711989899,9.248233501
25.10905867,-9.286089478,1.522034912,-2.117047577,9.645202875
25.11899867,-9.814790039,2.054926758,-2.591111755,10.35696324
25.12893767,-10.49781967,2.370919647,-3.08897644,11.19675191
25.13887767,-10.87488556,2.461930389,-3.48924408,11.68328128
25.14881667,-10.81515976,2.37406311,-3.632945251,11.65341785
25.15875667,-10.54512131,2.167342987,-3.462898865,11.30878541
25.16869567,-10.13811768,1.671873322,-3.119812317,10.73824098
25.17863567,-9.698332214,0.9553134155,-2.665057983,10.10310871
25.18857567,-9.354048157,0.196690979,-2.111658783,9.591454899
25.19851492,-9.102720795,-0.5325924683,-1.541644135,9.247694158
25.20845492,-8.866212616,-1.232387238,-1.204245758,9.032093462
25.21839392,-8.437204742,-1.893712006,-0.8018824768,8.684214676
25.22833392,-7.984246674,-2.492766266,-0.2192939758,8.367207924
25.23827292,-7.769593048,-2.978057098,0.6457571411,8.345801489
25.24821292,-7.725883942,-3.293151855,1.410965881,8.516158555
25.25815192,-7.689509583,-3.297492828,2.18919754,8.648387274
25.26809192,-7.728728027,-2.870730286,2.923869781,8.747762216
25.27803092,-7.550149384,-1.990111542,3.697012024,8.639050733
25.28797092,-7.153474274,-0.9692344666,4.383783875,8.445659873
25.29790992,-6.898105316,-0.120050354,4.847220154,8.431714669
25.30784992,-6.524631958,0.770148468,5.118306427,8.328325854
25.31778892,-6.03410202,1.857487335,5.443879395,8.336454237
25.32772892,-5.611081696,2.635269928,5.629643097,8.373874061
25.33766792,-5.966442719,2.529889069,4.701722717,8.006558182
25.34760792,-6.894512787,1.878892822,3.449127502,7.93479838
25.35754692,-7.436236267,1.043330383,3.038531342,8.100544477
25.36748692,-7.813451843,0.3713777161,3.341052246,8.505914485
25.37742592,-8.035739594,-0.02409988403,3.734434204,8.8611337
25.38736592,-8.068072357,-0.3294648743,4.048331451,9.032791717
25.39730492,-8.094267883,-0.6048921204,4.308041382,9.189248478
25.40724492,-8.0993573,-0.818946991,4.583768005,9.342440365
25.41718392,-8.2771875,-0.883762207,4.750970306,9.584601578
25.42712392,-8.505911865,-0.8267308044,4.690795441,9.748722088
25.43706292,-8.818312225,-0.7197033691,4.276157684,9.826806602
25.44700292,-9.427994385,-0.4320016479,3.688180389,10.13293532
25.45694192,-10.00145187,0.07544311523,3.261717224,10.52014879
25.46688192,-10.54706726,0.9424401855,3.157683563,11.04987723
25.47682092,-11.25284958,2.154918823,3.085832977,11.86560845
25.48676092,-11.78155014,3.122806091,3.244203644,12.61275937
25.49669992,-11.50417694,3.66467926,3.902384949,12.6887576
25.50663992,-11.24162292,2.873125305,4.973108368,12.62381645
25.51657892,-11.06379272,1.066532135,5.913901978,12.59044228
25.52651892,-11.32140701,-0.4031117249,6.684050446,13.15345149
25.53645792,-12.59810211,-1.325194244,7.110513611,14.52679319
25.54639792,-14.11295197,-1.870659943,6.691834259,15.73071605
25.55633692,-15.20044052,-2.437381439,5.329068146,16.29089278
25.56627692,-15.71581879,-2.757715302,3.432961121,16.3210654
25.57621592,-14.66515366,-1.897005157,1.629511414,14.87685006
25.58615592,-12.58777359,-0.6782395935,0.5986051941,12.62023697
25.59609492,-10.45979874,-0.2080673218,0.1740879822,10.46331631
25.60603492,-8.794960785,-0.2803669739,-0.1612147522,8.800905126
25.61597392,-7.738308105,-0.4423301697,-0.5210664368,7.768434755
25.62591392,-7.227869568,-0.6010002136,-0.9187893677,7.31077791
25.63585292,-7.389683075,-0.8976832581,-1.355581055,7.566429222
25.64579292,-8.345295868,-1.215322723,-1.813179474,8.626041517
25.65573192,-9.572593689,-1.383872223,-2.261347504,9.932942404
25.66567192,-10.58598633,-1.455273743,-2.561024323,10.98816517
25.67561092,-11.20285355,-1.465602264,-2.525997162,11.57724403
25.68555092,-11.5047757,-1.39000946,-2.108066254,11.77862188
25.69548992,-11.50163223,-1.134490814,-1.422940979,11.64471444
25.70542992,-11.24222168,-0.8116122437,-0.722996521,11.29464416
25.71536892,-10.83372116,-0.4634362793,0.05104385376,10.84374902
25.72530892,-10.45006897,-0.08397537231,0.9689350891,10.49522885
25.73524792,-10.09425888,0.3026705933,1.872306519,10.27089108
25.74518792,-9.557924194,0.7662565613,2.563419342,9.92533036
25.75512692,-8.811576233,1.007854156,3.021017761,9.369428692
25.76506692,-8.165968781,1.101708984,3.24001236,8.854066235
25.77500592,-7.500003662,1.175056458,3.292253723,8.274644838
25.78494592,-6.970854034,1.057251434,3.1744487,7.732251361
25.79488492,-6.727460175,0.7219487,2.963387604,7.386582188
25.80482492,-6.684798889,0.3984713745,2.684966583,7.214870836
25.81476392,-6.730903015,0.0845741272,2.392325134,7.143908435
25.82470392,-6.752458191,-0.1459465027,2.165696411,7.092759191
25.83464292,-6.819967804,-0.3456312561,1.929786987,7.096160908
25.84458292,-6.980134735,-0.6295907593,1.732048187,7.219325202
25.85452192,-7.26738739,-0.8975335693,1.682501221,7.513407772
25.86446192,-7.426057434,-1.104852448,1.726210327,7.703689378
25.87440092,-7.532935181,-1.224753113,1.795366516,7.84018326
25.88434092,-7.567513275,-1.2063414,1.982627106,7.91538546
25.89427992,-7.505242767,-1.020577698,2.206262054,7.889096278
25.90421992,-7.509134674,-0.7334747314,2.482437744,7.942769409
25.91415892,-7.690108337,-0.4996609497,2.888692932,8.229943752
25.92409892,-7.946824493,-0.228874054,3.292253723,8.604843836
25.93403792,-8.138276367,0.1805245972,3.713178406,8.947168559
25.94397792,-8.239166565,0.5758525085,4.134851532,9.236474922
25.95391692,-8.401129761,0.8259823608,4.519252167,9.575221578
25.96385692,-8.586444397,0.8833131409,4.802313538,9.877726702
25.97379592,-8.859177246,0.6084846497,4.904401245,10.14437907
25.98373592,-9.468260651,-0.173638916,4.652475128,10.55100161
25.99367492,-10.2333197,-0.9870474243,4.062851257,11.05449479
26.00361492,-10.90167984,-1.597627716,3.462449799,11.5493548
26.01355392,-11.45732437,-2.17871933,3.100502472,12.06773447
26.02349392,-11.72721313,-2.740052032,2.9966185,12.41028346
26.03343292,-11.81298477,-2.867287445,3.373235321,12.61533444
26.04337292,-11.60222305,-2.107916565,4.361929321,12.57303939
26.05331192,-11.13758926,-1.209185486,5.708229675,12.57346055
26.06325192,-10.91784622,-0.8104147339,7.405250702,13.2171811
26.07319092,-11.37349869,-0.5977070618,8.748557281,14.36144076
26.08313092,-12.56487122,-0.1910028076,8.431815948,15.13300998
26.09307092,-14.20171738,-0.09535171509,6.744973755,15.72235795
26.10300992,-15.30177979,-0.6240522766,5.047204285,16.12476905
26.11294992,-15.1781369,-1.562301178,3.617677002,15.68133322
26.12288892,-13.74022705,-2.409090271,2.442620544,14.16206025
26.13282792,-11.67931274,-2.662662964,1.435963898,12.06474668
26.14276792,-10.20263351,-2.409689026,0.6246510315,10.50192938
26.15270792,-9.222322083,-1.643582153,0.04355941772,9.367736349
26.16264692,-8.437354431,-0.4254153442,-0.3668870544,8.456035367
26.17258692,-7.966583405,0.7565267944,-0.6959028625,8.032625021
26.18252592,-8.180488586,1.649719391,-1.037941589,8.409476222
26.19246592,-9.113648071,2.280357971,-1.350791016,9.491219627
26.20240537,-10.34648438,2.764002228,-1.572180634,10.8241027
26.21234538,-11.19042938,3.057541809,-1.815724182,11.7418536
26.22228437,-11.51330795,3.132685547,-2.129771118,12.12047457
26.23222438,-11.36182297,2.933000793,-2.315534821,11.96056923
26.24216337,-10.71950867,2.40684494,-2.307900696,11.22618253
26.25210338,-9.991722107,1.736987915,-2.286794586,10.39620446
26.26204237,-9.52798645,1.121168518,-2.331551514,9.872977114
26.27198238,-9.288334808,0.5700146484,-2.368824005,9.602572956
26.28192137,-9.093140717,0.04834945679,-2.244133301,9.366092036
26.29186138,-8.93357254,-0.3763174438,-1.947300568,9.151082595
26.30180037,-8.624465332,-0.7809260559,-1.348395996,8.76409833
26.31174038,-8.233628082,-1.180445251,-0.5894741821,8.338678684
26.32167937,-7.937992859,-1.46141098,0.1520837402,8.072829872
26.33161938,-7.66870285,-1.630559235,1.037342834,7.908464262
26.34155837,-7.594008179,-1.712289276,2.148033142,8.075576832
26.35149838,-7.519463196,-1.823358307,3.192261658,8.370035649
26.36143737,-7.39492218,-1.978136444,3.965852966,8.62124629
26.37137738,-7.381599884,-1.828148346,4.518054657,8.845505136
26.38131637,-7.35869751,-1.298998718,4.672234039,8.812922196
26.39125638,-7.232659607,-0.5548960876,4.731959839,8.660872853
26.40119537,-6.715634766,0.3388952637,5.344635773,8.589512899
26.41113538,-6.040538635,0.9859996033,5.676795044,8.347832305
26.42107437,-6.540049896,1.161434784,4.096980286,7.804257227
26.43101438,-7.430997162,1.213975525,2.891986084,8.065794375
26.44095337,-7.826325073,1.300645294,2.755020905,8.39840357
26.45089338,-8.107141113,1.191671906,3.112776947,8.765568965
26.46083237,-8.196954346,0.9671388245,3.518134003,8.972328846
26.47077238,-8.025411072,0.7337741089,3.775448914,8.899419184
26.48071137,-7.941136322,0.4194277954,3.996389465,8.899926658
26.49065138,-8.106542358,-0.07005432129,4.241429901,9.149353213
26.50059037,-8.290958862,-0.5718109131,4.407434692,9.407042423
26.51053038,-8.442443848,-0.9264234924,4.393363953,9.562152761
26.52046937,-8.771908722,-1.20873642,4.218976593,9.808526385
26.53040938,-9.329948273,-1.244062958,3.99234787,10.22420994
26.54034837,-9.932595062,-0.7216493225,3.80628479,10.66138013
26.55028838,-10.46488815,0.4495152283,3.847898254,11.15895465
26.56022737,-11.11812973,1.702709198,3.90807312,11.90735331
26.57016738,-11.65910477,2.863694916,3.90343277,12.62427265
26.58010637,-11.59907959,3.908372498,3.890260162,12.84321405
26.59004638,-11.15360596,4.5586203,4.107608185,12.73013707
26.59998538,-10.60035645,4.034709778,4.896916809,12.35419904
26.60992537,-10.68627777,1.536255341,5.806724854,12.2586568
26.61986438,-11.43891266,-0.5535488892,6.668931885,13.25253907
26.62980437,-12.81754578,-1.915117493,6.863078156,14.66488992
26.63974338,-14.5398642,-3.050057373,5.668412476,15.90098742
26.64968337,-16.04094269,-3.862717438,3.533402252,16.87356986
26.65962238,-16.63745224,-3.740571442,1.521885223,17.12053815
26.66956237,-14.89657242,-2.466271362,0.1157093811,15.09979314
26.67950138,-12.08407104,-1.190773773,-0.5804928589,12.15646689
26.68944137,-10.10533585,-0.3597019958,-0.9514215088,10.15639705
26.69938038,-8.528664551,0.2662962341,-1.203946381,8.617338312
26.70932037,-7.17263443,0.5885760498,-1.318607941,7.316545177
26.71925938,-6.159541168,0.3811074829,-1.376836853,6.323042783
26.72919937,-5.977369995,-0.2109114075,-1.585802307,6.187746329
26.73913838,-6.89645874,-0.905766449,-2.017354889,7.24232537
26.74907837,-8.283324738,-1.31756012,-2.476150818,8.745327681
26.75901738,-9.575138397,-1.50826355,-2.827320557,10.09712215
26.76895737,-10.70079758,-1.6907341,-3.007845154,11.24334394
26.77889638,-11.60581558,-1.78668457,-2.979853363,12.11473166
26.78883637,-12.03632034,-1.761985931,-2.595752106,12.43846979
26.79877538,-12.05039108,-1.556463318,-1.727856903,12.27273371
26.80871537,-12.04290665,-1.122665405,-0.3606001282,12.10049629
26.81865438,-11.67811523,-0.5610333252,0.7890092468,11.71817688
26.82859437,-11.09702362,0.03742218018,1.645677795,11.2184486
26.83853338,-10.3342099,0.5060975647,2.375410309,10.61577143
26.84847337,-9.599986725,0.7966433716,3.179687805,10.14420033
26.85841238,-8.917106781,0.8732839966,3.903283081,9.773077156
26.86835237,-8.125403137,0.7084767151,4.192930756,9.170866029
26.87829237,-7.391179962,0.4516108704,4.240082703,8.532982769
26.88823137,-6.817872162,0.2302212524,4.095782776,7.95687245
26.89817138,-6.635850677,-0.03592529297,3.689976654,7.5928738
26.90811037,-6.857689362,-0.2421963501,3.186872864,7.565891957
26.91804938,-7.117249603,-0.2781216431,2.751877441,7.63579878
26.92798937,-7.264243927,-0.274379425,2.338437195,7.636282631
26.93792938,-7.428302765,-0.2869532776,1.980681152,7.693186724
26.94786837,-7.569459229,-0.3861968994,1.774260406,7.784205871
26.95780838,-7.646848297,-0.5629792786,1.768572235,7.868867917
26.96774737,-7.676486664,-0.7659571838,1.9083815,7.94714149
26.97768738,-7.717800751,-0.829125824,2.141895905,8.052305019
26.98762637,-7.652835846,-0.7949967957,2.461631012,8.078214136
26.99756638,-7.548951874,-0.6963519287,2.881058807,8.109998783
27.00750537,-7.50494339,-0.5203179932,3.290457458,8.211091059
27.01744538,-7.531138916,-0.2912942505,3.693718872,8.393239233
27.02738437,-7.548053741,-0.0889151001,4.104464722,8.592301894
27.03732438,-7.546107788,0.04760101318,4.446054382,8.758619079
27.04726337,-7.641459503,0.199385376,4.676575012,8.961138974
27.05720338,-7.763156433,0.3505709839,4.682562561,9.072810477
27.06714237,-8.121211853,0.3191363525,4.331093445,9.209467976
27.07708238,-8.752748566,-0.02799179077,3.735182648,9.516458396
27.08702137,-9.539512482,-0.5008584595,3.155587921,10.06036245
27.09696138,-10.25816803,-1.088686066,2.670895844,10.65593418
27.10690037,-10.84225342,-1.729802856,2.393822021,11.23730666
27.11684038,-11.41990219,-2.135758667,2.575095062,11.89986326
27.12677937,-11.76298874,-1.952689362,3.455115051,12.41445608
27.13671938,-11.40628052,-1.238674164,4.861889648,12.46095983
27.14665837,-10.66816544,-0.3394940186,6.524033203,12.50951714
27.15659838,-10.18092865,0.6899153137,8.580756226,13.33254172
27.16653737,-10.40366547,1.421893158,9.553134155,14.19578837
27.17647738,-12.16445389,1.003812561,8.280181274,14.74933829
27.18641637,-14.36547684,0.1681004333,6.518794098,15.7762435
27.19635638,-15.84006042,-0.5224136353,5.00559082,16.6203601
27.20629529,-15.87763229,-1.360969849,3.629951477,16.34405072
27.21623529,-14.62054642,-2.196681976,2.381697235,14.97525529
27.22617429,-12.56217682,-2.669848022,1.339863739,12.91245948
27.23611429,-10.80213684,-2.6303302,0.6397695923,11.13616193
27.24605329,-9.551337891,-2.174977112,0.1402583313,9.796849154
27.25599329,-8.76277771,-1.321302338,-0.2499801636,8.86535973
27.26593229,-8.210875397,-0.2707868958,-0.6421646118,8.240399002
27.27587229,-8.04906189,0.7219487,-1.101409607,8.156084254
27.28581129,-8.314759369,1.483564911,-1.529669037,8.583476893
27.29575129,-8.959319,2.021396484,-1.864522705,9.371866709
27.30569029,-9.81239502,2.386636963,-2.232457581,10.34229176
27.31563029,-10.57954971,2.642904053,-2.639910278,11.21966756
27.32556929,-10.79884369,2.666255493,-2.986888733,11.51718054
27.33550929,-10.63837738,2.37181778,-3.12879364,11.33975055
27.34544829,-10.2878064,1.848955078,-3.146756287,10.91602814
27.35538829,-9.872869263,1.307231598,-3.086880798,10.426468
27.36532729,-9.653724976,0.7583230591,-2.767145691,10.07107517
27.37526729,-9.674831085,0.1749861145,-2.19743042,9.922785754
27.38520629,-9.481582947,-0.2701881409,-1.488804016,9.601559988
27.39514629,-9.135951691,-0.6491999817,-0.9172924805,9.204808494
27.40508529,-8.741372223,-1.073118439,-0.4528083801,8.818628405
27.41502529,-8.267008667,-1.441801758,0.1197509766,8.392649457
27.42496429,-7.936795349,-1.729653168,0.7018904114,8.153347205
27.43490429,-7.752528534,-1.960622864,1.471440125,8.130859532
27.44484329,-7.615862732,-2.043999481,2.418670349,8.247985529
27.45478329,-7.717501373,-1.901046753,3.425476685,8.654923265
27.46472229,-7.868387604,-1.476978607,4.3516008,9.112048003
27.47466229,-7.785609741,-0.8196954346,4.684209137,9.123016765
27.48460129,-7.467072144,-0.008981323242,4.836292877,8.896458613
27.49454129,-7.014413452,0.8381071472,4.985831909,8.646556511
27.50448029,-6.563700714,1.711690521,5.130131836,8.504722462
27.51442029,-6.295608215,2.344724121,4.730912018,8.216686834
27.52435929,-6.669380951,2.34951416,3.492836609,7.886746264
27.53429929,-7.131919098,1.993704071,2.648891602,7.864842825
27.54423929,-7.394772491,1.368304596,2.622097321,7.964314913
27.55417829,-7.702233124,0.6499484253,3.231180725,8.377789501
27.56411829,-7.860454102,0.02424957275,4.015549622,8.826775486
27.57405729,-7.952063599,-0.4071533203,4.694687347,9.24343976
27.58399629,-8.170309753,-0.7093748474,5.21276001,9.717512082
27.59393629,-8.461304626,-0.8491841125,5.521717529,10.13923834
27.60387629,-8.806786194,-0.8018824768,5.477409668,10.40213994
27.61381529,-9.125922546,-0.6078858948,4.939727783,10.3948496
27.62375529,-9.396859131,-0.2281256104,4.040547638,10.23127695
27.63369429,-9.583221588,0.264200592,3.152294769,10.09182344
27.64363429,-9.780960388,0.7806266785,2.542163544,10.13603274
27.65357329,-10.10982651,1.444196777,2.457739105,10.50403626
27.66351329,-10.81965042,2.21733902,3.090623016,11.46880021
27.67345229,-11.42005188,2.737507324,4.293970642,12.50398797
27.68339229,-11.5445929,2.674488373,5.419629822,13.0308442
27.69333129,-11.44834305,2.03127594,6.117478638,13.13827178
27.70327129,-11.29551086,1.223555603,6.240223389,12.96248595
27.71321029,-11.67317551,0.4044589233,5.982758789,13.12326241
27.72315029,-12.83820282,-0.2484832764,5.57081543,13.99697039
27.73308929,-14.19108948,-0.7499404907,4.540507965,14.91863412
27.74302929,-15.30297729,-1.15140564,3.025059357,15.6415419
27.75296829,-15.81850525,-1.321901093,1.787133636,15.97392805
27.76290829,-14.80017288,-0.8580157471,1.099313965,14.86572567
27.77284729,-12.29707809,-0.07828720093,0.7424560547,12.31971995
27.78278729,-10.00429596,0.08277786255,0.526305542,10.01847231
27.79272629,-8.17539917,-0.3320095825,0.2375559998,8.185585795
27.80266629,-6.986122284,-1.082548828,-0.1248403931,7.070601223
27.81260529,-6.725963287,-1.864971771,-0.4387376404,6.993510747
27.82254529,-7.593409424,-2.526595917,-0.7896080017,8.041581586
27.83248429,-8.869356079,-2.911894684,-1.211281128,9.413384613
27.84242429,-10.10398865,-2.91114624,-1.627715149,10.64024509
27.85236329,-11.2844339,-2.634521484,-1.925446014,11.74676527
27.86230329,-12.23211319,-1.930385742,-1.866169281,12.52332104
27.87224229,-12.30546066,-0.9330097961,-1.242117004,12.40313364
27.88218229,-11.76972473,-0.07200027466,-0.2420466614,11.77243352
27.89212129,-11.27919479,0.5454656982,0.8364605713,11.32331375
27.90206129,-10.76321777,0.9939331055,1.846709747,10.96563253
27.91200029,-10.05893234,1.36785553,2.654280396,10.49277623
27.92194029,-9.282946014,1.49539032,3.210373993,9.935581517
27.93187929,-8.624165955,1.410217438,3.518283691,9.420364736
27.94181929,-7.946375427,1.184037781,3.576662292,8.794278882
27.95175829,-7.488477631,0.7710466003,3.486100616,8.29606579
27.96169829,-7.286397858,0.2318678284,3.169209595,7.949166364
27.97163729,-7.072642365,-0.2212399292,2.669398956,7.562863737
27.98157729,-6.958280182,-0.4837939453,2.269131317,7.334894451
27.99151629,-6.924151154,-0.5101391602,2.017953644,7.230231536
28.00145629,-6.932234344,-0.457149353,1.80898819,7.178948169
28.01139529,-6.971901855,-0.4465214539,1.626966705,7.173131642
28.02133529,-6.895859985,-0.5795947266,1.491199036,7.079017555
28.03127429,-6.932982788,-0.752485199,1.421294403,7.117061338
28.04121429,-7.138056335,-0.887504425,1.48131958,7.343964873
28.05115329,-7.368576965,-1.008003845,1.715432739,7.632477169
28.06109329,-7.534731445,-0.9942324829,2.082319794,7.880147962
28.07103229,-7.50374588,-0.866098938,2.54725296,7.971500941
28.08097229,-7.419620819,-0.7424560547,3.068618774,8.063400974
28.09091129,-7.392078094,-0.6553372192,3.548371124,8.225765804
28.10085129,-7.451504517,-0.6384223938,4.004772034,8.483554783
28.11079029,-7.523804169,-0.5445675659,4.408482513,8.737213576
28.12073029,-7.619305573,-0.2287243652,4.676125946,8.942722522
28.13066929,-7.826474762,0.1477427673,4.74588089,9.154175034
28.14060929,-8.067323914,0.4052073669,4.549189911,9.270438878
28.15054929,-8.333620148,0.4318519592,4.105063477,9.299853065
28.16048829,-8.755293274,0.2993774414,3.65300354,9.491534229
28.17042829,-9.25540329,0.02619552612,3.286116486,9.821493665
28.18036729,-9.842033386,-0.4857398987,2.963088226,10.28987154
28.19030729,-10.49093399,-1.18298996,2.758463745,10.91184143
28.20024587,-11.07786346,-1.908531189,2.813399506,11.58778525
28.21018588,-11.53216873,-2.375559998,3.345692596,12.24041911
28.22012487,-11.70071823,-2.288291473,4.407584381,12.71101432
28.23006488,-11.26781845,-1.768123169,5.69475769,12.74834332
28.24000387,-10.65110092,-1.203048248,6.995103607,12.7994043
28.24994388,-10.37163208,-0.4472698975,7.914940796,13.05438969
28.25988287,-10.92682755,0.44697052,7.856412506,13.46545804
28.26982288,-12.64300873,0.8090675354,7.146738281,14.54565667
28.27976187,-14.48657501,0.5628295898,5.963149567,15.67599392
28.28970188,-15.36629562,0.0773890686,4.578828278,16.03417284
28.29964087,-14.30769699,-0.77927948,3.269650726,14.69721353
28.30958088,-12.15472412,-1.93772049,2.111808472,12.48806687
28.31951987,-10.76920532,-2.34247879,1.142424316,11.08007777
28.32945988,-9.87780899,-1.952389984,0.3779640198,10.07600089
28.33939887,-9.09628418,-1.223405914,-0.1047821045,9.178784625
28.34933888,-8.873098297,-0.4213737488,-0.5292993164,8.898853128
28.35927787,-9.437275085,0.4885839844,-0.9815089417,9.500749189
28.36921788,-10.28062134,1.362466736,-1.456171875,10.47224557
28.37915687,-11.01274887,2.035317535,-1.942660217,11.36648951
28.38909688,-11.48995651,2.504142609,-2.438129883,12.00975887
28.39903587,-11.63799866,2.743943939,-2.977608032,12.32227214
28.40897588,-11.4688504,2.524200897,-3.376079407,12.2190029
28.41891487,-11.07951004,1.865271149,-3.435056763,11.74880395
28.42885488,-10.71142548,1.07880661,-3.108136597,11.20531002
28.43879387,-10.25756927,0.3213816833,-2.394420776,10.53822872
28.44873388,-9.870923309,-0.3493734741,-1.57023468,10.00114122
28.45867287,-9.542206879,-0.900377655,-0.8695417786,9.623954226
28.46861288,-9.229806519,-1.333427124,-0.1481918335,9.326806371
28.47855187,-8.845705261,-1.690285034,0.6092330933,9.02633536
28.48849188,-8.563092957,-1.904040527,1.390458527,8.881740045
28.49843087,-8.287965088,-1.858535156,2.232906647,8.782390923
28.50837088,-7.966284027,-1.583257599,3.161276093,8.715621169
28.51830987,-7.621700592,-1.254391479,4.059109039,8.725834292
28.52824988,-7.265291748,-1.043929138,4.797822876,8.768885709
28.53818887,-6.826853485,-0.8358618164,5.122048645,8.575545219
28.54812888,-6.379882965,-0.65758255,5.041067047,8.157676044
28.55806787,-6.199807434,-0.4734654236,4.756957855,7.828820458
28.56800788,-6.198460236,-0.06601272583,3.970942383,7.361633676
28.57794687,-6.566395111,0.6276448059,2.78944931,7.161878958
28.58788688,-6.856791229,1.147663422,1.981429596,7.229023484
28.59782588,-6.87430481,1.527274017,1.710792389,7.246753972
28.60776588,-6.744375,1.801204376,1.981130219,7.256432201
28.61770587,-6.784940643,1.637744293,2.649490356,7.465750133
28.62764487,-7.056326294,1.193168793,3.370840302,7.910623039
28.63758388,-7.309449921,0.7569758606,3.914809113,8.326271734
28.64752387,-7.623945923,0.3700305176,4.317771149,8.769528021
28.65746387,-7.820786591,0.0687071228,4.683161316,9.115998216
28.66740287,-8.010591888,-0.1246907043,5.004093933,9.44595608
28.67734287,-8.389004974,-0.043409729,5.176535339,9.857677565
28.68728187,-8.809929657,0.5921685791,5.002597046,10.14847286
28.69722187,-9.042096863,1.345851288,4.315675507,10.10919811
28.70716087,-9.05182663,1.67441803,3.603755951,9.885661234
28.71710087,-9.110654297,1.561852112,3.14046936,9.762476711
28.72703987,-9.3654245,1.235680389,2.9169841,9.886702095
28.73697987,-9.79832428,1.010249176,3.067271576,10.31677842
28.74691887,-10.31460068,0.8577163696,3.790268097,11.02237709
28.75685887,-10.80228653,0.7845185852,4.699327698,11.80629258
28.76679787,-11.13459549,0.7069798279,5.63278656,12.49829275
28.77673787,-11.27859604,0.6327342224,6.501280518,13.03356166
28.78667687,-11.24641296,0.6515950012,6.985224152,13.25517774
28.79661687,-11.50747009,0.4876858521,6.968459015,13.46176535
28.80655587,-12.1496347,0.1871109009,6.646927643,13.8502809
28.81649587,-12.98953812,-0.2585124207,5.774841156,14.21772554
28.82643487,-13.98631531,-0.9144483948,4.13739624,14.61407812
28.83637487,-14.93519211,-1.505419464,2.29802124,15.18575493
28.84631387,-14.94686783,-1.634900208,0.843046875,15.05963096
28.85625387,-13.30358505,-1.056053925,0.1037342834,13.34583778
28.86619287,-11.18459152,-0.5336402893,-0.22348526,11.19954486
28.87613287,-9.419911194,-0.520916748,-0.4385879517,9.444492604
28.88607187,-8.228239288,-0.6698570251,-0.7794291687,8.292173421
28.89601188,-7.703430634,-0.8120613098,-1.135538635,7.828903824
28.90595087,-7.904911652,-1.057401123,-1.461111603,8.108056023
28.91589088,-9.046587524,-1.155746613,-1.851799164,9.306215999
28.92582987,-10.5731131,-0.9144483948,-2.126927032,10.82362024
28.93576988,-11.84292252,-0.4007167053,-2.198178864,12.05186201
28.94570887,-12.58986923,0.1601669312,-1.933080139,12.73841668
28.95564888,-12.87397842,0.4863386536,-1.188378754,12.93785492
28.96558787,-12.48329086,0.4222718811,-0.1378633118,12.49119172
28.97552788,-11.60357025,-0.02365081787,0.6644682312,11.62260384
28.98546687,-10.85123474,-0.687071228,1.176703033,10.93645246
28.99540688,-10.32433044,-1.005309448,1.609752502,10.49732105
29.00534587,-9.627379761,-0.8408015442,2.080224152,9.885379144
29.01528588,-8.747659149,-0.435743866,2.518512726,9.11341427
29.02522487,-7.722141724,-0.1019380188,2.741099854,8.194845488
29.03516488,-6.714586945,0.1008901978,2.892135773,7.311655489
29.04510387,-6.201903076,0.2755769348,3.011437683,6.899876907
29.05504388,-6.134842529,0.3800596619,2.892884216,6.793343602
29.06498387,-6.324647827,0.343535614,2.507735138,6.812336044
29.07492288,-6.611451416,0.2805166626,2.135908356,6.953566274
29.08486187,-6.880591736,0.1595681763,1.838776245,7.123840447
29.09480188,-7.042405243,-0.01556762695,1.638193359,7.23044891
29.10474187,-7.092850342,-0.2324665833,1.558409271,7.265755717
29.11468088,-7.301217041,-0.45984375,1.62412262,7.493797491
29.12462087,-7.60089386,-0.662971344,1.768721924,7.832081187
29.13455988,-7.835456085,-0.8379574585,2.073637848,8.148405899
29.14449987,-7.957602081,-0.953966217,2.475402374,8.38815232
29.15443888,-7.916138306,-0.9862989807,2.876268768,8.480032629
29.16437887,-7.899971924,-0.9629475403,3.300336914,8.615628132
29.17431788,-7.906109161,-0.8791218567,3.734733582,8.787926504
29.18425787,-7.912845154,-0.832868042,4.130061493,8.964607941
29.19419688,-7.946225739,-0.7099736023,4.525239716,9.171933301
29.2041375,-7.931107178,-0.4966671753,4.866080933,9.318148045
29.2140765,-7.922724609,-0.2225871277,5.153183899,9.453804238
29.2240165,-7.962990875,0.03412902832,5.308411102,9.570246439
29.2339555,-8.07480835,0.2022294617,5.241200867,9.628790846
29.2438955,-8.399632874,0.1028361511,4.775219879,9.66266695
29.2538345,-9.03775589,-0.3698808289,3.932173004,9.86305368
29.2637745,-9.807155914,-0.7405101013,3.180585938,10.33657532
29.2737135,-10.45545776,-0.9858499146,2.61865448,10.82339357
29.2836535,-10.82833237,-1.370998993,2.303110657,11.15512164
29.2935925,-11.15315689,-1.826950836,2.32616272,11.53870404
29.3035325,-11.44011017,-1.882485352,2.83046402,11.93446263
29.3134715,-11.45403122,-1.386716309,3.82619339,12.15555713
29.3234115,-11.02053268,-0.7737409973,5.088817749,12.16334172
29.3333505,-10.49766998,-0.3155438232,6.741381226,12.47985832
29.3432905,-10.25203079,0.2040257263,9.152567139,13.74464431
29.3532295,-10.42372375,0.6309379578,10.78522202,15.01243197
29.3631695,-12.07583817,0.1300794983,9.148525543,15.1505217
29.3731085,-14.32580933,-0.8210426331,6.851402435,15.90108925
29.3830485,-15.26989609,-1.552421722,5.020410004,16.14881594
29.3929875,-14.42475357,-2.022893372,3.438798981,14.96632726
29.4029275,-12.41144028,-2.037413177,2.05821991,12.74484882
29.4128665,-10.76770844,-1.88622757,1.054706726,10.98243168
29.4228065,-9.660311279,-1.60885437,0.4203259277,9.802382378
29.4327455,-8.804391174,-1.087937622,-0.03996688843,8.871443489
29.4426855,-8.331524506,-0.3637435913,-0.4143383789,8.349747678
29.4526245,-8.375832367,0.5269042969,-0.8244854736,8.432791488
29.4625645,-8.751850433,1.332528992,-1.250200195,8.940554795
29.4725035,-9.395062866,1.923350372,-1.752405853,9.748713207
29.4824435,-10.22852966,2.311193848,-2.202220459,10.71513934
29.4923825,-10.85078568,2.417472839,-2.594853973,11.4156468
29.5023225,-11.09911926,2.198328552,-2.903661804,11.68136759
29.5122625,-11.0986702,1.751358032,-3.110980682,11.65872788
29.5222015,-10.92113937,1.20289856,-3.203188934,11.44459128
29.5321415,-10.70903046,0.5505551147,-3.223995667,11.19734756
29.5420805,-10.23376877,-0.17902771,-2.836900635,10.62120894
29.5520205,-9.555229797,-0.9139993286,-1.926493835,9.790259943
29.5619595,-9.112151184,-1.571581879,-1.185534668,9.322374228
29.5718995,-8.841663666,-2.034569092,-0.5204676819,9.087649552
29.5818385,-8.669371948,-2.24188797,0.3309617615,8.960670027
29.5917785,-8.374634857,-2.24069046,1.33043335,8.770704397
29.6017175,-8.231233063,-2.087259521,2.109862518,8.749935422
29.6116575,-8.148754578,-1.7796492,2.848127289,8.813692841
29.6215965,-7.951764221,-1.22160965,3.669169922,8.842267372
29.6315365,-7.618706818,-0.6497987366,4.374203796,8.809119753
29.6414755,-7.274722137,-0.3778143311,4.887785797,8.772387123
29.6514155,-7.056176605,0.1558259583,5.162763977,8.744600728
29.6613545,-6.750362549,0.9367520142,5.308261414,8.638433777
29.6712945,-6.143075409,1.562151489,5.325774994,8.278983757
29.6812335,-6.042185211,1.812580719,4.448000336,7.718688877
29.6911735,-6.742279358,1.506018219,3.233126678,7.627550717
29.7011125,-7.363786926,0.9839039612,2.841241608,7.95399766
29.7110525,-7.821385345,0.4996609497,3.106789398,8.430650636
29.7209915,-7.935897217,0.1580712891,3.617976379,8.723141879
29.7309315,-7.728578339,-0.1445993042,4.049229584,8.72628743
29.7408705,-7.444169769,-0.3622467041,4.409829712,8.659877847
29.7508105,-7.380102997,-0.4769082642,4.654421082,8.7382491
29.7607495,-7.540868683,-0.3752696228,4.799170074,8.946371398
29.7706895,-7.679480438,-0.2100132751,4.870122528,9.095967173
29.7806285,-7.999963989,0.02559677124,4.829856262,9.344923249
29.7905685,-8.49243988,0.2460882568,4.403542786,9.569393064
29.8005075,-9.096882935,0.6679110718,3.344644775,9.715247449
29.8104475,-9.455088043,1.142274628,2.362237701,9.812423156
