Time (s),Acceleration x (m/s^2),Acceleration y (m/s^2),Acceleration z (m/s^2),Absolute acceleration (m/s^2)
19.87824613,4.864733734,-10.12464569,3.616329803,11.80050532
19.88818512,4.41237442,-10.48614395,4.136498108,12.10532443
19.89812513,4.064497833,-10.6579866,4.656367035,12.32049411
19.90806412,3.976630554,-10.63224014,4.91547821,12.3701272
19.91800312,4.2719664,-10.43854294,4.862338715,12.28231303
19.92794312,4.960684204,-10.52955368,4.505780182,12.4812637
19.93788212,5.622158661,-11.28233826,3.936064911,13.20577266
19.94782212,5.783672791,-12.0952977,3.39089859,13.82914642
19.95776058,5.606740723,-12.7190506,2.45953537,14.11591669
19.96770058,5.566474457,-12.75153305,1.337019653,13.97765555
19.97763958,5.646108856,-11.94965057,1.245859222,13.27497116
19.98757958,5.899382172,-11.24207199,1.665436707,12.80470898
19.99751858,6.118825836,-10.59796143,1.458417206,12.32411444
20.00745858,5.529052277,-9.889484711,0.9011260986,11.36592958
20.01739758,4.764891357,-9.335037689,0.506995697,10.49305308
20.02733758,4.263733521,-9.310638428,0.9318122864,10.28278589
20.03727658,4.1432341,-8.834478607,0.1175056458,9.758494179
20.04721658,4.85230957,-8.648565216,-0.816252594,9.95031943
20.05715558,4.882846069,-9.352850647,-0.7560777283,10.57779062
20.06709558,4.950505371,-9.757010193,-0.4595443726,10.95070465
20.07703458,5.209317169,-10.15757721,-0.09220825195,11.41586013
20.08697458,4.916526031,-10.55095917,0.7966433716,11.66745937
20.09691358,4.180656281,-10.54616913,1.66274231,11.46578747
20.10685258,3.700754242,-10.2943927,2.0862117,11.13653367
20.11679258,3.732338562,-9.802665253,2.177372131,10.71277493
20.12673158,3.643722839,-9.337432709,2.399210815,10.3063368
20.13667158,3.419638824,-8.964558105,2.562970276,9.931064815
20.14661058,3.492387543,-8.513695679,2.22078186,9.466343377
20.15655058,3.456611938,-8.082592163,1.723366241,8.958038478
20.16648958,3.241658936,-7.655081177,1.545835419,8.455662459
20.17642958,3.108585663,-7.246880035,1.423689423,8.012956174
20.18636858,3.049308929,-6.905739441,1.46844635,7.69050433
20.19630858,2.978206787,-6.69991745,1.591041412,7.502667677
20.20624758,2.763403473,-6.600224762,1.819316711,7.383039954
20.21618758,2.275418243,-6.534361725,1.882485352,7.170715615
20.22612658,2.09324707,-6.618486786,1.981728973,7.218954243
20.23606658,2.013313293,-6.780150604,2.221829681,7.413528159
20.24600558,1.973645782,-6.696773987,2.366578674,7.371753803
20.25594558,1.872456207,-6.634204102,2.40564743,7.301088677
20.26588458,1.797761536,-6.744075623,2.519261169,7.420322054
20.27582358,1.702709198,-6.857988739,2.573747864,7.520332853
20.28576358,1.678160248,-6.994205475,2.538870392,7.627646748
20.29570258,1.686542816,-7.167844391,2.434687042,7.7556509
20.30564258,1.844763794,-7.423662415,2.251468048,7.973896505
20.31558158,1.960024109,-7.652835846,2.105820923,8.175700138
20.32552158,2.145189056,-7.656877441,1.982926483,8.195218464
20.33546058,2.208058319,-7.730823669,1.964215393,8.276430285
20.34540058,2.250719604,-7.819589081,2.298170929,8.455371178
20.35533958,2.192341003,-8.024662628,2.594255219,8.713881426
20.36527958,2.113305359,-8.362360382,2.798280945,9.067828127
20.37521858,2.279459839,-8.722361755,3.069666595,9.523569959
20.38515858,2.567460938,-8.974736938,3.341351624,9.914756147
20.39509758,2.877466278,-9.198671265,3.564687195,10.27630089
20.40503758,3.251239014,-9.434880066,3.689527588,10.63955501
20.41497658,3.51139801,-9.716594238,3.769311676,10.99771931
20.42491658,3.640878754,-10.0568367,3.880380707,11.37775536
20.43485558,3.794160004,-10.22358994,4.090843048,11.64699267
20.44479558,3.878434753,-10.00264938,4.249812469,11.53933087
20.45473458,3.593876495,-10.35426819,4.027225342,11.67670167
20.46467358,3.706592102,-11.39071289,3.565585327,12.4980224
20.47461358,4.318369904,-12.58043884,2.903961182,13.6142848
20.48455258,5.06995697,-13.27723984,2.014061737,14.3543027
20.49449258,5.601351929,-13.3335228,1.063388672,14.5013368
20.50443158,5.902675323,-12.59241394,0.3329077148,13.91119306
20.51437158,6.011648712,-11.62961609,0.4119433594,13.09799939
20.52431058,5.942342834,-10.59721298,1.413061523,12.23148005
20.53425058,5.72634201,-9.281449127,1.984573059,11.08489156
20.54418958,5.746699677,-8.737180939,1.074465637,10.51272393
20.55412958,5.387746124,-9.161997528,-0.008382568359,10.62873827
20.56406858,4.274062042,-9.323062592,0.5168751526,10.26909258
20.57400858,4.557572479,-9.526040497,-0.1026864624,10.56065618
20.58394758,5.58952652,-9.472601624,-1.572929077,11.11067478
20.59388758,6.12660965,-9.720186768,-1.482068024,11.58507239
20.60382658,6.108497314,-9.958491211,-1.151705017,11.73932328
20.61376658,6.293512573,-9.893675995,-0.6884184265,11.74593739
20.62370558,6.227948914,-9.865983582,0.4951702881,11.67776405
20.63364458,5.929319916,-9.535321198,1.514700165,11.33020307
20.64358458,5.31918869,-8.859476624,2.288890228,10.58409717
20.65352358,4.831652527,-8.424181824,2.55084549,10.04084251
20.66346358,4.348906403,-8.082292786,2.480641479,9.507366918
20.67340258,4.066294098,-7.770191803,2.037413177,9.003426059
20.68334258,3.712280273,-7.660020905,2.333946533,8.826338511
20.69328158,3.306773529,-7.458988953,2.393372955,8.502911353
20.70322158,3.056194611,-7.104376373,1.948498077,7.975533456
20.71316058,2.880460052,-6.829098816,1.496288452,7.561251212
20.72310058,2.705623627,-6.619085541,1.139280853,7.240901426
20.73303958,2.564616852,-6.388415222,0.9448352051,6.94851223
20.74297958,2.716850281,-6.009702759,0.9957293701,6.670028461
20.75291858,2.961890717,-5.930068359,1.184486847,6.733610952
20.76285858,2.969824219,-5.797893219,1.371448059,6.657048253
20.77279758,2.947819977,-5.757776642,1.659299469,6.677941988
20.78273758,3.099903717,-5.668861542,2.093546448,6.791784078
20.79267658,3.117716675,-5.655389557,2.272873535,6.846133391
20.80261658,3.298091583,-5.577701111,2.576292572,6.973194475
20.81255558,3.32772995,-5.858517151,2.718496857,7.265413614
20.82249458,3.486549683,-6.127358093,2.728076935,7.559295579
20.83243458,3.577410736,-6.443350983,2.73571106,7.861218383
20.84237358,3.753744049,-6.754104767,2.789000244,8.215050088
20.85231358,4.092190247,-6.917714539,2.683769073,8.473689391
20.86225258,4.229604492,-7.123386841,2.674488373,8.705462785
20.87219258,4.264781342,-7.540120239,2.705324249,9.075271478
20.88213158,4.433330841,-7.922275543,2.720143433,9.477133133
20.89207158,4.611460419,-8.392896881,2.656525726,9.937978375
20.90201058,4.640050964,-8.924740906,2.980601807,10.49118965
20.91195058,4.634961548,-9.31737442,3.406765594,10.94999482
20.92188958,4.647984467,-9.629625092,3.711980896,11.31866782
20.93182958,4.494403839,-9.86613327,4.097279663,11.58999362
20.94176858,4.165238342,-10.01193008,4.506378937,11.74288745
20.95170858,3.880380707,-9.968220978,4.636907501,11.65863178
20.96164783,3.854783936,-9.713750153,4.835095367,11.51496628
20.97158783,4.237238617,-9.518406372,4.912484436,11.51897367
20.98152683,4.932243347,-9.662107544,4.557572479,11.76668235
20.99146683,5.410049744,-10.23706192,4.00866394,12.25297766
21.00140583,5.426964569,-10.98340988,3.333118744,12.69633481
21.01134483,5.334307251,-11.85549637,2.275118866,13.19787081
21.02128483,5.355263672,-12.09574677,1.398392029,13.30193366
21.03122383,5.317242737,-11.66030228,1.137185211,12.86580389
21.04116383,5.475314026,-11.49295029,-0.1724414062,12.73172047
21.05110283,5.011129303,-11.57602753,-0.430355072,12.62145141
21.06104283,4.493954773,-11.06963058,-0.6129753113,11.96277934
21.07098183,4.872816925,-10.27463379,-0.129181366,11.37229669
21.08092183,5.266947327,-9.837093658,0.1917512512,11.16001408
21.09086083,5.217550049,-9.583071899,-0.406255188,10.91893488
21.10080083,5.06651413,-9.630672913,-0.9440867615,10.92294493
21.11073983,5.221891022,-9.911938019,-1.22744751,11.27037216
21.12067983,5.561534729,-10.01148102,-1.395398254,11.53722484
21.13061883,5.514682159,-10.47596512,-0.9006770325,11.87302757
21.14055883,5.533842316,-10.85767136,-0.390687561,12.19282883
21.15049783,5.105582886,-11.09537704,0.466280365,12.22259325
21.16043783,4.072581024,-10.622211,1.500629425,11.47471879
21.17037683,3.506607971,-9.843530273,1.79252243,10.6021
21.18031683,3.562292175,-9.117539978,1.60421402,9.91932273
21.19025583,3.441044312,-8.823401642,1.423689423,9.577060826
21.20019583,3.228486328,-8.492888947,1.296004944,9.177794694
21.21013483,3.206781464,-8.061186676,1.252744904,8.765588844
21.22007383,3.261118469,-7.806117096,1.110091553,8.532447541
21.23001383,3.206781464,-7.475454712,1.001118164,8.195615174
21.23995283,3.221151581,-7.057823181,0.902024231,7.810399047
21.24989283,3.109932861,-6.873855743,0.9247769165,7.601104362
21.25983183,2.968626709,-6.824608154,1.111289062,7.524824541
21.26977183,2.819237366,-6.663393402,1.34794693,7.359746727
21.27971083,2.730621643,-6.427933044,1.632804565,7.172215037
21.28965083,2.698887634,-6.437962189,1.885928192,7.231049492
21.29958983,2.627336426,-6.457421722,2.100432129,7.281003167
21.30952983,2.541714478,-6.277944946,2.147883453,7.10537181
21.31946883,2.37526062,-6.068530426,2.311044159,6.914466693
21.32940883,2.282603302,-6.124514008,2.587369537,7.02953987
21.33934783,2.169738007,-6.313121796,2.880310364,7.270450991
21.34928783,2.117796021,-6.67656601,3.176993408,7.69122102
21.35922683,2.104324036,-6.932683411,3.235372009,7.93460213
21.36916683,2.105371857,-7.113806763,3.251987457,8.100262942
21.37910583,2.017803955,-7.2884935,3.161126404,8.196730472
21.38904583,1.949096832,-7.524552612,2.891537018,8.293301924
21.39898483,2.004182281,-7.873626709,2.695295105,8.560102796
21.40892383,2.115401001,-8.338260498,2.520907745,8.964177898
21.41886383,2.409539337,-8.699309692,2.290237427,9.312843627
21.42880383,2.681523743,-9.116941223,2.124232635,9.737635808
21.43874283,2.944077759,-9.414073334,2.174078979,10.10044504
21.44868183,3.185525665,-9.692045288,2.482587433,10.499836
21.45862183,3.264112244,-10.02525238,2.874771881,10.9281484
21.46856083,3.328029327,-10.29484177,3.416794739,11.34610208
21.47850083,3.453318787,-10.28496231,3.871549072,11.51932084
21.48843983,3.721710663,-10.13976425,4.177512817,11.58091372
21.49837983,3.911815338,-10.3633992,4.043691101,11.79210668
21.50831883,4.12108017,-11.47304169,3.503314819,12.6841319
21.51825883,4.702171783,-12.73132507,2.913690948,13.88116179
21.52819783,5.347479858,-13.38681198,2.100132751,14.56752668
21.53813783,5.948330383,-13.01423676,1.400038605,14.37752068
21.54807683,6.180946655,-12.01850739,1.270557861,13.57434855
21.55801683,5.93815155,-11.13998428,1.165925446,12.67755007
21.56795583,5.489085388,-10.3647464,1.166374512,11.78636737
21.57789583,5.146447906,-10.12030472,0.7888595581,11.3810717
21.58783483,4.531077576,-10.00175125,-0.8126600647,11.01027286
21.59777483,4.035158844,-10.03872437,-1.811981964,10.97003976
21.60771383,4.195774841,-10.21969803,-0.7217990112,11.07103194
21.61765383,5.555696869,-9.723330231,-1.341061249,11.2786242
21.62759283,6.611152039,-9.515562286,-1.532064056,11.68762068
21.63753183,6.662644958,-9.724976807,-0.7761360168,11.81390701
21.64747183,6.628964996,-10.01282822,-0.4312532043,12.01606779
21.65741083,6.279292145,-9.878407745,0.6676116943,11.72425498
21.66735083,5.83875824,-9.551487579,1.530118103,11.29881738
21.67728983,5.275629272,-9.097332001,2.099533997,10.7238872
21.68722983,4.587659912,-8.575217743,2.173180847,9.965124074
21.69716883,4.384532318,-8.469687195,1.721569977,9.691415171
21.70710883,4.132157135,-8.262967072,1.870360565,9.426006368
21.71704783,3.810625763,-7.896229706,1.962419128,8.984564603
21.72698783,3.51499054,-7.652087402,1.831591187,8.617675231
21.73692683,3.317551117,-7.225474548,1.318458252,8.059277885
21.74686683,3.118465118,-6.784790955,0.912203064,7.52265428
21.75680583,2.953957214,-6.510112152,0.6265969849,7.176353338
21.76674583,2.902314606,-6.229146423,0.4748126221,6.888478951
21.77668483,2.950664062,-5.91824295,0.4808001709,6.630474103
21.78662483,2.664758606,-5.855673065,0.7482939148,6.476865697
21.79656383,2.765050049,-5.722001038,1.116079102,6.452319754
21.80650383,3.01293457,-5.614225159,1.382375336,6.51983592
21.81644283,3.169508972,-5.731581116,1.714384918,6.770223398
21.82638283,3.204236755,-5.852679291,1.958826599,6.95399092
21.83632183,3.357667694,-5.788762207,2.263293457,7.06443186
21.84626183,3.464994507,-6.08439743,2.415377197,7.406762183
21.85620083,3.557352448,-6.290668488,2.493514709,7.644925249
21.86613983,3.706741791,-6.569089508,2.69469635,8.009635453
21.87607983,3.948489075,-6.863826599,2.894530792,8.43095428
21.88601883,4.382137299,-6.974296875,2.917732544,8.738255398
21.89595883,4.567601624,-7.115153961,2.848875732,8.922135026
21.90589783,4.779860229,-7.300318909,2.880310364,9.189010163
21.91583783,4.822820892,-7.56227417,2.926564178,9.434636711
21.92577683,4.881498871,-8.041427765,2.893782349,9.84213229
21.93571683,4.946912842,-8.581953735,2.812201996,10.29710428
21.94565583,4.928800507,-8.973240051,2.643353119,10.57352482
21.95559671,4.675527191,-9.476643219,2.941533051,10.96904453
21.96553571,4.216880951,-9.933642883,3.275638275,11.27781681
21.97547571,3.633394318,-10.23631348,3.501817932,11.41255435
21.98541471,3.549269257,-10.32163605,3.735182648,11.53625036
21.99535471,3.616928558,-10.19634659,4.182901611,11.5993242
22.00529371,3.8366716,-9.744136963,4.338278503,11.33529508
22.01523371,4.562661896,-9.239685974,4.279301147,11.15805085
22.02517271,5.465135193,-9.010961609,4.203109589,11.34597999
22.03511271,6.034850464,-9.535470886,4.124822388,12.01494007
22.04505171,6.035748596,-10.51443512,3.844006348,12.71849015
22.05499171,5.688770142,-11.30015121,3.054847412,13.01489977
22.06493071,5.615422668,-11.56195679,1.948348389,13.00030299
22.07487071,5.848787384,-11.30988098,1.252595215,12.79416728
22.08480971,6.040538635,-11.52258865,0.6210585022,13.02474069
22.09474871,5.705684967,-11.86597458,-1.255888367,13.22624093
22.10468871,4.459526367,-11.80714691,-3.364703064,13.06205651
22.11462771,4.024231567,-11.31541946,-2.705473938,12.31067612
22.12456771,4.501139832,-10.23616379,-0.5655239868,11.19638898
22.13450671,4.772375793,-9.474547577,0.6750961304,10.63006949
22.14444671,4.775818634,-8.857979736,-0.2920426941,10.06764807
22.15438571,5.373825073,-8.732241211,-2.140848083,10.47440991
22.16432571,5.865402832,-8.342601471,-1.926344147,10.37847539
22.17426471,5.803132324,-8.65979187,-1.39943985,10.51792622
22.18420471,5.722300415,-9.435927887,-1.197809143,11.10027945
22.19414371,5.194647675,-10.28690826,-0.2038760376,11.52590177
22.20408371,4.091142426,-10.23317001,0.9809101868,11.06423968
22.21402271,3.29375061,-9.771829376,1.607956238,10.43661658
22.22396271,3.037333832,-9.170080719,1.345102844,9.753208644
22.23390171,2.748883667,-9.199419708,1.062789917,9.659979648
22.24384171,2.615660706,-9.005273438,1.19227066,9.452943454
22.25378071,2.552791443,-8.594377899,1.428928528,9.078651462
22.26372071,2.754122772,-8.220904541,1.528022461,8.803596785
22.27365971,2.911894684,-7.773484955,1.412911835,8.420363344
22.28359971,3.077001343,-7.254663849,1.233884125,7.976249423
22.29353871,3.126997375,-7.029981079,1.178798676,7.78384949
22.30347871,2.960543518,-6.859335938,1.435065765,7.607543702
22.31341771,2.707419891,-6.816225586,1.817370758,7.556049906
22.32335771,2.522554321,-6.765630798,2.124681702,7.526706633
22.33329671,2.398911438,-6.713239746,2.454745331,7.539770462
22.34323571,2.359543304,-6.625372467,2.842439117,7.585674991
22.35317571,2.307601318,-6.523883514,2.990930328,7.538683186
22.36311471,2.048340454,-6.429878998,2.959346008,7.368634293
22.37305471,1.896256714,-6.572532349,3.056194611,7.492282462
22.38299371,1.803449707,-6.895410919,2.949616241,7.713582732
22.39293371,1.844464417,-7.169191589,2.742297363,7.894273358
22.40287271,1.836081848,-7.426805878,2.626438293,8.088684702
22.41281271,1.827250214,-7.54820343,2.46537323,8.148146018
22.42275171,1.835183716,-7.729027405,2.365830231,8.288722252
22.43269171,1.801503754,-7.903863831,2.398162994,8.453855036
22.44263071,1.912572784,-8.057594147,2.406246185,8.623965375
22.45257071,1.970352631,-8.398435364,2.257904663,8.917070119
22.46250971,2.180515594,-8.809031525,2.237397308,9.346637437
22.47244971,2.31209198,-9.230105896,2.349364471,9.801027374
22.48238871,2.632575531,-9.663005676,2.646346893,10.35892294
22.49232871,2.799777832,-9.949958954,2.800975342,10.70915038
22.50226771,3.277135162,-9.998907166,2.908601532,10.91685496
22.51220771,4.152814178,-9.764943695,3.296594696,11.11159429
22.52214671,4.623435516,-9.555229797,3.847598877,11.29081882
22.53208671,4.641248474,-9.789941711,3.991449738,11.54624688
22.54202571,4.493954773,-10.55709641,3.810775452,12.09007542
22.55196571,4.645739136,-11.62916702,3.448379059,12.98890819
22.56190471,5.519023132,-12.5930127,2.73331604,14.01836658
22.57184471,6.365363159,-13.29520248,2.060764618,14.88378339
22.58178371,6.697672119,-13.81477203,1.359323273,15.41280305
22.59172271,6.54199585,-13.44339432,0.7517367554,14.96955806
22.60166271,5.795647888,-12.74270142,1.501078491,14.07903443
22.61160171,5.259762268,-11.97913925,0.9208850098,13.11536906
22.62154171,4.899611206,-11.32664612,-0.5068460083,12.351356
22.63148071,3.979774017,-10.53823563,0.04790039063,11.26478166
22.64142071,3.586392059,-9.706116028,-1.061592407,10.40182074
22.65135971,3.995042267,-8.419092407,-1.545386353,9.446147292
22.66129971,4.860392761,-7.710016937,-1.733096008,9.277467367
22.67123871,5.871240692,-7.44297226,-1.772613831,9.644245077
22.68117871,6.25758728,-7.815996552,-0.8708889771,10.05015663
22.69111771,5.983058167,-8.145910492,-0.04430786133,10.10716607
22.70105771,5.536686401,-8.229885864,0.6712042236,9.94165141
22.71099671,5.223986664,-8.487649841,1.159488831,10.03367584
22.72093671,5.033582611,-8.841663666,1.445693665,10.2762834
22.73087571,5.006189575,-8.882828064,1.53865036,10.31183851
22.74081571,5.087320862,-8.774004364,1.682800598,10.28084646
22.75075471,4.91907074,-8.63868576,1.80539566,10.10364301
22.76069471,4.76339447,-8.529263306,1.803449707,9.934318812
22.77063371,4.452940063,-8.199648743,1.641336823,9.474011889
22.78057371,4.106410675,-7.808212738,1.411265259,8.934341857
22.79051271,3.798500977,-7.516918488,1.271755371,8.517630829
22.80045271,3.407514038,-7.254813538,1.10919342,8.091587077
22.81039171,3.087629242,-7.041507111,1.095422058,7.766352182
22.82033171,2.966830444,-6.879094849,0.9837542725,7.555911678
22.83027071,2.89483017,-6.713389435,0.9039701843,7.366600404
22.84020971,2.715652771,-6.568790131,1.16308136,7.202536498
22.85014971,2.721939697,-6.336922302,1.503922577,7.058847151
22.86008871,2.884801025,-6.16986969,1.825453949,7.051358101
22.87002871,3.36515213,-5.95222229,2.046693878,7.137377311
22.87996771,3.207829285,-6.125112762,2.222578125,7.26271496
22.88990771,3.252137146,-6.119424591,2.537523193,7.37989006
22.89984671,3.4319133,-6.202052765,2.709066467,7.588315262
22.90978671,3.614683228,-6.233786774,2.800675964,7.731094245
22.91972571,3.856430511,-6.37224884,2.85381546,7.97633213
22.92966571,3.984414368,-6.599626007,2.831062775,8.212523225
22.93960471,4.030817871,-6.849306793,2.621498566,8.368557282
22.94954471,4.19472702,-6.99480423,2.315983887,8.478608515
22.95948283,4.158652039,-7.285649414,2.082619171,8.643632152
22.96942283,4.212090912,-7.500003662,2.07333847,8.848191747
22.97936183,4.382436676,-7.790699158,2.246079254,9.216594631
22.98930183,4.737797699,-8.090076599,2.504142609,9.703957781
22.99924083,4.836143188,-8.587941284,2.785258026,10.2420056
23.00918083,4.70486618,-9.181457062,2.913990326,10.72036656
23.01911983,4.673730927,-9.588610382,3.270548859,11.15713671
23.02905983,4.319417725,-9.916877747,3.770808563,11.45516612
23.03899883,3.689677277,-10.17299515,4.126319275,11.58145325
23.04893883,3.301384735,-10.1563797,4.327201538,11.52284092
23.05887783,3.483256531,-9.873617706,4.497247925,11.39502705
23.06881783,3.95492569,-9.5525354,4.582121429,11.3087668
23.07875683,4.537663879,-9.611363068,4.291126556,11.46221884
23.08869583,5.121599579,-10.07060806,3.889661407,11.94894953
23.09863583,5.30871048,-10.52176987,3.520678711,12.29980596
23.10857483,5.254972229,-11.29551086,2.811453552,12.7713574
23.11851483,5.061724091,-12.08916046,1.675316162,13.21270357
23.12845383,5.237159271,-12.29797623,0.9496252441,13.40036733
23.13839383,5.466781769,-12.19678665,0.9369017029,13.39869741
23.14833283,5.33909729,-11.9532431,-0.2384541321,13.09361833
23.15827283,4.542004852,-11.37275024,-1.880389709,12.38971838
23.16821183,4.051175537,-10.8079747,-1.12206665,11.59669668
23.17815183,4.6475354,-10.04216721,0.4526586914,11.07472832
23.18809083,4.808450775,-9.217532043,1.103654938,10.45476686
23.19803083,5.001399536,-8.762328644,0.01197509766,10.08922911
23.20796983,4.967420197,-8.881630554,-1.218765564,10.24909821
23.21790983,4.80785202,-9.143286438,-1.449286194,10.43146962
23.22784883,5.267995148,-9.549990692,-1.635049896,11.02848508
23.23778883,4.964276733,-10.14230896,-0.8997789001,11.32784519
23.24772783,4.663552094,-10.93311447,-0.5923182678,11.90094749
23.25766783,4.123026123,-11.18923187,0.3471281433,11.92974234
23.26760683,3.415148163,-10.55155792,1.13613739,11.14851648
23.27754683,3.099903717,-9.567953339,1.330283661,10.1451855
23.28748583,2.722089386,-8.83881958,1.495689697,9.368649308
23.29742583,2.676284637,-8.581055603,1.547631683,9.120974649
23.30736483,2.703527985,-8.082891541,1.443747711,8.644455256
23.31730483,2.816093903,-7.609725494,1.22864502,8.206575141
23.32724383,2.914140015,-7.275320892,1.104852448,7.91474605
23.33718283,2.96383667,-6.971602478,0.9416917419,7.633763964
23.34712283,2.892884216,-6.681655426,0.7182064819,7.316359673
23.35706183,2.691552887,-6.611601105,0.839304657,7.18763928
23.36700183,2.548151093,-6.602470093,1.137933655,7.168024715
23.37694083,2.31792984,-6.592141571,1.423090668,7.131221234
23.38688083,2.21733902,-6.692433014,1.651815033,7.241114892
23.39681983,2.326911163,-6.794071655,1.891915741,7.426524786
23.40675983,2.414628754,-6.876999207,2.070793762,7.577053313
23.41669883,2.413580933,-6.962471466,2.280956726,7.713893013
23.42663883,2.509531403,-6.958729248,2.652783508,7.858684429
23.43657783,2.438728638,-7.075935516,2.815046082,7.99629572
23.44651783,2.516716461,-7.308701477,2.946622467,8.272458098
23.45645683,2.482138367,-7.488777008,3.139421539,8.491098842
23.46639683,2.292632446,-7.782316589,3.025358734,8.658718756
23.47633583,2.262545013,-8.077802124,2.889141998,8.87226795
23.48627583,2.294428711,-8.121062164,2.882256317,8.917592459
23.49621483,2.319277039,-8.231682129,2.722388763,8.975022966
23.50615483,2.404599609,-8.336015167,2.785258026,9.112020107
23.51609383,2.279908905,-8.42463089,2.98015274,9.222456322
23.52603383,2.189945984,-8.604407043,2.861599274,9.328474387
23.53597283,2.349065094,-8.88207962,2.50743576,9.523480419
23.54591283,2.505639496,-9.296567688,2.230960693,9.8833995
23.55585183,2.65487915,-9.575737152,2.346370697,10.21021943
23.56579183,2.99781601,-9.651629333,2.576591949,10.42974955
23.57573083,3.522924042,-9.745933228,2.612068176,10.68724045
23.58566983,4.291875,-9.685159607,2.781066742,10.95248099
23.59560983,4.714146881,-9.718091125,3.041375427,11.22116039
23.60554883,4.626429291,-10.54976166,2.812351685,11.85793578
23.61548883,4.5586203,-11.76568314,2.318528595,12.82918133
23.62542783,5.036875763,-12.70632706,1.659299469,13.7685925
23.63536783,6.025869141,-13.30747696,0.9791139221,14.64099402
23.64530683,6.916217651,-13.36346054,0.935255127,15.07616816
23.65524683,6.687792664,-12.56008118,1.697021027,14.33046022
23.66518583,5.943390656,-11.46181503,0.8256829834,12.93749778
23.67512583,5.246739349,-11.50971542,0.0477507019,12.64927283
23.68506483,4.443809052,-11.32350266,0.2293231201,12.16641855
23.69500483,4.204606476,-10.82159637,-1.392554169,11.69294107
23.70494383,4.015100555,-10.06821304,-1.96690979,11.01629159
23.71488383,4.696483612,-9.653575287,-2.286944275,10.97627388
23.72482283,5.613476715,-9.394464111,-2.320175171,11.18705902
23.73476283,6.539451141,-9.340426483,-1.48012207,11.4977715
23.74470183,6.73614212,-9.446705475,-0.2826123047,11.60584873
23.75464183,6.21672226,-9.444759521,0.7122189331,11.32953547
23.76458083,5.751639404,-9.356443176,1.13613739,11.04152131
23.77452083,5.393733673,-9.267228699,1.427731018,10.81722268
23.78445983,4.978946228,-9.347910919,1.471440125,10.69291729
23.79439983,4.727319489,-8.981921997,1.353036346,10.23978416
23.80433883,4.690346375,-8.607251129,1.445244598,9.908221488
23.81427883,4.577780457,-8.227490845,1.458566895,9.527596596
23.82421783,4.426145782,-7.852520599,1.398392029,9.121860913
23.83415683,4.10581192,-7.454049225,1.320404205,8.611852799
23.84409683,3.839216309,-6.866970062,1.334774323,7.97975452
23.85403583,3.59327774,-6.491251373,1.088536377,7.498859964
23.86397583,3.289559326,-6.374045105,0.817300415,7.219254223
23.87391483,3.079096985,-6.216273193,0.5204676819,6.95656361
23.88385483,2.918780365,-5.996230774,0.3020718384,6.675725407
23.89379383,2.634671173,-5.97677124,0.4504133606,6.547225278
23.90373383,2.823728027,-5.780978394,0.6743476868,6.468994973
23.91367283,3.152594147,-5.530399475,1.008153534,6.445195246
23.92361283,3.105142822,-5.501359863,1.515598297,6.496453686
23.93355183,3.265160065,-5.607339478,1.791624298,6.731526119
23.94349183,3.532953186,-5.647006989,2.085612946,6.979987643
23.95343083,3.507805481,-5.906417542,2.359543304,7.263464192
23.963371,3.668122101,-6.061495056,2.518512726,7.519291749
23.97331,3.582350464,-6.350543976,2.678230591,7.767596973
23.98325,3.627855835,-6.521787872,2.764750671,7.958574074
23.993189,3.899690552,-6.637197876,2.716999969,8.163459492
24.003129,4.196373596,-6.728657684,2.509681091,8.317624948
24.013068,4.286486206,-6.819967804,2.384092255,8.400584546
24.023008,4.353097687,-6.929090881,2.271376648,8.492403181
24.032947,4.406386871,-7.138206024,2.317780151,8.703007258
24.042887,4.492757263,-7.513325958,2.483186188,9.099513637
24.052826,4.798870697,-7.896678772,2.600093079,9.599332248
24.062765,5.021757202,-8.415948944,2.777474213,10.18629496
24.072705,4.998405762,-8.990154877,3.013233948,10.71851313
24.082644,4.652026062,-9.551188202,3.39793396,11.15403504
24.092584,3.822002106,-10.11476624,3.669469299,11.41845879
24.102523,2.851869507,-10.74645264,3.56169342,11.67497597
24.112463,3.077899475,-10.87937622,3.562142487,11.85424613
24.122402,3.714675293,-10.88461533,3.50556015,12.02341945
24.132342,5.236410828,-10.84764221,3.471431122,12.53563616
24.142281,6.482120361,-11.0176886,3.32653244,13.20882904
24.152221,6.916966095,-11.96342194,2.878963165,14.11581784
24.16216,6.821165314,-12.89807831,2.51686615,14.80619247
24.1721,6.432573395,-12.99477722,2.357597351,14.69014979
24.182039,6.228098602,-12.69435196,1.688638458,14.24034001
24.191979,5.842500458,-12.33839218,0.6764433289,13.66851524
24.201918,5.391188965,-11.62003601,-1.024020538,12.85063319
24.211858,4.881349182,-11.47992737,-0.9711804199,12.51237362
24.221797,4.855453033,-10.82384171,0.4858895874,11.87295507
24.231737,4.695136414,-10.03932312,0.4704716492,11.09295534
24.241676,4.60083252,-9.191785583,-1.30468689,10.36140869
24.251616,5.020260315,-9.23549469,-2.059417419,10.7116094
24.261555,5.324727173,-9.203760681,-2.136357422,10.84554992
24.271495,5.499713287,-9.446855164,-1.45796814,11.02794586
24.281434,5.549110565,-9.886191559,-0.9764195251,11.37905122
24.291374,5.049898682,-10.09590546,-0.0004490661621,11.28843585
24.301313,4.274062042,-9.598340149,1.012494507,10.55560918
24.311252,3.821103973,-9.022038574,1.129850464,9.862787521
24.321192,3.601211243,-8.296946411,1.211879883,9.125606556
24.331131,3.334915009,-8.045619049,1.185684357,8.789737845
24.341071,3.159330139,-8.008346558,1.34914444,8.714078966
24.35101,3.002156982,-7.518415375,1.388213196,8.213808628
24.36095,3.00006134,-7.290589142,1.275198212,7.986187361
24.370889,2.961591339,-6.994205475,1.078956299,7.671641296
24.380829,2.963387604,-6.564000092,0.8581654358,7.252876065
24.390768,2.800226898,-6.368057556,0.772842865,6.99933667
24.400708,2.582579498,-6.218368835,0.9104067993,6.79460583
24.410647,2.445614319,-6.234984283,1.119671631,6.79041405
24.420587,2.459685059,-6.368955688,1.365011444,6.962535701
24.430526,2.44202179,-6.543941803,1.697619781,7.188084422
24.440466,2.454146576,-6.644682312,1.956581268,7.348663055
24.450405,2.447260895,-6.658603363,2.139650574,7.409736109
24.460345,2.400707703,-6.738088074,2.338287506,7.525477847
24.470284,2.452649689,-6.896758118,2.567011871,7.756952557
24.480224,2.403551788,-7.156018982,2.747536469,8.033344603
24.490163,2.476749573,-7.389982452,2.955903168,8.335675895
24.500103,2.491868134,-7.587571564,3.101400604,8.567341171
24.510042,2.424957275,-7.864645386,3.12759613,8.804255925
24.519982,2.593057709,-8.044720917,3.174299011,9.028712927
24.529921,2.525697784,-8.168812866,3.207080841,9.132032658
24.539861,2.528841248,-8.29829361,3.151546326,9.229786516
24.5498,2.330653381,-8.53929245,2.972967682,9.337558437
24.559739,2.400108948,-8.854985962,2.745590515,9.576511193
24.569679,2.463876343,-9.152716827,2.58707016,9.825265593
24.579618,2.68646347,-9.415121155,2.56955658,10.12246083
24.589558,3.018173676,-9.582922211,2.653681641,10.39152523
24.599497,3.303630066,-9.697434082,2.951262817,10.66133911
24.609437,3.363206177,-9.916129303,3.276087341,10.97148688
24.619376,3.406915283,-10.15263748,3.551963654,11.28271091
24.629316,3.649411011,-10.34184402,3.934418335,11.65124827
24.639255,3.688330078,-10.24379791,4.091890869,11.6311111
24.649195,3.459306335,-10.59915894,3.87768631,11.80446617
24.659134,3.654051361,-11.48307083,3.270548859,12.48637245
24.669074,4.514611816,-12.6912085,2.472857666,13.69538309
24.679013,5.510490875,-13.48201401,1.584455109,14.65062147
24.688953,6.222111053,-13.71013962,0.9451345825,15.08561811
24.698892,6.522536316,-13.10000839,1.022224274,14.66965038
24.708832,6.263724518,-11.76673096,1.427281952,13.40624243
24.718771,5.646707611,-10.60978683,1.632654877,12.12923928
24.728711,5.534441071,-10.04590942,1.581760712,11.57809574
24.73865,5.167554016,-9.662406921,0.5164260864,10.96961339
24.74859,4.34456543,-8.750054169,-1.284927979,9.853412436
24.758529,4.149221649,-8.0993573,-2.408341827,9.413593327
24.768469,4.563709717,-7.844587097,-1.899250488,9.272116561
24.778408,5.588179321,-8.228987732,-2.288141785,10.20683987
24.788347,5.986051941,-9.097182312,-1.166075134,10.95222695
24.798287,5.993985443,-9.397906952,-0.4460723877,11.15560384
24.808226,5.813610535,-9.333091736,0.440533905,11.00448722
24.818166,5.60584259,-9.227561188,1.443747711,10.89301446
24.828105,5.33909729,-9.151818695,2.130519562,10.80744461
24.838045,5.170996857,-9.212742004,2.060315552,10.76376904
