Time (s),Acceleration x (m/s^2),Acceleration y (m/s^2),Acceleration z (m/s^2),Absolute acceleration (m/s^2)
29.82668367,26.71240128,-23.46400635,0.9720785522,35.56763856
29.83662267,32.16316635,-27.90452225,0.7027885437,42.5866827
29.84656167,33.75226181,-29.62249969,0.6843768311,44.91298295
29.85650067,29.00922501,-26.36796753,1.063089294,39.21651445
29.86643967,24.24987213,-22.22967316,1.487606506,32.93064895
29.87637867,21.44171173,-18.90314072,1.64747406,28.63197342
29.88631867,19.68975494,-15.80024323,1.28822113,25.27832371
29.89625767,18.79895737,-13.1715596,0.7183561707,22.96533945
29.90619667,18.44494354,-10.90587112,0.5231620789,21.43426383
29.91613567,18.0871875,-8.446485443,0.5270539856,19.96915757
29.92607467,16.93368622,-5.761818237,0.2501298523,17.8888469
29.93601367,14.64524506,-3.088227997,-0.349972229,14.97140058
29.94595267,11.45986908,-0.6227050781,-1.206491089,11.54001654
29.95589167,7.908354492,1.150956573,-2.418071594,8.349481543
29.96583167,4.72013443,2.026036835,-3.757935333,6.364477375
29.97577067,2.082020416,2.13186676,-5.012775879,5.831602431
29.98570967,-0.06810836792,1.750609589,-5.950426025,6.202970463
29.99564867,-1.986369324,1.504371643,-6.189927979,6.672631079
30.00558767,-3.629801788,1.767374725,-5.74744812,7.023690934
30.01552667,-4.674179993,2.481240234,-4.951253815,7.247028773
30.02546567,-4.95529541,3.305126953,-4.178261261,7.275760025
30.03540467,-4.553680573,3.789369965,-3.709436188,6.989652947
30.04534467,-3.725153503,3.979624329,-3.567082214,6.514464978
30.05528367,-2.786156158,3.957320709,-3.678001556,6.078712757
30.06522267,-1.875150604,3.683540039,-3.921844482,5.697852328
30.07516167,-1.206640778,3.220403137,-4.139342194,5.381554806
30.08510067,-0.6433621216,2.746338959,-4.199966125,5.059249742
30.09503967,0.001646575928,2.313588867,-4.176764374,4.77473107
30.10497867,0.6764433289,1.976040802,-3.986360321,4.5003757
30.11491767,1.317859497,1.787133636,-3.664529572,4.28478439
30.12485767,1.934427338,1.666334839,-3.287014618,4.162108362
30.13479667,2.494562531,1.492695923,-2.875220947,4.088750278
30.14473567,2.912194061,1.314117279,-2.433639221,4.016264226
30.15467467,3.432212677,1.208287354,-1.895657959,4.102872321
30.16461367,4.050576782,0.8568182373,-1.267863464,4.329987012
30.17455267,4.672832794,-0.0643661499,-0.7427554321,4.731933532
30.18449167,5.56842041,-1.630559235,-0.48559021,5.822527555
30.19443167,6.726262665,-3.806135101,-0.386945343,7.738152269
30.20437067,8.340954895,-6.494394836,-0.4513114929,10.58075493
30.21430967,10.67834427,-9.726324005,-0.6417155457,14.45822305
30.22424867,14.18540131,-13.76567413,-1.022074585,19.79302986
30.23418767,19.79857864,-19.07633057,-1.55855896,27.5375963
30.24412667,28.42124771,-25.87504257,-1.867516479,38.48081038
30.25406567,38.02632385,-32.72270279,-2.35894455,50.22291512
30.26400467,38.66863815,-31.50049438,-2.655926971,49.94595751
30.27394467,32.78602112,-26.84951614,-2.504741364,42.45107098
30.28388367,27.43494873,-24.07129349,-1.56439682,36.53150585
30.29382267,22.33849686,-20.89519821,0.3279679871,30.58962754
30.30376167,17.82298691,-17.31404526,1.790875854,24.91269279
30.31370067,14.18195847,-14.11609543,2.460283813,20.16048344
30.32363967,11.53830597,-11.34805161,2.603535919,16.39174119
30.33357867,9.680219879,-8.840316467,2.146236877,13.28398227
30.34351767,7.815697174,-6.401438141,1.046773224,10.15673504
30.35345767,5.839656372,-3.83786911,-0.8259823608,7.036552615
30.36339667,3.773652649,-1.48835495,-3.29030777,5.223196339
30.37333567,1.971400452,0.1959425354,-5.610782318,5.950268182
30.38327467,0.3567082214,1.318158875,-7.544910278,7.667493377
30.39321367,-0.9584568787,2.226919098,-8.632548523,8.966532343
30.40315267,-1.700314178,2.967429199,-8.58614502,9.242217843
30.41309167,-1.827100525,3.614683228,-7.4862323,8.511633522
30.42303067,-1.538201294,4.234244843,-6.127507782,7.605343137
30.43297067,-1.228195953,4.612059174,-4.971461792,6.891660719
30.44290967,-0.7726931763,4.666545868,-4.109105072,6.265656356
30.45284867,-0.2694396973,4.464166718,-3.293151855,5.553938366
30.46278767,0.2405497742,4.162993011,-2.491868134,4.857754811
30.47272667,0.6804849243,3.814966736,-1.790426788,4.268800653
30.48266567,1.017733612,3.35931427,-1.252146149,3.726747113
30.49260467,1.268312531,2.807711334,-0.937350769,3.220323908
30.50254367,1.314716034,2.190993805,-0.7890092468,2.674222821
30.51248367,1.136736145,1.60062149,-0.7679031372,2.108040191
30.52242267,0.9219328308,0.9915380859,-0.790506134,1.567803517
30.53236167,0.6318360901,0.3336561584,-0.7529342651,1.038004472
30.54230108,0.1999841309,-0.2625540161,-0.6824308777,0.7580502403
30.55224008,-0.07604187012,-0.5529501343,-0.5484594727,0.7825241275
30.56217908,-0.1278341675,-0.6179150391,-0.3329077148,0.7134340309
30.57211808,-0.04311035156,-0.7649093628,-0.1520837402,0.7810725317
30.58205808,0.3736230469,-1.042282562,-0.01781295776,1.107368241
30.59199708,1.151705017,-1.472038879,0.146844635,1.874802991
30.60193608,2.060016174,-2.268981628,0.2781216431,3.07722211
30.61187508,3.076552277,-3.560046844,0.2198927307,4.710356702
30.62181408,4.23334671,-5.441334686,-0.2119592285,6.897410692
30.63175308,5.616021423,-8.057743835,-0.7797285461,9.852659994
30.64169208,6.997648315,-11.02547241,-1.66618515,13.16450898
30.65163108,10.06417145,-14.09049866,-3.09960434,17.59082847
30.66157008,16.16069366,-17.07873459,-4.48377594,23.93648766
30.67151008,24.45584381,-20.23791504,-5.229824524,32.17161118
30.68144908,33.16368576,-23.61489258,-5.143005066,41.03588315
30.69138808,41.1775708,-26.88020233,-4.602479095,49.3894769
30.70132708,44.05189362,-27.62490372,-3.147355042,52.0923265
30.71126608,38.16433685,-23.55995682,-0.5662724304,44.85430678
30.72120508,28.36376724,-19.46761688,1.860780487,34.45219737
30.73114408,19.4634256,-16.49165543,3.539240112,25.75511319
30.74108408,13.48770218,-13.70265518,4.521497498,19.75157737
30.75102308,10.81471069,-11.9771933,4.293970642,16.69878171
30.76096208,9.982441406,-10.54676788,2.8187883,14.79287047
30.77090108,10.28825546,-8.622519379,0.3022215271,13.42711357
30.78084008,10.41923309,-6.371799774,-2.317780151,12.43110435
30.79077908,9.643546143,-4.060007172,-4.555776215,11.41213115
30.80071808,8.010891266,-1.800306244,-5.779631195,10.04089728
30.81065708,6.102958832,0.1889071655,-5.893394623,8.486099964
30.82059708,4.621489563,1.56559433,-5.247338104,7.165459411
30.83053608,4.021686859,2.167792053,-4.242178345,6.234530029
30.84047508,3.38042038,2.373164978,-3.259771271,5.261678695
30.85041408,2.287692719,2.566862183,-2.37990097,4.181656139
30.86035308,0.9047186279,2.620301056,-1.637744293,3.219735981
30.87029208,-0.5487588501,2.578687592,-1.074465637,2.846970737
30.88023108,-1.635948029,2.615660706,-0.6433621216,3.151495153
30.89017008,-2.289189606,2.65143631,-0.3318598938,3.518612588
30.90011008,-2.56955658,2.446362762,-0.265847168,3.557806417
30.91004908,-2.48408432,2.188149719,-0.4489164734,3.340688567
30.91998808,-2.049837341,1.947300568,-0.6548881531,2.902187299
30.92992708,-1.397194519,1.710942078,-0.8866062927,2.380240752
30.93986608,-0.6858737183,1.497785339,-1.090182953,1.975419589
30.94980508,-0.04984634399,1.365759888,-1.245260468,1.848907342
30.95974408,0.4751119995,1.329086151,-1.363813934,1.962699635
30.96968308,0.8898994446,1.332079926,-1.437760162,2.152559461
30.97962308,1.187031555,1.323697357,-1.484912109,2.316502229
30.98956208,1.345851288,1.190624084,-1.553170166,2.375129252
30.99950108,1.495090942,0.9848020935,-1.549877014,2.367963439
31.00944008,1.775457916,0.7159611511,-1.439406738,2.395149879
31.01937908,2.159259796,0.2366578674,-1.233135681,2.497805721
31.02931808,2.893932037,-0.4248165894,-1.065783691,3.113070293
31.03925708,4.220922546,-1.567540283,-0.9572593689,4.603228778
31.04919608,5.818400574,-3.624412994,-1.002016296,6.927784021
31.05913608,8.117319946,-6.322701874,-1.274300079,10.36780029
31.06907508,10.58987823,-9.184301147,-1.564696198,14.1047929
31.07901408,14.06819504,-12.38883728,-2.161654816,18.86982121
31.08895308,19.38858124,-16.36337219,-2.954406281,25.54223069
31.09889208,26.53516983,-21.95469498,-3.662134552,34.63430523
31.10883108,35.24899933,-30.02381516,-4.184548187,46.49120211
31.11877008,38.42629211,-33.62038605,-3.569626923,51.18254116
31.12870908,30.7451651,-28.56824203,-1.03434906,41.981895
31.13864908,23.95004562,-25.07914764,1.467697906,34.70911219
31.14858808,18.66124374,-22.5688678,3.920796661,29.54603964
31.15852708,14.28659088,-19.33214859,5.58952652,24.67957566
31.16846608,11.65700912,-16.20769592,6.641838226,21.0401826
31.17840508,11.05975113,-13.66403549,7.089856567,18.9549473
31.18834408,11.81044006,-11.34775223,6.500831451,17.6215432
31.19828308,13.16257828,-9.032666473,4.010460205,16.45983966
31.20822308,13.33681595,-6.496640167,0.2591111755,14.83725486
31.21816208,11.74352921,-4.03680542,-4.294419708,13.13957065
31.22810108,8.517737274,-1.724264374,-8.896449738,12.43670993
31.23804008,5.024900665,0.6265969849,-12.33360214,13.33266636
31.24797908,2.46776825,2.205064545,-13.2830777,13.68913229
31.25791808,1.245410156,2.527793427,-11.88767944,12.21710721
31.26785708,0.4233197021,2.409389648,-9.758806458,10.06074856
31.27779608,-0.1068777466,2.481838989,-7.860304413,8.243502477
31.28773608,-0.7006929016,3.018622742,-5.940247192,6.699969441
31.29767508,-1.440304871,3.51259552,-3.975433044,5.496987657
31.30761408,-2.121687927,3.619473267,-2.245181122,4.758464527
31.31755308,-2.532583466,3.501069489,-0.8526269531,4.404365936
31.32749208,-2.628084869,3.298540649,0.08053253174,4.218256273
31.33743108,-2.3834935,3.060086517,0.5029541016,3.911282857
31.34737008,-1.784289551,2.758314056,0.419128418,3.311744897
31.35730908,-0.9738748169,2.380350037,0.05448669434,2.572443829
31.36724908,-0.3264710999,1.963766327,-0.3968247986,2.029884599
31.37718808,0.03697311401,1.708247681,-0.9072633362,1.934581069
31.38712708,0.4345463562,1.555565186,-1.370250549,2.11806519
31.39706608,0.8970845032,1.391356659,-1.714085541,2.383007176
31.40700508,1.511257324,1.178349609,-1.862127686,2.672064
31.41694408,2.073787537,1.015338593,-1.876946869,2.975640562
31.42688308,2.553839264,0.9289682007,-1.788181458,3.253101571
31.43682208,2.91114624,0.8427474976,-1.694925385,3.472429673
31.44676208,3.232228546,0.6069877625,-1.681902466,3.693850487
31.45670108,3.761378174,0.001646575928,-1.740430756,4.144522613
31.46664008,4.561165009,-1.209484863,-1.805994415,5.052592968
31.47657908,5.625152435,-3.040776672,-1.912722473,6.674366633
31.48651808,7.393874359,-5.41049881,-2.067949677,9.392512511
31.49645708,10.13467484,-8.461005249,-2.4034021,13.41926173
31.50639608,13.85758301,-12.6088797,-2.924917603,18.96237319
31.51633508,18.57083176,-17.91699142,-3.630101166,26.05901012
31.52627508,25.65604797,-24.80072662,-4.474644928,35.96291543
31.53621408,35.71063934,-32.61477722,-5.031187592,48.62392728
31.54615308,37.92977463,-32.18546997,-3.884571991,49.89651471
31.55609208,34.21390182,-27.75707886,-1.911674652,44.09876421
31.56603108,31.96647537,-24.88964172,0.1910028076,40.5140259
31.57597008,27.79270477,-20.49223618,2.400108948,34.61396691
31.58590908,23.3625174,-15.85472992,3.484304352,28.44855105
31.59584808,19.52928864,-12.59376114,4.067790985,23.59116058
31.60578808,16.26787079,-10.58074722,4.702471161,19.96770059
31.61572708,13.03010376,-8.961863708,4.893773346,16.55438379
31.62566608,10.0183667,-7.266938324,4.465364227,13.15733794
31.63560508,7.690707092,-5.337450714,3.161725159,9.880883649
31.64554408,5.800737305,-3.293600922,0.975970459,6.74157835
31.65548308,3.962260437,-1.514400787,-1.866768036,4.634408313
31.66542208,2.214494934,-0.1712438965,-4.832251282,5.31826708
31.67536108,0.7818241882,0.7397616577,-7.236551514,7.316158431
31.68530108,-0.3457809448,1.207239532,-8.531358948,8.623286917
31.69524008,-0.8424481201,1.334774323,-8.467591553,8.61344577
31.70517908,-1.188079376,1.685045929,-7.497608643,7.775927452
31.71511808,-1.340312805,2.244732056,-6.353238373,6.870145431
31.72505708,-1.143023071,2.59171051,-5.116210785,5.847997769
31.73499608,-0.9181906128,2.795885925,-3.958518219,4.932536731
31.74493508,-0.6985972595,2.860102386,-3.076701965,4.258440886
31.75487408,-0.3466790771,2.77313324,-2.428849182,3.702669672
31.76481408,-0.01541793823,2.563718719,-1.951641541,3.222079466
31.77475308,0.1927990723,2.329006805,-1.597478027,2.830791449
31.78469208,0.05718109131,1.992207184,-1.397194519,2.433990892
31.79463108,-0.4734654236,1.61469223,-1.301543427,2.12730247
31.80457008,-1.174906769,1.264270935,-1.339264984,2.184586371
31.81450908,-1.790576477,0.9737251282,-1.513053589,2.538431781
31.82444808,-2.01960022,0.8408015442,-1.677561493,2.756799747
31.83438808,-1.826202393,0.8336164856,-1.730401611,2.650324765
31.84432708,-1.395547943,0.7394622803,-1.655557251,2.288062136
31.85426608,-0.9577084351,0.519868927,-1.525178375,1.874470118
31.86420508,-0.6358776855,0.2297721863,-1.403780823,1.558119471
31.87414408,-0.3183879089,-0.1010398865,-1.34674942,1.387556817
31.88408308,0.199385376,-0.6875202942,-1.350192261,1.528220476
31.89402208,1.284628601,-1.800006866,-1.545086975,2.69770071
31.90396108,3.320395203,-3.855831757,-1.80315033,5.398501083
31.91390108,6.7642836,-7.250921631,-2.149380341,10.1464887
31.92384008,12.12388824,-11.81448166,-2.769091644,17.15338193
31.93377908,19.16165314,-17.71356445,-3.432512054,26.31960212
31.94371808,28.46765121,-25.29754349,-4.057612152,38.29930924
31.95365708,40.02900925,-31.9157309,-4.601431274,51.40144579
31.96359608,43.37814468,-30.08892975,-4.280348969,52.96535204
31.97353508,39.33145981,-23.89735519,-3.283122711,46.1392047
31.98347408,36.49201447,-19.9743132,-1.221160583,41.61888443
31.99341408,32.81730606,-15.22933044,2.202819214,36.24583418
32.00335308,28.58740219,-10.09366013,5.913901978,30.88844081
32.01329208,24.53068817,-7.095095673,9.274264069,27.16812505
32.02323108,21.08754822,-6.565796356,11.47498764,24.8891485
32.03317008,17.74889099,-7.090305634,11.80550034,22.46475915
32.04310908,14.4561882,-7.009174347,10.07659561,18.96437928
32.05304808,11.26482468,-5.878575439,6.854695587,14.43747817
32.06298708,8.099806366,-4.665797424,2.782114563,9.752778589
32.07292708,4.891827393,-3.899540863,-1.265468445,6.382617376
32.08286608,1.728156281,-3.039279785,-4.739294586,5.889368295
32.09280508,-1.414408722,-2.104024658,-8.012238464,8.403775164
32.10274408,-3.883973236,-0.7914042664,-10.76666061,11.47312292
32.11268308,-5.270539856,0.7514373779,-12.73746231,13.80529589
32.12262208,-5.400020599,1.883682861,-13.69621857,14.84233427
32.13256108,-4.821324005,2.656675415,-13.88048538,14.93221229
32.14250008,-4.003724213,3.104843445,-13.20733521,14.14579668
32.15244008,-3.735781403,2.933000793,-11.45328278,12.39904201
32.16237908,-3.876039734,2.212099915,-8.959468689,10.00945299
32.17231808,-3.864962769,1.659299469,-6.296506348,7.572133393
32.18225708,-3.569028168,1.345851288,-4.367018738,5.798286851
32.19219608,-2.910547485,0.7354206848,-3.298091583,4.459768866
32.20213508,-2.167642365,0.1534309387,-2.507585449,3.31816203
32.21207408,-1.665586395,-0.1513352966,-1.69312912,2.379866935
32.22201308,-1.162482605,-0.3454815674,-0.8437953186,1.477401049
32.23195308,-0.5580395508,-0.510737915,-0.02155517578,0.756786617
32.24189208,-0.001496887207,-0.652792511,0.6394702148,0.9138175194
32.25183108,0.4052073669,-0.7873626709,1.080303497,1.396849538
32.26177008,0.7634124756,-0.8472381592,1.348096619,1.765779035
32.27170908,1.175804901,-0.8906478882,1.498234406,2.102493082
32.28164808,1.654359741,-0.9945318604,1.460961914,2.420828265
32.29158708,2.320624237,-1.115480347,1.169218597,2.827837581
32.30152608,3.397634583,-1.762434998,0.6947053528,3.890078843
32.31146608,4.965025177,-2.992427216,-0.004939727783,5.797078579
32.32140508,7.235204315,-4.730163574,-0.7773335266,8.679105733
32.33134408,9.931547241,-6.984326019,-1.420995026,12.22438822
32.34128308,13.33501968,-9.867929535,-2.182012482,16.73200412
32.35122208,17.42137207,-13.40701996,-3.030897217,22.19096048
32.36116108,22.50959106,-17.51432877,-3.862717438,28.78113945
32.37110008,28.49848709,-20.74565918,-4.383484497,35.52127641
32.38103908,34.33574844,-22.432202,-4.220174103,41.23053695
32.39097908,38.03859833,-21.88389221,-3.369493103,44.01355683
32.40091808,38.50951904,-18.11248489,-1.921105042,42.59971609
32.41085708,36.29741913,-13.4568663,-0.3052153015,38.71282788
32.42079608,33.38297974,-9.98079483,1.419198761,34.8719619
32.43073508,30.62616257,-8.711584167,3.11592041,31.99316321
32.44067408,27.76276703,-9.252708893,4.526736603,29.6120786
32.45061308,23.82804932,-9.57828186,5.018613739,26.16688559
32.46055308,18.98202667,-8.252788239,4.381837921,21.15718209
32.47049208,13.9532341,-5.835315399,2.54605545,15.33708075
32.48043108,9.465566254,-3.251388702,-0.356408844,10.01476411
32.49037008,6.104455719,-1.320553894,-3.32189209,7.074122509
32.50030908,3.795207825,-0.02559677124,-5.650599518,6.806873918
32.51024808,2.482437744,1.071322174,-7.068002014,7.567488409
32.52018708,1.667831726,2.004182281,-7.68980896,8.119825806
32.53012608,0.7315287781,2.888692932,-7.736960907,8.290973724
32.54006642,-0.5153782654,3.636238403,-7.287445679,8.160558131
32.55000542,-1.753603363,3.881727905,-6.485413513,7.759093035
32.55994442,-2.943479004,3.49268692,-5.611530762,7.235482573
32.56988342,-3.968697052,3.015628967,-4.900209961,6.989751928
32.57982242,-4.584815826,2.733765106,-4.431983643,6.938046326
32.58976142,-4.71549408,2.543959808,-4.132306824,6.766356154
32.59970042,-4.40533905,2.256407776,-3.816014557,6.249828421
32.60963942,-3.692221985,1.795366516,-3.327580261,5.284754915
32.61957942,-2.69349884,1.299747162,-2.603086853,3.964888378
32.62951842,-1.749112701,0.9538165283,-1.815424805,2.695353119
32.63945742,-0.9231303406,0.6942562866,-1.047371979,1.559214379
32.64939642,-0.2163002014,0.4731660461,-0.3623963928,0.6340370887
32.65933542,0.4854405212,0.2435435486,0.1360670471,0.5598930264
32.66927442,1.093775482,-0.002245330811,0.3990701294,1.164305293
32.67921342,1.47428421,-0.2339634705,0.4816983032,1.568529915
32.68915242,1.760788422,-0.3737727356,0.3836521912,1.840454
32.69909242,2.053280182,-0.453407135,0.1487905884,2.108002888
32.70903142,2.243833923,-0.613125,-0.1893562317,2.333788492
32.71897042,2.279759216,-1.003064117,-0.6111790466,2.56456225
32.72890942,2.517614594,-1.645677795,-1.01444046,3.17422874
32.73884842,3.379671936,-2.791544952,-1.272204437,4.564363017
32.74878742,4.787644043,-4.682412872,-1.426832886,6.847070751
32.75872642,6.929390259,-7.002288666,-1.764081573,10.00802077
32.76866542,9.443262634,-9.506580963,-2.296224976,13.59496009
32.77860542,12.58477982,-12.62833923,-3.083887024,18.09314771
32.78854442,17.0758905,-16.85270462,-4.016298065,24.325508
32.79848342,24.05512711,-23.04383011,-4.937183075,33.67555527
32.80842242,32.13786896,-29.68207581,-5.556894379,44.09928934
32.81836142,30.67570953,-28.13145035,-4.420307922,41.85590491
32.82830042,25.67490875,-25.13108963,-2.672841797,36.02661084
32.83823942,23.42014755,-23.09143112,-0.217048645,32.89019022
32.84817842,21.09727798,-19.50758377,2.011666718,28.80430117
32.85811842,19.7155014,-15.93211899,2.955005035,25.51990333
32.86805742,19.40564575,-13.52407654,3.182382202,23.86644694
32.87799642,19.57404556,-11.95967972,3.063529358,23.14222139
32.88793542,19.70936417,-10.20832169,2.555186462,22.34273585
32.89787442,19.37825272,-7.547305298,1.457369385,20.84712021
32.90781342,17.91669205,-4.19128418,0.1681004333,18.40116775
32.91775242,15.48814224,-0.910556488,-1.092128906,15.55327646
32.92769142,12.48269211,1.823657684,-2.132465515,12.79416816
32.93763142,9.532477112,3.877237244,-2.877017212,10.68542543
32.94757042,6.911577301,5.205275574,-3.070714417,9.18118084
32.95750942,4.97640152,5.724695435,-2.835852814,8.09807206
32.96744842,3.715723114,5.412444763,-2.579136658,7.053587915
32.97738742,2.330653381,5.036726074,-2.586471405,6.122939577
32.98732642,0.5457650757,5.003046112,-2.732567596,5.726714205
32.99726542,-1.251547394,5.197641449,-2.94632309,6.104315462
33.00720442,-2.639461212,5.36364624,-3.196452942,6.778847092
33.01714442,-3.129841461,5.587730255,-3.329975281,7.218543644
33.02708342,-2.51686615,5.722749481,-3.328777771,7.082742286
33.03702242,-1.195264435,5.752986603,-3.293301544,6.735825635
33.04696142,0.3495231628,5.657784576,-3.313060455,6.565749183
33.05690042,1.62756546,5.392386475,-3.445235596,6.602760751
33.06683942,2.528092804,4.965923309,-3.60734848,6.638118001
33.07677842,3.09017395,4.398603058,-3.650009766,6.497649975
33.08671742,3.423530731,3.818409576,-3.506907349,6.212826532
33.09665742,3.619622955,3.343297577,-3.101699982,5.822357925
33.10659642,3.602558441,2.92282196,-2.469564514,5.255479467
33.11653542,3.532953186,2.51447113,-1.708696747,4.660897752
33.12647442,3.49268692,2.16928894,-0.8647517395,4.2014845
33.13641342,3.585793304,1.855242004,0.02814147949,4.037403678
33.14635242,3.76886261,1.468596039,0.8065228271,4.124509518
33.15629142,4.125121765,1.016536102,1.390757904,4.470367185
33.16623042,5.036576385,0.2139051819,1.652563477,5.305075226
33.17617042,6.574029236,-1.190175018,1.414708099,6.829039169
33.18610942,8.225245514,-3.117417297,0.8425978088,8.836454348
33.19604842,10.34453842,-5.376818848,0.009131011963,11.65846214
33.20598742,13.74142456,-8.650660858,-1.200653229,16.28196089
33.21592642,19.07797714,-14.0288269,-2.356848907,23.79772958
33.22586542,29.26474365,-23.18289093,-3.42368042,37.49124218
33.23580442,36.94212845,-27.04276428,-4.033661957,45.95979094
33.24574342,32.47062698,-21.50083878,-3.499123535,39.10078708
33.25568342,32.14310806,-20.80718124,-4.112098846,38.51009665
33.26562242,28.93782349,-17.2803653,-3.01068924,33.83892585
33.27556142,26.32261185,-18.12790283,-2.505489807,32.05898056
33.28550042,25.76906296,-19.8469281,-2.694097595,32.63745276
33.29543942,24.25406342,-19.0851622,-1.845661926,30.91778576
33.30537842,21.60172897,-17.26330078,-1.022523651,27.67131734
33.31531742,16.3991478,-13.8351297,-0.1972897339,21.45650916
33.32525742,11.27200974,-10.97308136,-0.02365081787,15.73109269
33.33519642,7.57394989,-8.685089264,0.002993774414,11.52369305
33.34513542,4.791835327,-5.967939606,-0.001646575928,7.653626046
33.35507442,2.49695755,-2.634671173,-0.2897973633,3.641465599
33.36501342,0.8869056702,0.4167333984,-0.9324110413,1.352648788
33.37495242,0.04161346436,2.297272797,-1.84641037,2.947613482
33.38489142,-0.5122348022,2.997217255,-2.696043549,4.063784761
33.39483042,-0.8912466431,3.084485779,-3.647315369,4.859144214
33.40477042,-1.012644196,2.852468262,-4.482279053,5.408590293
33.41470942,-1.107397156,2.705174561,-5.089117126,5.868850909
33.42464842,-1.464554443,2.776875458,-5.530249786,6.359215339
33.43458742,-1.887275391,2.840193787,-5.750741272,6.685771034
33.44452642,-2.180665283,2.665207672,-5.90776474,6.838151595
33.45446542,-2.251018982,2.556234283,-6.045178986,6.938703707
33.46440442,-2.084714813,2.61401413,-6.166127472,7.014287827
33.47434342,-1.575174408,2.54021759,-6.181695099,6.866384355
33.48428342,-0.7436535645,2.321222992,-6.006110229,6.481855976
33.49422242,0.3513194275,2.130070496,-5.690716095,6.086450142
33.50416142,1.526824951,1.981429596,-5.238955536,5.805507108
33.51410042,2.41852066,1.810784454,-4.642296295,5.538871493
33.52403942,3.013233948,1.66274231,-3.906276855,5.20608199
33.53397842,3.445984039,1.506616974,-3.030747528,4.83012746
33.54391667,3.801794128,1.4040802,-2.123334503,4.575328318
33.55385567,4.128564606,1.21098175,-1.349743195,4.509249294
33.56379567,4.279750214,0.8684939575,-0.6484515381,4.414865008
33.57373467,4.431384888,0.5222639465,-0.09610015869,4.463089389
33.58367367,4.831053772,-0.05897735596,0.3147953796,4.841658291
33.59361267,5.316045227,-0.9181906128,0.5316943359,5.420895657
33.60355167,6.083499298,-2.172432404,0.5072950745,6.479643088
33.61349067,6.912475433,-3.882476349,0.1998344421,7.930691837
33.62342967,8.217012634,-6.10789856,-0.3225791931,10.24352375
33.63336867,9.975555725,-8.841963043,-0.889151001,13.35973847
33.64330867,12.23271194,-12.06895248,-1.411864014,17.24216389
33.65324767,15.2803743,-16.04693024,-1.850302277,22.23549926
33.66318667,19.42764999,-21.25519958,-1.872905273,28.8569726
33.67312567,23.55007736,-26.8421814,-1.267414398,35.73115147
33.68306467,27.22478577,-30.66612946,-0.5596861267,41.01114122
33.69300367,27.46817963,-29.60169296,0.8978329468,40.39266298
33.70294267,24.03641602,-24.746689,2.610571289,34.59715297
33.71288167,21.3783934,-21.06299927,3.681294708,30.23636177
33.72282167,19.78316071,-17.97057999,4.354594574,27.07910055
33.73276067,18.71513168,-14.92531265,4.524940338,24.36177737
33.74269967,17.83810547,-12.18136871,4.0742276,21.98142582
33.75263867,16.97679657,-9.855355682,3.144510956,19.88033215
33.76257767,16.07028168,-7.595056,2.133962402,17.90230779
33.77251667,15.04880585,-5.094805298,1.027762756,15.92105194
33.78245567,13.72301285,-2.530487823,-0.1660047913,13.95535768
33.79239467,12.10203369,-0.1630110168,-1.501826935,12.19595327
33.80233467,10.06581802,1.919608154,-2.935246124,10.65932727
33.81227367,7.989186401,3.43775116,-4.283342743,9.694960415
33.82221267,6.038892059,4.417613525,-5.526208191,9.301747338
33.83215167,4.183949432,4.547094269,-6.597979431,9.03962564
33.84209067,2.531535645,4.039200439,-7.348069611,8.758877777
33.85202967,1.236578522,3.441792755,-7.68277359,8.508823294
33.86196867,0.2073188782,2.963537292,-7.599995728,8.159992001
33.87190767,-0.4980143738,2.77313324,-7.28490097,7.810766187
33.88184767,-1.062191162,3.031945038,-6.875202942,7.588765135
33.89178667,-1.530866547,3.373534698,-6.424041138,7.41569911
33.90172567,-1.773961029,3.433260498,-6.023773499,7.156819303
33.91166467,-1.663939819,3.336262207,-5.547913055,6.684211285
33.92160367,-1.54448822,2.962938538,-5.072501678,6.074102561
33.93154267,-1.388362885,2.325863342,-4.524042206,5.27296403
33.94148167,-0.9882449341,1.74102951,-3.835474091,4.326508212
33.95142067,-0.5170248413,1.39000946,-3.100652161,3.437075037
33.96136067,-0.0217048645,1.279239807,-2.35071167,2.676335356
33.97129967,0.4640350342,1.291963348,-1.596879272,2.105830292
33.98123867,0.8204438782,1.4040802,-0.9023236084,1.859773443
33.99117767,1.174008636,1.411714325,-0.3040177917,1.861091194
34.00111667,1.649719391,1.278191986,0.1954934692,2.096083614
34.01105567,2.180365906,1.131197662,0.6077362061,2.530404499
34.02099467,3.059338074,0.8650511169,0.9147477722,3.308266369
34.03093367,4.25445282,0.05852828979,1.188678131,4.417776596
34.04087367,5.414540405,-1.191222839,1.189127197,5.670121969
34.05081267,6.935677185,-2.975362701,0.9816586304,7.610522642
34.06075167,8.734935608,-5.159321136,0.5149291992,10.15789578
34.07069067,11.6466806,-7.969128113,-0.4626878357,14.11971147
34.08062967,15.39997559,-11.9891684,-1.965861969,19.61540263
34.09056867,19.73615845,-17.11106735,-3.305725708,26.32930684
34.10050767,25.09711029,-23.2722551,-4.239334259,34.48818286
34.11044767,32.01721985,-31.29512146,-4.258494415,44.97356744
34.12038667,39.82019348,-38.08170868,-3.260519714,55.19506621
34.13032567,39.5226123,-33.41815659,-0.6965016174,51.76190865
34.14026467,32.16211853,-23.26222595,2.497256927,39.7714636
34.15020367,27.53464142,-17.79110321,4.274960175,33.05987169
34.16014267,24.46063385,-14.30126038,5.453908539,28.85470109
34.17008167,21.79617462,-12.01581299,6.111640778,25.6282099
34.18002067,18.58699814,-10.9950856,6.111640778,22.44371984
34.18996067,15.2272348,-10.34663406,5.286107483,19.15370587
34.19989967,11.69892197,-9.16993103,4.065246277,15.4103419
34.20983867,8.119565277,-7.276069336,2.361489258,11.15549895
34.21977767,4.938829651,-4.859195251,0.1760339355,6.930714592
34.22971667,2.419269104,-2.433489532,-2.162702637,4.056108603
34.23965567,0.9777667236,-0.3478765869,-4.223467255,4.349105832
34.24959467,0.7520361328,0.9830058289,-5.566324768,5.702265359
34.25953367,1.347198486,2.036814423,-6.06688385,6.53992633
34.26947367,1.991159363,2.633323975,-5.829028473,6.699006173
34.27941267,2.159110107,2.979703674,-5.177283783,6.35174447
34.28935167,1.470541992,3.349883881,-4.564907227,5.850008013
34.29929067,0.3336561584,3.582200775,-4.245172119,5.564618149
34.30922967,-0.5514532471,3.615132294,-4.246519318,5.60412424
34.31916867,-0.8967851257,3.581152954,-4.563709717,5.869951143
34.32910767,-1.035396881,3.687881012,-5.051844635,6.339845998
34.33904667,-1.079704742,3.681594086,-5.546865234,6.744450405
34.34898667,-1.010249176,3.3920961,-6.008205872,6.973195619
34.35892567,-0.6991960144,2.985840912,-6.28213623,6.990662103
34.36886467,-0.2517764282,2.668800201,-6.195017395,6.750120474
34.37880367,0.1513352966,2.367776184,-5.748945007,6.219295388
34.38874267,0.5990542603,2.017654266,-4.955145721,5.383610672
34.39868167,1.131047974,1.638343048,-3.948788452,4.422258213
34.40862067,1.69312912,1.309776306,-2.935096436,3.632766339
34.41855967,2.228715363,1.01444046,-1.924398193,3.114413271
34.42849967,2.685116272,0.6703060913,-0.9249266052,2.917987127
34.43843867,3.274889832,0.1480421448,0.02634521484,3.278340122
34.44837767,3.85777771,-0.5878276062,0.9418414307,4.014356167
34.45831667,4.663103027,-1.64627655,1.763033752,5.250051841
34.46825567,5.217250671,-3.081791382,2.652334442,6.614531025
34.47819467,5.603746948,-4.301455078,3.448678436,7.861162675
34.48813367,6.607709198,-5.459896088,3.916306,9.423891915
34.49807267,7.940387878,-6.984326019,3.94908783,11.28830653
34.50801267,10.04261627,-8.686137085,3.313060455,13.68500963
34.51795167,13.07545944,-11.40672958,1.668879547,17.43176062
34.52789067,16.94012283,-15.86685471,-0.143102417,23.21088792
34.53782967,22.27712448,-22.0684584,-1.229842529,31.38151756
34.54777158,28.53471176,-28.85549469,-0.8665480042,40.59088881
34.55771058,34.76385818,-35.57262634,0.8431965637,49.74583964
34.56764958,39.36005035,-39.08641937,2.923869781,55.54737399
34.57758858,35.41290848,-31.99566467,4.707710266,47.95788966
34.58752858,25.82205276,-19.97371445,6.324498138,33.25247291
34.59746758,20.27324158,-13.41375595,6.741081848,25.22648127
34.60740658,16.355289,-10.45964905,6.425388336,20.44958072
34.61734558,13.11063629,-9.197623444,5.883814545,17.06177994
34.62728458,10.66142944,-9.071435852,4.646337891,14.74942311
34.63722358,8.866212616,-8.61772934,2.43962677,12.60264908
34.64716258,7.585176544,-7.314988403,-0.6477030945,10.55762653
34.65710158,6.666536865,-5.458249512,-4.355193329,9.654165445
34.66704158,6.147266693,-3.30437851,-8.195008392,10.76410552
34.67698058,5.422922974,-1.053209839,-11.87570435,13.0976982
34.68691958,4.219425659,1.177002411,-14.53103256,15.17694946
34.69685858,3.144660645,2.64904129,-14.92845612,15.48435056
34.70679758,2.789299622,3.273542633,-13.04372543,13.73444746
34.71673658,2.595003662,3.508254547,-9.889335022,10.8092942
34.72667558,1.955683136,3.516337738,-7.067552948,8.132627637
34.73661458,0.7866142273,3.438649292,-4.955894165,6.083087857
34.74655458,-0.4378395081,3.212319946,-3.324885864,4.64387434
34.75649358,-1.423240356,2.833757172,-1.994003448,3.745910113
34.76643258,-1.925745392,2.393372955,-0.9141490173,3.205058165
34.77637158,-1.925446014,1.896556091,-0.08143066406,2.703867289
34.78631058,-1.684147797,1.449286194,0.5031037903,2.278134697
