Time (s),Acceleration x (m/s^2),Acceleration y (m/s^2),Acceleration z (m/s^2),Absolute acceleration (m/s^2)
4.97217175,9.814041595,-5.764063568,-3.917952576,12.03703425
4.98211075,9.080117798,-6.003565521,-4.082161102,11.6256345
4.99205075,8.183482361,-6.027665405,-4.151017914,10.97875601
5.00198975,7.455246735,-5.816005554,-4.089645538,10.30203015
5.01192975,7.218439178,-5.34733017,-3.901337128,9.79388766
5.02186875,7.455546112,-4.722679138,-3.561843109,9.517121015
5.03180875,7.890691223,-4.082310791,-3.084036713,9.404230528
5.04174775,8.093968506,-3.548221436,-2.547103271,9.197278761
5.05168775,8.153394928,-3.170556793,-2.093396759,8.995142535
5.06162675,8.071814575,-2.966980133,-1.76677597,8.779445254
5.07156675,7.917485504,-2.89243515,-1.514400787,8.56423771
5.08150675,7.740553436,-2.883154449,-1.331930237,8.366766713
5.09144575,7.519762573,-2.967728577,-1.318009186,8.190933419
5.10138575,7.333998871,-3.093167725,-1.415905609,8.084554082
5.11132475,7.257657623,-3.195105743,-1.531315613,8.076337189
5.12126475,7.243137817,-3.263663177,-1.645827484,8.113155421
5.13120375,7.31304245,-3.257376251,-1.797013092,8.204897682
5.14114375,7.479645996,-3.173999634,-2.129022675,8.399530668
5.15108275,7.729925537,-3.133284302,-2.102378082,8.601698258
5.16102275,7.882308655,-3.355572052,-2.018253021,8.801363462
5.17096175,8.152047729,-3.301384735,-2.293680267,9.089333998
5.18090175,8.368198242,-3.155438232,-2.273322601,9.227758553
5.19084175,8.554411011,-3.117267609,-2.424807587,9.422048446
5.20078075,8.787775726,-3.034789124,-2.580334167,9.648475095
5.21072075,9.00617157,-2.901117096,-2.688559113,9.836460586
5.22065975,9.193881226,-2.798730011,-2.802621918,10.01074579
5.23059975,9.459578705,-2.749931488,-2.887495422,10.26564086
5.24053875,9.857002258,-2.812501373,-2.989134064,10.67733955
5.25047875,10.37013519,-2.994672546,-3.127745819,11.23790734
5.26041775,10.92563004,-3.276835785,-3.245700531,11.85924181
5.27035775,11.51570297,-3.611240387,-3.297043762,12.51091402
5.28029675,12.11311066,-3.901486816,-3.315605164,13.15075233
5.29023675,12.66665955,-4.090843048,-3.323538666,13.71951785
5.30017675,13.06034088,-4.097279663,-3.244802399,14.06730064
5.31011575,13.30178879,-3.848796387,-3.169958038,14.20561342
5.32005575,13.57571915,-3.514391785,-3.153492279,14.3734343
5.32999475,14.03271881,-3.298390961,-3.265609131,14.78041891
5.33993475,14.71544907,-3.356170807,-3.47517334,15.48822628
5.34987375,15.466138,-3.679648132,-3.688330078,16.32008008
5.35981375,16.02043533,-4.09997406,-3.735182648,16.95333964
5.36975275,16.23044861,-4.376898193,-3.572770386,17.18573211
5.379692208,15.88122482,-4.446952515,-3.301085358,16.81921083
5.389632208,15.02710098,-4.241130524,-2.914439392,15.88379391
5.399571208,13.97763336,-3.776945801,-2.499202881,14.69304492
5.409511208,12.96738419,-3.139421539,-2.143392792,13.51307341
5.419450208,12.16849548,-2.558030548,-1.974244537,12.59021223
5.429390208,11.53636002,-2.193987579,-1.94355835,11.90288213
5.439329208,11.24356888,-2.146536255,-2.129621429,11.64305572
5.449269208,11.09702362,-2.505639496,-2.334245911,11.61339169
5.459208208,10.99538498,-3.11831543,-2.585573273,11.71783133
5.469148208,10.95736404,-3.899989929,-2.797083435,11.96233355
5.479087208,10.83866089,-4.758604431,-2.966381378,12.20329072
5.489027208,10.56547897,-5.591173096,-3.141966248,12.35971336
5.498967208,10.14754807,-6.260281677,-3.252586212,12.358931
5.508906208,9.538165283,-6.75021286,-3.313359833,12.1457945
5.518846208,8.977730713,-6.867419128,-3.012485504,11.69769905
5.528785208,8.652307434,-6.678661652,-2.976410522,11.32810509
5.538725208,8.56848175,-6.363566895,-2.780018921,11.02915991
5.548664208,8.7416716,-5.745502167,-2.279759216,10.7063028
5.558604208,9.138047333,-5.026547241,-1.794468384,10.58254237
5.568543208,9.18400177,-4.470453644,-1.428329773,10.31363031
5.578483208,9.273815002,-4.016597443,-1.13853241,10.1701994
5.588423208,9.38054306,-3.63189743,-0.889151001,10.09830959
5.598362208,9.430389404,-3.381019135,-0.6798861694,10.04120411
5.608302208,9.414672089,-3.277883606,-0.5972579956,9.986855791
5.618241208,9.394164734,-3.322490845,-0.6532415771,9.985789955
5.628181208,9.316925354,-3.558849335,-0.8153544617,10.00676319
5.638120208,9.058862,-3.900438995,-1.004860382,9.913937133
5.648060208,8.766519928,-4.21927597,-1.304836578,9.816147913
5.657999208,8.533604279,-4.521647186,-1.594484253,9.788262118
5.667939208,8.282875671,-4.799768829,-1.760339355,9.733581296
5.677878208,8.029752045,-4.997956696,-1.862576752,9.63979674
5.687818208,7.798932037,-5.152435455,-1.981878662,9.55503925
5.697758208,7.622449036,-5.277275848,-2.06525528,9.498244525
5.707697208,7.46752121,-5.342989197,-2.057172089,9.409748327
5.717637208,7.32352066,-5.365292816,-1.973645782,9.2906189
5.727576208,7.184459839,-5.336702271,-1.855092316,9.139924606
5.737516208,7.047045593,-5.266049194,-1.720821533,8.964003149
5.747455208,6.927593994,-5.212161255,-1.629212036,8.821140252
5.757395208,6.91052948,-5.282365265,-1.586850128,8.841769835
5.767334208,6.884483643,-5.480104065,-1.594334564,8.942570005
5.777274208,6.876400452,-5.738167419,-1.684297485,9.113084358
5.787213208,6.872957611,-6.106551361,-1.84057251,9.376311802
5.797153208,6.78059967,-6.514153748,-2.002685394,9.613609089
5.807093208,6.591542816,-6.904541931,-2.127525787,9.779954087
5.817032208,6.299350433,-7.20421875,-2.175426178,9.814023779
5.826972208,6.01075058,-7.311695251,-2.116448822,9.698936313
5.836911208,5.748046875,-7.25571167,-1.969454498,9.463833564
5.846851208,5.632038116,-7.11410614,-1.801354065,9.250688406
5.856790208,5.749244385,-7.08716217,-1.683998108,9.279953031
5.866730208,6.122418365,-7.255861359,-1.66274231,9.638269694
5.876669208,6.506220245,-7.51781662,-1.689835968,10.08484081
5.886609208,6.677464142,-7.606282654,-1.678160248,10.25964351
5.896548208,6.664740601,-7.42530899,-1.604363708,10.1058381
5.906488208,6.68584671,-7.116800537,-1.498084717,9.878950042
5.916428208,6.764433289,-6.729855194,-1.390907593,9.642776186
5.926367208,6.941365356,-6.16986969,-1.32100296,9.380559356
5.936307208,7.203919373,-5.608087921,-1.282532959,9.219110328
5.946246208,7.681426392,-5.260361023,-1.302740936,9.400683137
5.956186208,8.299191742,-5.07818985,-1.41351059,9.831714393
5.966125208,8.891210632,-4.985532532,-1.61005188,10.31995292
5.976065208,9.346114655,-4.95769043,-1.856738892,10.74132361
5.986004208,9.655371552,-4.991669769,-2.138153687,11.07766528
5.995944208,9.820627899,-5.099595337,-2.466720428,11.3373416
6.005883208,9.705367584,-5.28416153,-2.857857056,11.41419598
6.015823208,9.410480804,-5.383704529,-3.156336365,11.29176172
6.025763208,9.064400482,-5.360802155,-3.338657227,11.04754217
6.035702208,8.674611053,-5.155578918,-3.428470459,10.65754571
6.045642208,8.243058472,-4.757406921,-3.387605438,10.10231677
6.055581208,7.949818268,-4.240831146,-3.226390686,9.570467918
6.065521208,7.74010437,-3.706741791,-2.967129822,9.080363965
6.075460208,7.635322266,-3.201242981,-2.677033081,8.701299262
6.085400208,7.626939697,-2.725532227,-2.379451904,8.441595017
6.095339208,7.626191254,-2.323917389,-2.073188782,8.237566194
6.105279208,7.622299347,-2.068548431,-1.849404144,8.111635818
6.115218208,7.590565338,-1.986668701,-1.715133362,8.031514
6.125158208,7.514673157,-2.014660492,-1.648222504,7.952723243
6.135098208,7.38444397,-2.16000824,-1.638642426,7.866434856
6.145037208,7.228318634,-2.407144318,-1.702110443,7.806414926
6.154977208,7.094796295,-2.689157867,-1.844614105,7.808348462
6.164916208,7.015610962,-2.91354126,-2.065105591,7.872241164
6.174856208,7.0708461,-3.140918427,-2.288890228,8.068534663
6.184795208,7.281757507,-3.377276917,-2.433339844,8.387558319
6.194735208,7.523953857,-3.563639374,-2.58242981,8.716556141
6.204674208,7.822133789,-3.679348755,-2.725382538,9.063724083
6.214614208,8.190517731,-3.710184631,-2.816542969,9.422471278
6.224553208,8.539591827,-3.709286499,-2.855162659,9.738346303
6.234493208,8.874744873,-3.695365448,-2.835852814,10.02291792
6.244433208,9.231902161,-3.608845367,-2.765499115,10.29076128
6.254372208,9.61690155,-3.429967346,-2.694396973,10.55979386
6.264312208,10.08318192,-3.21306839,-2.662513275,10.91253146
6.274251208,10.63598236,-3.063828735,-2.656825104,11.38287692
6.284191208,11.27979355,-3.037932587,-2.713706818,11.99278873
6.294130208,12.02030365,-3.109184418,-2.840493164,12.73668438
6.304070208,12.79404465,-3.210224304,-2.950214996,13.51654124
6.314009208,13.51225113,-3.292253723,-3.020419006,14.23175309
6.323949208,14.21429123,-3.292104034,-3.123853912,14.92120931
6.333888208,14.86528748,-3.159779205,-3.357817383,15.5639299
6.343828208,15.3493808,-2.8877948,-3.625610504,16.03396087
6.353768208,15.50625458,-2.49695755,-3.866908722,16.17503357
6.363707208,15.6147789,-2.147883453,-4.163741455,16.30249878
6.373647958,15.89439743,-2.107018433,-4.580774231,16.67497793
6.383586958,16.27086456,-2.514770508,-4.944068756,17.19037289
6.393526958,16.44465317,-3.27503952,-5.124892731,17.53331193
6.403465958,16.21173752,-4.008065186,-5.05244339,17.44741253
6.413405958,15.44742691,-4.398603058,-4.62882431,16.71516442
6.423344958,14.25126434,-4.416565704,-4.01225647,15.45000938
6.433284958,12.98010773,-4.135899353,-3.316802673,14.02105702
6.443223958,11.91761719,-3.745361481,-2.730322266,12.78718076
6.453163958,11.00616257,-3.256478119,-2.308649139,11.70769512
6.463103958,10.37297928,-2.75202713,-2.125130768,10.94022546
6.473042958,10.1776355,-2.532733154,-2.223476257,10.72114025
6.482982958,10.23391846,-2.679877167,-2.474504242,10.86452944
6.492921958,10.33435959,-3.065325623,-2.806513824,11.13874899
6.502861958,10.38046371,-3.592229919,-3.132984924,11.42251011
6.512800958,10.34094589,-4.1432341,-3.391347656,11.64486108
6.522740958,10.28765671,-4.672533417,-3.561244354,11.84697896
6.532679958,10.2665506,-5.12968277,-3.675007782,12.05078374
6.542619958,10.24065445,-5.464237061,-3.798950043,12.21314503
6.552558958,10.16865417,-5.627996521,-3.855682068,12.24508705
6.562498958,10.16311569,-5.564528503,-3.617527313,12.13834428
6.572438958,10.26684998,-5.299729156,-3.279380493,12.01039858
6.582377958,10.42342438,-4.961282959,-2.836750946,11.88735716
6.592317958,10.51458481,-4.589306488,-2.398911438,11.72062301
6.602256958,10.46114594,-4.257446594,-1.906884613,11.4541536
6.612196958,10.46488815,-3.979774017,-1.52457962,11.29941717
6.622135958,10.48359924,-3.79341156,-1.222058716,11.21558076
6.632075958,10.29783554,-3.729793854,-0.9548643494,10.99402315
6.642014958,10.00983444,-3.727698212,-0.7937992859,10.71086536
6.651954958,9.702523499,-3.813170471,-0.7756869507,10.45375155
6.661893958,9.316625977,-4.018842773,-0.869841156,10.18367519
6.671833958,8.938212891,-4.317920837,-1.197809143,9.998541733
6.681773958,8.588240662,-4.663701782,-1.590891724,9.901460925
6.691712958,8.220455475,-4.969815216,-1.775457916,9.768684779
6.701652958,7.843838654,-5.258265381,-1.890119476,9.630561317
6.711591958,7.314389648,-5.562283173,-1.969454498,9.397767876
6.721531958,6.672225037,-5.764063568,-2.027234344,9.047247915
6.731470958,6.075266418,-5.878874817,-2.063159637,8.702106576
6.741410958,5.587281189,-5.941444702,-2.068099365,8.414006847
6.751349958,5.17533783,-5.983956299,-2.061063995,8.175563554
6.761289958,4.878205719,-5.991889801,-2.013313293,7.984551637
6.771228958,4.697232056,-5.948929138,-1.9083815,7.816371718
6.781168958,4.583618317,-5.856421509,-1.787582703,7.648704575
6.791108958,4.514611816,-5.803731079,-1.728755035,7.553383895
6.801047958,4.556075592,-5.849535828,-1.697619781,7.606366223
6.810987958,4.698878632,-5.994135132,-1.663041687,7.795820933
6.820926958,4.864584045,-6.259682922,-1.63115799,8.093731192
6.830866958,5.046455841,-6.66129776,-1.657952271,8.519883223
6.840805958,5.195994873,-7.124883728,-1.642234955,8.969908946
6.850745958,5.28880188,-7.567363586,-1.527274017,9.357830031
6.860684958,5.413043518,-7.885901184,-1.33387619,9.657520557
6.870624958,5.619164886,-7.96478714,-1.111738129,9.81064778
6.880563958,5.891298981,-7.789651337,-0.8714877319,9.805384362
6.890503958,6.186335449,-7.421417084,-0.6920109558,9.686436754
6.900443958,6.430627441,-7.038513336,-0.6752458191,9.557698268
6.910382958,6.825655975,-6.846911774,-0.9608518982,9.715606862
6.920322958,7.4065979,-7.013814697,-1.532662811,10.31505426
6.930261958,8.0396315,-7.482190704,-2.242486725,11.20926399
6.940201958,8.482261047,-8.096363525,-2.885998535,12.07596134
6.950140958,8.645571442,-8.483608246,-3.159330139,12.51794238
6.960080958,8.765172729,-8.541388092,-3.251987457,12.66329286
6.970019958,8.683592377,-8.150401154,-2.989732819,12.27893798
6.979959958,8.464597778,-7.275470581,-2.441273346,11.42548482
6.989898958,8.436905365,-6.199508057,-1.815125427,10.6259095
6.999838958,8.665180664,-5.26305542,-1.272503815,10.21784587
7.009777958,9.006021881,-4.506528625,-1.050814819,10.12528726
7.019717958,9.647138672,-3.902684326,-1.067430267,10.46124452
7.029657958,10.53943314,-3.64252533,-1.315015411,11.22839735
7.039596958,11.24521545,-3.66707428,-1.78204422,11.96152106
7.049536958,11.57692566,-3.886667633,-2.329156494,12.43206994
7.059475958,11.81448166,-4.383634186,-3.010838928,12.95620996
7.069415958,11.49399811,-5.013075256,-3.556154938,13.03415337
7.079354958,10.89853638,-5.465135193,-3.873944092,12.79270263
7.089294958,10.34244278,-5.7158638,-3.998036041,12.47483522
7.099233958,9.665251007,-5.81884964,-4.014801178,11.9747533
7.109173958,8.992699585,-5.555397491,-3.880231018,11.25998578
7.119112958,8.620423737,-4.92835144,-3.692221985,10.59400097
7.129052958,8.611592102,-4.156556396,-3.299289093,10.11542328
7.138992958,8.71712265,-3.41080719,-2.678080902,9.736218481
7.148931958,8.675209808,-2.841391296,-2.177372131,9.384759939
7.158871958,8.511450348,-2.406096497,-1.897154846,9.046175097
7.168810958,8.256380768,-2.116299133,-1.688638458,8.688961114
7.178750958,7.995922394,-1.96226944,-1.643432465,8.39560281
7.188689958,7.768844604,-1.927691345,-1.806443481,8.20574058
7.198629958,7.567962341,-1.971400452,-2.202968903,8.124872044
7.208568958,7.428452454,-1.988165588,-2.708168335,8.152845147
7.218508958,7.358098755,-1.99385376,-2.859353943,8.142049808
7.228447958,7.17727478,-2.421963501,-2.6011409,8.009064518
7.238387958,7.285050659,-2.596799927,-2.991080017,8.292279098
7.248326958,7.468119965,-2.523452454,-3.08673111,8.465727201
7.258266958,7.663763123,-2.555785217,-3.13582901,8.665952161
7.268206958,7.94727356,-2.604434052,-3.316203918,8.996635048
7.278145958,8.248297577,-2.659220123,-3.480711823,9.339230127
7.288085958,8.506809998,-2.68421814,-3.56408844,9.605913271
7.298024958,8.683442688,-2.647993469,-3.576662292,9.757384869
7.307964958,8.801247711,-2.572550354,-3.450923767,9.797390032
7.317903958,8.924441528,-2.503693542,-3.27743454,9.831363848
7.327843958,9.138795776,-2.437531128,-3.136727142,9.964848389
7.337782958,9.47649353,-2.494263153,-3.056344299,10.26481947
7.347722958,9.9586409,-2.702031097,-3.066223755,10.76462859
7.357661958,10.49362839,-3.011587372,-3.181184692,11.37127219
7.367601958,11.00915634,-3.372786255,-3.304827576,11.97911081
7.377541333,11.54100037,-3.769161987,-3.426524506,12.61516317
7.387480333,12.0514389,-4.17257309,-3.542533264,13.23620368
7.397420333,12.43299545,-4.362977142,-3.5500177,13.64615591
7.407359333,12.80108002,-4.342020721,-3.728296967,14.02216074
7.417299333,13.04447388,-4.08949585,-3.764521637,14.17934759
7.427238333,13.33367249,-3.705394592,-3.747606812,14.33741008
7.437178333,13.7475618,-3.442241821,-3.809577942,14.67505939
7.447117333,14.40948532,-3.428470459,-4.049828339,15.35541554
7.457057333,15.12604523,-3.644321594,-4.313130798,16.14563165
7.466996333,15.57690765,-3.858675842,-4.405488739,16.64144712
7.476936333,15.45506104,-3.860172729,-4.277654572,16.49418606
7.486876333,14.79613129,-3.625161438,-4.034560089,15.7589648
7.496815333,13.7794455,-3.266956329,-3.74191864,14.64745974
7.506755333,12.7787764,-2.858755188,-3.398083649,13.52836206
7.516694333,12.08137665,-2.502945099,-3.011886749,12.70023061
7.526634333,11.55956177,-2.285896454,-2.765199738,12.10351686
7.536573333,11.19971008,-2.239343262,-2.616558838,11.71727547
7.546513333,11.11633347,-2.557731171,-2.640958099,11.70852331
7.556452333,11.11618378,-3.163671112,-2.786156158,11.88869307
7.566392333,11.00286942,-3.875890045,-2.958298187,12.03483225
7.576331333,10.76740906,-4.577481079,-3.122207336,12.10944299
7.586271333,10.59601547,-5.228177948,-3.226989441,12.2483815
7.596210333,10.46623535,-5.786816254,-3.247496796,12.39256068
7.606150333,10.30846344,-6.174210663,-3.180885315,12.42993673
7.616090333,10.15353561,-6.356980591,-3.067720642,12.36593699
7.626029333,10.02884491,-6.34066452,-2.800376587,12.19113882
7.635969333,10.04022125,-6.159092102,-2.505938873,12.04243281
7.645908333,10.0727037,-5.81884964,-2.10971283,11.82240497
7.655848333,9.972412262,-5.345982971,-1.676064606,11.43843227
7.665787333,9.8790065,-4.845573578,-1.309476929,11.08102353
7.675727333,9.742041321,-4.444258118,-1.026565247,10.75698078
7.685666333,9.599687347,-4.143982544,-0.8764274597,10.4926028
7.695606333,9.461075592,-3.958218842,-0.8030799866,10.287098
7.705545333,9.266779633,-3.87888382,-0.818946991,10.07916756
7.715485333,9.061406708,-3.891307983,-0.8922944641,9.901896725
7.725425333,8.910670166,-4.008813629,-0.9996212769,9.821907769
7.735364333,8.768765259,-4.223018188,-1.180894318,9.80406233
7.745304333,8.627309418,-4.481680298,-1.426084442,9.825967785
7.755243333,8.513995056,-4.780309296,-1.683998108,9.908345897
7.765183333,8.409961395,-5.128634949,-1.909728699,10.03381337
7.775122333,8.262667694,-5.442382507,-2.112556915,10.11702039
7.785062333,8.049510956,-5.638774109,-2.288590851,10.09098846
7.795001333,7.754923553,-5.729485474,-2.393672333,9.934561407
7.804941333,7.399861908,-5.735473022,-2.41507782,9.668826605
7.814880333,6.991810455,-5.742508392,-2.412832489,9.363950913
7.824820333,6.612798615,-5.758225708,-2.383044434,9.086537822
7.834759333,6.142776031,-5.728437653,-2.293530579,8.706835121
7.844699333,5.6760466,-5.661227417,-2.115251312,8.291036666
7.854639333,5.251828766,-5.689368896,-2.044747925,8.008221894
7.864578333,4.724924469,-5.800587616,-1.976190491,7.738026672
7.874518333,4.340374146,-5.957760773,-1.997745667,7.637064154
7.884457333,4.068240051,-6.203549652,-1.986968079,7.680016116
7.894397333,4.044888611,-6.574478302,-2.008972321,7.976268464
7.904336333,4.109105072,-7.06964859,-1.994602203,8.416835131
7.914276333,4.068988495,-7.568261719,-1.867965546,8.793437786
7.924215333,3.896098022,-7.949967957,-1.686692505,9.012574655
7.934155333,3.767515411,-8.131540375,-1.452878723,9.078930434
7.944094333,3.901786194,-8.069718933,-1.133742371,9.034913997
7.954034333,4.305646362,-7.747888184,-0.809815979,8.900795685
7.963973333,5.039270782,-7.298522644,-0.7297325134,8.89916807
7.973913333,6.005212097,-7.18550766,-1.130748596,9.432533332
7.983853333,6.827901306,-7.522606659,-1.773511963,10.31286536
7.993792333,7.322173462,-7.896229706,-2.380948792,11.02876171
8.003732333,7.446564789,-8.009693756,-2.70053421,11.26496366
8.013671333,7.594906311,-7.821385345,-2.757415924,11.24544411
8.023611333,7.974367218,-7.403304749,-2.699486389,11.21100711
8.033550333,8.473429413,-6.863826599,-2.562072144,11.20157736
8.043490333,8.879385223,-6.244863739,-2.373763733,11.11200069
8.053429333,9.280101929,-5.631738739,-2.180515594,11.07210103
8.063369333,9.813592529,-5.195096741,-2.107916565,11.30216531
8.073308333,10.3500769,-5.014721832,-2.146386566,11.69950863
8.083248333,10.82563797,-4.970264282,-2.186503143,12.11110071
8.093188333,11.19985977,-5.080584869,-2.307900696,12.51301751
8.103127333,11.27200974,-5.339396667,-2.533032532,12.72727834
8.113067333,11.06484055,-5.626499634,-2.875670013,12.74196502
8.123006333,10.72010742,-5.864205322,-3.287014618,12.65361894
8.132946333,10.40201889,-5.993237,-3.625460815,12.54052841
8.142885333,10.12763947,-5.898484039,-3.808829498,12.32348884
8.152825333,9.833800507,-5.495372314,-3.88696701,11.91684781
8.162764333,9.480684814,-4.802912292,-3.808979187,11.28980396
8.172704333,9.223968658,-4.042792969,-3.621568909,10.70240787
8.182643333,9.183253326,-3.387006683,-3.366798706,10.35081105
8.192583333,9.178463287,-2.795586548,-3.046764221,10.06688952
8.202522333,9.037905579,-2.261197815,-2.706671448,9.701691767
8.212462333,8.89495285,-1.9083815,-2.423310699,9.414591914
8.222402333,8.725654907,-1.780397644,-2.286944275,9.19439957
8.232341333,8.542286224,-1.810036011,-2.22661972,9.011366138
8.242281333,8.33915863,-2.023791504,-2.279459839,8.878808246
8.252220333,8.083340607,-2.349963226,-2.372416534,8.745918062
8.262160333,7.890391846,-2.62913269,-2.474953308,8.677327703
8.272099333,7.878716125,-2.820434875,-2.613265686,8.766879617
8.282039333,7.884703674,-2.945724335,-2.790497131,8.867509128
8.291978333,7.924221497,-3.026855621,-2.96847702,8.987046072
8.301918333,8.032446442,-3.019221497,-3.156336365,9.143213523
8.311857333,8.132288818,-2.943179626,-3.294349365,9.254683435
8.321797333,8.253686371,-2.815046082,-3.354374542,9.343428264
8.331736333,8.409212952,-2.661615143,-3.377127228,9.444789354
8.341676333,8.604407043,-2.494861908,-3.355871429,9.566714669
8.351616333,8.729546814,-2.306703186,-3.233276367,9.590617458
8.361555333,8.879684601,-2.068249054,-3.039130096,9.610554849
8.371495333,9.072184296,-1.857637024,-2.927162933,9.712035113
8.381434958,9.319470062,-1.736838226,-2.936593323,9.924349329
8.391374958,9.666298828,-1.744472351,-3.022963715,10.27710204
8.401313958,10.10503647,-1.976938934,-3.191064148,10.77974675
8.411253958,10.57296341,-2.397115173,-3.38266571,11.35676643
8.421192958,11.00227066,-2.966381378,-3.524570618,11.9277817
8.431132958,11.46585663,-3.577111359,-3.677402802,12.56124537
8.441071958,11.93273575,-4.104913788,-3.748205566,13.16394867
8.451011958,12.46457977,-4.390070801,-3.788621521,13.74744062
8.460951958,12.94508057,-4.395160217,-3.748804321,14.17554507
8.470890958,13.2604747,-4.154610443,-3.594026184,14.35332719
8.480830958,13.55880432,-3.729644165,-3.443139954,14.47779793
8.490769958,14.00158356,-3.427722015,-3.535647583,14.84231869
8.500709958,14.66814743,-3.458108826,-3.793860626,15.5404776
8.510648958,15.4064122,-3.720962219,-4.00058075,16.34649024
8.520588958,15.74455902,-3.959266663,-3.981270905,16.71578444
8.530527958,15.43470337,-3.934568024,-3.729644165,16.35913015
8.540467958,14.48343155,-3.611539764,-3.367098083,15.30197237
8.550406958,13.25807968,-3.269650726,-3.082390137,13.99887216
8.560346958,12.30546066,-3.069516907,-2.759661255,12.97929222
8.570285958,11.58351196,-2.868335266,-2.443518677,12.18096384
8.580225958,10.8941954,-2.519560547,-2.22078186,11.40015574
8.590164958,10.43629761,-2.325563965,-2.170187073,10.91028265
8.600104958,10.3156485,-2.585423584,-2.335742798,10.88819147
8.610044958,10.35621414,-3.21187088,-2.638862457,11.15934053
8.619983958,10.33316208,-3.971840515,-2.921624451,11.44926395
8.629923958,10.16910324,-4.727469177,-3.121608582,11.64062136
8.639862958,10.0369281,-5.429958344,-3.309916992,11.88191583
8.649802958,9.945617981,-6.094127197,-3.486250305,12.17405621
8.659741958,9.885742493,-6.585405579,-3.594624939,12.41035051
8.669681958,9.892328796,-6.846013641,-3.624113617,12.56424575
8.679620958,10.00459534,-6.926396484,-3.571273499,12.68151767
8.689560958,10.18601807,-6.765181732,-3.339255981,12.67569637
8.699499958,10.42387344,-6.330934753,-2.904709625,12.53695379
8.709439958,10.59900925,-5.735473022,-2.373015289,12.282746
8.719378958,10.61487625,-5.203030243,-1.99145874,11.98803693
8.729318958,10.52446426,-4.693340149,-1.603615265,11.63457656
8.739258958,10.43689636,-4.301155701,-1.41934845,11.37731498
8.749197958,10.17868332,-3.971391449,-1.200204163,10.99172571
8.759137958,10.00579285,-3.79805191,-1.060694275,10.75482037
8.769076958,9.769733734,-3.827091522,-0.9852511597,10.53874028
8.779016958,9.462273102,-3.948938141,-0.9885443115,10.30077398
8.788955958,9.110055542,-4.177812195,-1.051263885,10.0773202
8.798895958,8.7615802,-4.426145782,-1.202449493,9.88948628
8.808834958,8.426277466,-4.673730927,-1.402733002,9.737226123
8.818774958,8.076903992,-4.940027161,-1.575473785,9.598039596
8.828713958,7.726333008,-5.154082031,-1.70944519,9.443674401
8.838653958,7.400011597,-5.283862152,-1.810036011,9.271224365
8.848592958,7.110962677,-5.375920715,-1.914967804,9.117752762
8.858532958,6.815926208,-5.421575775,-1.989812164,8.933626722
8.868472958,6.460265808,-5.382956085,-2.051483917,8.655624575
8.878411958,6.05281311,-5.301226044,-2.100731506,8.315805251
8.888351958,5.662724304,-5.212310944,-2.135908356,7.987285923
8.898290958,5.330265656,-5.155728607,-2.131268005,7.715929804
8.908230958,5.052593079,-5.138813782,-2.084864502,7.502183942
8.918169958,4.823719025,-5.245691528,-2.055974579,7.417046333
8.928109958,4.67447937,-5.490731964,-2.086810455,7.506908336
8.938048958,4.530179443,-5.844745789,-2.093696136,7.685515118
8.947988958,4.488266602,-6.321354675,-2.146087189,8.044237207
8.957927958,4.488565979,-6.916067963,-2.191293182,8.531177318
8.967867958,4.498595123,-7.420069885,-2.096390533,8.926905872
8.977806958,4.542753296,-7.777077484,-1.909279633,9.206785021
8.987746958,4.61370575,-7.999963989,-1.620230713,9.376078718
8.997685958,4.773722992,-7.985144806,-1.278790741,9.390754737
9.007625958,5.051844635,-7.63951355,-0.9114546204,9.204023632
9.017565958,5.587879944,-7.105124817,-0.6893165588,9.065448596
9.027504958,6.305487671,-6.727011108,-0.8017327881,9.254978589
9.037444958,7.098688202,-6.775510254,-1.262774048,9.894115003
9.047383958,7.72603363,-7.123087463,-1.877695312,10.675004
9.057323958,7.934999084,-7.4862323,-2.382146301,11.16613208
9.067262958,7.837102661,-7.70148468,-2.643951874,11.30148335
9.077202958,7.769892426,-7.636370087,-2.712359619,11.22685491
9.087141958,7.796087952,-7.273674316,-2.568209381,10.96727062
9.097081958,7.82782196,-6.641838226,-2.22901474,10.50510916
9.107020958,7.969277802,-5.873486023,-1.884431305,10.07761421
9.116960958,8.311615906,-5.134472809,-1.657652893,9.909267536
9.126900958,8.798703003,-4.686005402,-1.5925383,10.09514732
9.136839958,9.392368469,-4.497996368,-1.714085541,10.55398721
9.146779958,9.973609772,-4.445455627,-1.930984497,11.08889845
9.156718958,10.37507492,-4.520749054,-2.13306427,11.51648014
9.166658958,10.5930217,-4.858895874,-2.412982178,11.90140583
9.176597958,10.50186127,-5.36364624,-2.791994019,12.11829285
9.186537958,10.30172745,-5.893095245,-3.285218353,12.31449632
9.196476958,10.15084122,-6.297703857,-3.622317352,12.48286162
9.206416958,9.921967163,-6.468798065,-3.816763,12.44421394
9.216355958,9.646390228,-6.240672455,-3.96660141,12.15453676
9.226295958,9.449998627,-5.52860321,-3.93965744,11.63567051
9.236234958,9.338630219,-4.548591156,-3.722159729,11.03422716
9.246174958,9.386979675,-3.64477066,-3.494333496,10.65880421
9.256113958,9.497899017,-2.901117096,-3.277733917,10.45801634
9.266053958,9.44146637,-2.248174896,-2.990181885,10.15562727
9.275993958,9.365723877,-1.844763794,-2.75786499,9.936083559
9.285932958,9.219627686,-1.694176941,-2.555336151,9.716044103
9.295872958,8.999734955,-1.706601105,-2.456990662,9.483908461
9.305811958,8.679401093,-1.898502045,-2.418370972,9.207867913
9.315751958,8.324638824,-2.237996063,-2.429747314,8.956110202
9.325690958,8.050109711,-2.562970276,-2.498604126,8.810000316
9.335630958,7.838599548,-2.761008453,-2.585573273,8.703562472
9.345569958,7.747888184,-2.89123764,-2.668500824,8.689644587
9.355509958,7.73546402,-3.007545776,-2.844684448,8.773537759
9.365448958,7.823480988,-3.077001343,-3.034938812,8.93787702
9.375388958,8.017627258,-3.088377686,-3.142415314,9.148507943
9.385327958,8.282576294,-3.029999084,-3.118914185,9.354656071
9.395267958,8.52177887,-2.942431183,-3.007695465,9.503938572
9.405207958,8.736582184,-2.873424683,-2.875520325,9.636028995
9.415146958,8.943901062,-2.775677948,-2.754122772,9.761298404
9.425086958,9.104067993,-2.575993195,-2.637814636,9.822314443
9.435025958,9.232650604,-2.325563965,-2.588716736,9.866688364
9.444965958,9.457632751,-2.152074738,-2.585423584,10.03806047
9.454904958,9.831704865,-2.126178589,-2.635120239,10.39840923
9.464844958,10.32837204,-2.316882019,-2.743943939,10.93491836
9.474783958,10.93431198,-2.684966583,-2.875220947,11.62046125
9.484723958,11.51989426,-3.171005859,-3.033142548,12.3273353
9.494662958,12.17702774,-3.721261597,-3.249442749,13.14103004
9.504602958,12.75392807,-4.173770599,-3.385509796,13.83996817
9.514541958,13.2525412,-4.355642395,-3.504811707,14.38350354
9.524481958,13.70250549,-4.314627686,-3.663032684,14.82539973
9.534420958,14.0885527,-4.088448029,-3.733386383,15.13740065
9.544360958,14.46696579,-3.746109924,-3.78517868,15.41603115
9.554300958,15.02455627,-3.582051086,-3.993994446,15.95369465
9.564239958,15.78647186,-3.739972687,-4.292922821,16.78181384
9.574179958,16.33732635,-3.994144135,-4.481081543,17.40521507
9.584118958,16.1548558,-3.977528687,-4.382436676,17.2048206
9.594058958,15.19056107,-3.615281982,-4.105961609,16.14565979
9.603997958,13.82614838,-3.138373718,-4.000431061,14.73143636
9.613937958,12.66171982,-2.805166626,-3.951931915,13.55750251
9.623876958,11.95099777,-2.663561096,-3.804937592,12.82179611
9.633816958,11.47438889,-2.630180511,-3.65764389,12.3271168
9.643755958,11.11708191,-2.759960632,-3.604504395,12.00830316
9.653695958,10.97338074,-3.15573761,-3.649111633,11.98706721
9.663634958,10.90242828,-3.798800354,-3.71617218,12.12863398
9.673574958,10.72759186,-4.540507965,-3.78517868,12.24847
9.683513958,10.47581543,-5.203628998,-3.887416077,12.32608889
9.693453958,10.20697449,-5.77319458,-3.998485107,12.38951117
9.703393958,10.04396347,-6.170767822,-4.061803436,12.46827273
9.713332958,9.962532806,-6.370901642,-4.115841064,12.52120583
9.723272958,9.994416504,-6.283782806,-3.852388916,12.41834079
9.733211958,10.31774414,-5.957461395,-3.600911865,12.4464355
9.743151958,10.7403154,-5.722450104,-3.298989716,12.60889143
9.753090958,11.03325623,-5.434898071,-2.864293671,12.62834266
9.763030958,11.04133942,-5.072052612,-2.477348328,12.40057049
9.772969958,10.96814163,-4.732558594,-2.057621155,12.12151173
9.782909958,10.75333832,-4.501139832,-1.751807098,11.78827268
9.792848958,10.52626053,-4.300856323,-1.427880707,11.46029533
9.802788958,10.27882507,-4.234244843,-1.197809143,11.18113684
9.812727958,9.909393311,-4.264631653,-1.056952057,10.83975584
9.822667958,9.529333649,-4.295617218,-0.9463320923,10.49552626
9.832607958,9.17352356,-4.357887726,-0.9372010803,10.19916986
9.842546958,8.830437012,-4.541406097,-1.068927155,9.987171392
9.852486958,8.526568909,-4.82895813,-1.264270935,9.8802629
9.862425958,8.285270691,-5.125641174,-1.426234131,9.846423293
9.872365958,8.022417297,-5.417085114,-1.58894577,9.809624819
9.882304958,7.671846313,-5.675747223,-1.718276825,9.696587423
9.892244958,7.276069336,-5.89025116,-1.834584961,9.539493995
9.902183958,6.925498352,-6.088439026,-1.92125473,9.419280065
9.912123958,6.653214569,-6.256389771,-1.982028351,9.345379256
9.922062958,6.379882965,-6.32779129,-1.942809906,9.193386731
9.932002958,6.046675873,-6.307433624,-1.798509979,8.920798517
