Time (s),Acceleration x (m/s^2),Acceleration y (m/s^2),Acceleration z (m/s^2),Absolute acceleration (m/s^2)
0.001067625009,-0.1972897339,-0.4306544495,0.08008346558,0.4804163355
0.011007625,-0.07095245361,-0.4120930481,0.08143066406,0.4260116008
0.02094662501,-0.0288899231,-0.4559518433,0.02469863892,0.4575333144
0.030886625,-0.1213975525,-0.5831872559,0.02709365845,0.596304291
0.04082562501,-0.2091151428,-0.7212002563,0.04086502075,0.7520165574
0.050765625,-0.2186952209,-0.8369096375,0.02544708252,0.8653859803
0.06070462501,-0.2639012146,-0.9241781616,0.09250762939,0.9655603487
0.07064362502,-0.7182064819,-1.20050354,3.07266037,3.376132558
0.08058362501,-0.5535488892,-1.945504303,4.673581238,5.092520491
0.09052262502,0.8330177307,-1.974094849,-0.8024812317,2.288000249
0.100462625,2.270628204,-2.368075562,-1.085542603,3.455710788
0.110401625,3.879781952,-3.678450623,-0.9684860229,5.433384963
0.120341625,6.67881134,-6.453978882,-1.064586182,9.348460198
0.130280625,11.90594147,-13.55985214,-4.285737762,18.54692914
0.140220625,20.1030455,-22.55434799,-4.640050964,30.56732119
0.150159625,32.85113571,-34.78062332,-2.442770233,47.90465533
0.160098625,49.0778421,-50.25110229,1.586700439,70.25898865
0.170038625,54.08148697,-52.73189346,5.483247528,75.73325442
0.179977625,43.00227631,-39.82543259,8.041278076,59.16014707
0.189917625,26.64429291,-18.15140396,11.01035385,34.06786906
0.199856625,18.80793869,-5.136269073,6.863078156,20.66934105
0.209796625,16.63610504,-2.832559662,1.247805176,16.92159576
0.219735625,14.00382889,-2.402354279,-1.502276001,14.28759472
0.229674625,9.693093109,-1.449435883,-2.012265472,10.00530513
0.239614625,5.476361847,-0.5990542603,-1.469494171,5.701650481
0.249553625,2.41852066,0.08801696777,-0.8018824768,2.549510674
0.259493625,-0.09984237671,0.6204597473,-0.1980381775,0.6589066079
0.269432625,-1.681752777,1.046623535,0.7035369873,2.102065061
0.279372625,-2.939886475,1.283281403,1.376537476,3.490644505
0.289311625,-4.34681076,1.410516815,0.400866394,4.587484642
0.299250625,-5.87737793,1.484013977,-2.370021515,6.508676578
0.309190625,-11.52558243,0.6979985046,-6.453978882,13.22800422
0.319129625,-17.343983,-2.054477692,-2.337988129,17.62103327
0.329069625,-9.508975983,-1.982477417,2.223925323,9.96477219
0.339008625,-6.685098267,-1.653012543,2.229463806,7.238335317
0.348948625,-5.108726349,-1.17475708,5.488486633,7.589639295
0.358887625,-2.761756897,-0.3932322693,4.391417999,5.202545994
0.368826625,-0.4787045288,-0.1299298096,1.14437027,1.247246205
0.378766625,1.018781433,-0.0940045166,0.05373825073,1.024519525
0.388705625,1.910177765,0.03607498169,0.02185455322,1.910643378
0.3986452917,2.388882294,0.07469467163,-0.03068618774,2.390246755
0.4085842917,2.672392731,0.01137634277,-0.07110214233,2.673362647
0.4185242917,2.614912262,0.0296383667,-0.08113128662,2.616338445
0.4284632917,2.195783844,0.16615448,-0.1038839722,2.204510349
0.4384022917,1.883982239,0.2330653381,-0.3592529297,1.932038094
0.4483422917,2.253414001,0.05658233643,0.4052073669,2.290255277
0.4582812917,3.215014343,-0.8012837219,1.786385193,3.764245593
0.4682212917,2.064207458,-1.592238922,-2.009122009,3.291314094
0.4781602917,3.214864655,-2.426603851,-2.307301941,4.641918057
0.4881002917,5.664819946,-3.980821838,-2.102228394,7.235778586
0.4980392917,10.73268127,-7.608527985,-2.536026306,13.39819297
0.5079782917,22.14180588,-14.97590744,-3.754492493,26.99321369
0.5179182917,39.8332164,-25.5123468,-5.716013489,47.64701227
0.5278572917,59.62685532,-36.16898621,-5.008883972,69.91885552
0.5377972917,72.746922,-41.66675354,0.807121582,83.83844259
0.5477362917,60.98423264,-32.35910889,10.3568129,69.81011482
0.5576762917,34.68901382,-15.22394165,7.670199738,38.65136535
0.5676152917,24.12368454,-8.428672485,-1.874701538,25.62243512
0.5775542917,18.97424286,-5.704786835,-3.703897705,20.15652111
0.5874942917,12.61217285,-3.090323639,-3.674858093,13.4952431
0.5974332917,7.694598999,-1.858235779,-4.116739197,8.922299904
0.6073732917,3.905079346,-0.955612793,-3.916904755,5.612930016
0.6173122917,1.149609375,0.09205856323,-2.859952698,3.083732467
0.6272522917,-1.206191711,1.320853271,-0.006137237549,1.788739633
0.6371912917,-4.011208649,2.182012482,4.169130249,6.183253215
0.6471302917,-5.348078613,2.154619446,5.338049469,7.857423365
0.6570702917,-5.451663208,1.601369934,3.990102539,6.94304945
0.6670092917,-5.140909424,1.182840271,1.795067139,5.572282014
0.6769492917,-4.330345001,0.9874964905,-0.4683760071,4.466140754
0.6868882917,-3.943699036,0.5457650757,-1.270857239,4.179198455
0.6968282917,-4.267475739,-0.2163002014,-0.6487509155,4.321922339
0.7067672917,-4.805307312,-0.9568103027,0.5046006775,4.925554401
0.7167062917,-5.25721756,-1.466949463,1.226100311,5.594068213
0.7266462917,-4.630919952,-1.303639069,0.3135978699,4.821124148
0.7365852917,-3.578757935,-0.9821076965,-0.5381309509,3.749883838
0.7465252917,-2.848726044,-0.7545808411,-0.5760021973,3.002733896
0.7564642917,-2.278561707,-0.6415658569,-0.4781057739,2.414960731
0.7664042917,-1.837129669,-0.6080355835,-0.422870636,1.980800916
0.7763432917,-1.454525299,-0.6478527832,-0.3854484558,1.638269693
0.7862822917,-1.257534943,-0.7756869507,-0.2821632385,1.504227533
0.7962222917,-1.124910736,-1.032852173,-0.1904040527,1.538980662
0.8061612917,-0.7984396362,-1.363065491,-0.1422042847,1.586088094
0.8161012917,-0.1992356873,-1.520388336,0.03592529297,1.533807738
0.8260402917,0.2396516418,-1.610950012,0.2086660767,1.641990981
0.8359802917,1.422641602,-2.450404358,3.061134338,4.171202954
0.8459192917,2.437830505,-3.884871368,5.167554016,6.9093312
0.8558582917,2.135010223,-3.222947845,-0.7842192078,3.944700399
0.8657982917,4.983287201,-4.723577271,-0.7170089722,6.903581348
0.8757372917,8.833430786,-7.107819214,-0.8373587036,11.36889454
0.8856772917,14.64749039,-10.64526306,-1.327140198,18.15576772
0.8956162917,25.86291779,-17.75203445,-3.067720642,31.51882221
0.9055562917,41.92391876,-25.34574326,-3.388353882,49.10705252
0.9154952917,57.69916397,-30.9442511,-2.383194122,65.51656137
0.9254342917,59.15832962,-29.92427216,-2.849025421,66.35726768
0.9353742917,44.58373764,-17.59321472,-1.031205597,47.94052827
0.9453132917,29.79269577,6.031707001,11.81852325,32.61385752
0.9552532917,18.73039993,14.24901901,12.40889557,26.60532115
0.9651922917,20.830383,7.455246735,1.713187408,22.19055138
0.9751322917,20.97213821,4.239034882,-4.111500092,21.78771284
0.9850712917,14.9206723,1.95987442,-6.863826599,16.54024441
0.9950102917,10.31759445,1.344653778,-5.61871582,11.8250081
1.004950292,6.258485413,1.449136505,-3.447780304,7.29080416
1.014889292,1.802401886,1.711241455,-1.047521667,2.697091307
1.024829292,-1.466949463,1.733096008,1.232985992,2.583760236
1.034768292,-2.611170044,1.262025604,1.594035187,3.309360331
1.044708292,-2.54605545,1.053209839,0.1405577087,2.758877632
1.054647292,-1.892514496,1.287023621,-0.936302948,2.472792779
1.064586292,-1.530267792,1.179547119,-0.8434959412,2.108206898
1.074526292,-1.856140137,0.6265969849,-0.5400769043,2.032132636
1.084465292,-2.394869843,0.08277786255,-0.2389031982,2.408179494
1.094405292,-2.334994354,-0.3558100891,-0.1297801208,2.365511009
1.104344292,-2.587519226,-0.7261399841,0.06601272583,2.688288062
1.114284292,-3.545676727,-1.136736145,0.121098175,3.725406996
1.124223292,-4.1339534,-1.242416382,0.2375559998,4.323147237
1.134162292,-3.89055954,-1.203647003,0.1266366577,4.074463951
1.144102292,-3.766617279,-1.248553619,0.1309776306,3.970320769
1.154041292,-4.201013947,-1.512155457,0.1609153748,4.467776411
1.163981292,-4.413422241,-1.720671844,0.1234931946,4.738592412
1.173920292,-4.573140106,-1.88263504,0.04909790039,4.945739149
1.183860292,-4.436773682,-2.17288147,-0.05897735596,4.940632845
1.193799292,-3.472029877,-2.207609253,2.636916504,4.886906867
1.203738292,-2.086062012,-1.415905609,5.610333252,6.150795283
1.213678292,0.1848655701,-1.38656662,1.680405579,2.18643664
1.223617292,1.586401062,-2.230062561,-0.2655477905,2.749611424
1.233557292,3.751947784,-3.018023987,0.157023468,4.817700419
1.243496292,3.573668518,-3.038531342,-0.0217048645,4.690868842
1.253436292,4.872517548,-3.366798706,-0.4707710266,5.941244494
1.263375292,10.05294479,-5.170697479,-1.211879883,11.36954108
1.273314292,24.74324615,-9.281748505,-1.492845612,26.46899457
1.283254292,48.30215515,-14.36742279,-2.255359955,50.4441045
1.293193292,72.74796982,-18.51784195,-0.8345146179,75.07245832
1.303133292,72.78898453,-16.08734619,-0.1466949463,74.54569401
1.313072292,42.16327103,6.86726944,1.438957672,42.74308614
1.323012292,18.94505356,33.87021652,7.88290741,39.60109659
1.332951292,23.20609268,30.93167725,11.08115662,40.22540773
1.342890292,27.66906189,17.05179062,5.620063019,32.98371807
1.352830292,20.67844894,10.16087036,1.119372253,23.06717433
1.362769292,13.40597214,5.689368896,-2.050436096,14.70691319
1.372709292,7.397616577,3.383414154,-3.528761902,8.867039129
1.382648292,3.42951828,2.710563354,-3.215313721,5.426508238
1.392586917,0.2606080627,2.001038818,-2.381996613,3.121855342
1.402526917,-1.402283936,1.446142731,-1.585053864,2.563225465
1.412465917,-1.475781097,1.068927155,-0.7914042664,1.98666953
1.422405917,-2.121089172,0.06062393188,0.5550457764,2.193346838
1.432344917,-3.898043976,-1.81362854,2.36942276,4.908987628
1.442284917,-4.052522736,-2.294877777,1.591490479,4.921610151
1.452223917,-3.156186676,-1.77156601,0.07319778442,3.620126845
1.462162917,-3.177891541,-2.071242828,-0.4951702881,3.825471881
1.472102917,-4.74468338,-3.589535522,1.082249451,6.047152182
1.482041917,-6.070775757,-4.371808777,2.660417633,7.940078857
1.491981917,-6.479875031,-4.315076752,2.24652832,8.10281169
1.501920917,-7.057823181,-4.617298279,1.63579834,8.591166839
1.511860917,-5.921236725,-3.421884155,0.435743866,6.852751874
1.521799917,-4.229305115,-2.401605835,-0.1914518738,4.867379804
1.531738917,-3.385659485,-2.051334229,-0.1845661926,3.962918993
1.541678917,-3.358865204,-2.169139252,-0.102387085,3.999702947
1.551617917,-3.306174774,-2.19159256,0.1269360352,3.968624742
1.561557917,-2.85261795,-1.823358307,0.4740641785,3.418596427
1.571496917,-0.9217831421,-0.3016227722,2.488125916,2.670473933
1.581436917,0.905766449,0.1868115234,2.463876343,2.631729097
1.591375917,0.980760498,-0.8321195984,-0.2902464294,1.318543579
1.601315917,1.560205536,-0.5465135193,-0.3153941345,1.682971123
1.611254917,2.329755249,-0.4833448792,-0.1901046753,2.386948173
1.621193917,4.399650879,-0.06107299805,0.4384382629,4.421864525
1.631133917,14.87097565,0.3986210632,1.336869965,14.93626582
1.641072917,32.27109192,0.04400848389,-1.844913483,32.323815
1.651012917,60.58216873,0.8816665649,-7.490124207,61.04980315
1.660951917,79.19446426,6.046376495,-11.84397034,80.30318469
1.670891917,73.78890518,19.00118683,-7.193291473,76.534901
1.680830917,46.84942612,31.14932465,3.285517731,56.35551242
1.690769917,29.87996429,24.86284744,5.604944458,39.27325873
1.700709917,24.74728775,14.41098221,3.048859863,28.79930912
1.710648917,17.48304382,8.066725159,1.407223663,19.30567674
1.720588917,10.53718781,4.5586203,-0.07574249268,11.48124918
1.730527917,4.946912842,2.768343201,-0.8705895996,5.735293976
1.740466917,0.7635621643,1.874402161,-1.150956573,2.328328085
1.750406917,-1.520388336,1.670376434,-1.259331207,2.586049732
1.760345917,-1.636696472,1.504221954,-1.033600616,2.451487154
1.770285917,-1.732497253,0.4218228149,-0.3439846802,1.815986421
1.780224917,-2.889890442,-1.382974091,1.696422272,3.625180358
1.790164917,-4.334087219,-3.216660919,3.435206451,6.397801408
1.800103917,-5.101092224,-4.09533371,3.712280273,7.521563993
1.810043917,-5.854774933,-4.451143799,3.837270355,8.295523758
1.819982917,-5.704337769,-4.240232391,2.377206573,7.494674856
1.829921917,-5.543422394,-4.245621185,0.7881111145,7.026802275
1.839861917,-5.457950134,-4.323159943,0.2507286072,6.967194298
1.849800917,-4.734953613,-3.738026733,-0.289947052,6.039594264
1.859740917,-3.831881561,-3.145259399,-0.6366261292,4.998126231
1.869679917,-3.391647034,-2.902613983,-0.5728587341,4.500733792
1.879618917,-3.112926636,-2.646795959,-0.3447331238,4.100570938
1.889558917,-2.801125031,-2.353555756,-0.1095721436,3.66026395
1.899497917,-2.308649139,-1.943708038,-0.01721420288,3.017972517
1.909437917,-2.03247345,-1.690883789,0.05643264771,2.644469882
1.919376917,-1.519490204,-1.490600281,0.06706054688,2.12960954
1.929316917,-0.4592449951,-1.262624359,-0.01556762695,1.343640052
1.939255917,0.9166937256,-0.212258606,0.3498225403,1.003870964
1.949194917,1.253493347,-0.01122665405,-0.192948761,1.268306285
1.959134917,1.456471252,-0.7306306458,-0.3260220337,1.661752092
1.969073917,1.889221344,-0.1550775146,-0.1716929626,1.903335177
1.979013917,3.308120728,0.7458988953,0.9613009644,3.524787576
1.988952917,4.006568298,1.07057373,0.612077179,4.192058696
1.998892917,10.11865814,0.506995697,-0.5221142578,10.14479623
2.008831917,28.48920639,1.110989685,-1.496288452,28.55009734
2.018770917,53.24203262,4.802912292,-4.057612152,53.61199699
2.028710917,77.99276321,13.63948654,-4.618795166,79.31103313
2.038649917,77.60027939,24.03671539,-1.903292084,81.26001211
2.048589917,57.86052841,28.50911499,6.487958221,64.82826534
2.058528917,36.94197876,20.110979,6.180946655,42.51312001
2.068468917,24.25630875,11.67003204,3.368744659,27.12759854
2.078407917,13.77151199,7.887996826,2.2945784,16.03558937
2.088347917,6.298152924,5.887107697,1.162033539,8.699143017
2.098286917,1.063388672,4.384532318,0.09220825195,4.512584789
2.108225917,-2.217488708,3.00709671,-0.2372566223,3.743818572
2.118165917,-3.515140228,2.142195282,0.4334985352,4.139218819
2.128104917,-4.523742828,0.5777984619,1.716330872,4.872770454
2.138044917,-4.912783813,-1.542242889,2.350561981,5.66030914
2.147983917,-3.882027283,-2.257006531,1.03315155,4.607777819
2.157923917,-3.647914124,-2.947969666,0.4569996643,4.712393372
2.167862917,-3.453169098,-3.441493378,0.232616272,4.880815897
2.177801917,-2.769241333,-3.569028168,0.07065307617,4.517925573
2.187741917,-2.132914581,-3.979624329,0.1841171265,4.518919508
2.197680917,-1.736239471,-4.171076202,0.5016069031,4.545768766
2.207620917,-1.676813049,-3.46349762,0.3788621521,3.86665932
2.217559917,-1.532213745,-2.008223877,0.008831634521,2.526008729
2.227498917,-1.212478638,-0.963097229,-0.116308136,1.552800149
2.237438917,-1.016536102,-0.7891589355,-0.05583389282,1.288112921
2.247377917,-1.004561005,-0.7122189331,0.03682342529,1.231971828
2.257317917,-0.9996212769,-0.5471122742,0.1121168518,1.145052281
2.267256917,-0.9651928711,-0.373024292,0.1092727661,1.040521474
2.277196917,-0.8599617004,-0.2436932373,-0.04221221924,0.8948197537
2.287135917,-0.8020321655,-0.1796264648,-0.3192860413,0.8817396654
2.297074917,-0.9024732971,-0.09684860229,-0.6036946106,1.090084807
2.307014917,-0.9099577332,-0.02275268555,-0.6429130554,1.114395781
2.316953917,-0.005538482666,0.2571652222,-0.3146456909,0.4064068615
2.326893917,0.8011340332,0.7161108398,-0.2186952209,1.096566493
2.336832917,1.011596375,1.165476379,-0.6375242615,1.669760342
2.346772917,1.181193695,2.036515045,-1.210532684,2.647263012
2.356711917,4.685855713,3.908372498,-2.518512726,6.601176084
2.366650917,16.15380798,7.032974854,-4.571643219,18.20187269
2.376590917,31.84283249,12.01671112,-5.980663147,34.55626801
2.386529917,55.27630234,20.08104126,-4.694837036,58.99796024
2.396470125,78.50095642,32.70803329,7.046895905,85.33389914
2.406409125,70.62867691,32.58154633,4.958738251,77.93943962
2.416349125,33.93592987,23.42972763,8.847351837,42.17671286
2.426288125,17.05253906,15.65265015,-2.115700378,23.2437246
2.436227125,12.03647003,10.90811646,-3.007695465,16.51998328
2.446167125,10.42028091,8.317154388,-3.730991364,13.84476825
2.456106125,8.136929169,6.483168182,-4.421954498,11.30463478
2.466046125,5.14959137,4.886588287,-3.547173615,7.935961001
2.475985125,2.344275055,3.110830994,-3.19899765,5.0404842
2.485925125,0.5450166321,1.644180908,-2.934647369,3.407716122
2.495864125,-0.3983216858,0.5789959717,-2.433339844,2.532792786
2.505803125,-0.5984555054,-0.2600093079,-1.669777679,1.7927385
2.515743125,-1.325493622,-2.84213974,0.453407135,3.168638457
2.525682125,-2.622247009,-7.85012558,3.801494751,9.107799588
2.535622125,-1.307081909,-6.468049622,4.361031189,7.909660047
2.545561125,-0.3513194275,-5.481750641,5.965394897,8.109189338
2.555501125,-0.8807684326,-3.707041168,4.030219116,5.546221541
2.565440125,-1.170715485,-2.706671448,2.096989288,3.618564515
2.575379125,-1.164877625,-2.116897888,0.616867218,2.493736496
2.585319125,-0.9259744263,-1.594484253,-0.2583627319,1.86187002
2.595258125,-0.7475454712,-1.281485138,-0.3309617615,1.520053972
2.605198125,-0.6511459351,-1.120270386,-0.2592608643,1.321443514
2.615137125,-0.5998027039,-0.9827064514,-0.144150238,1.160282097
2.625077125,-0.5815406799,-0.8431965637,-0.09894424438,1.029057807
2.635016125,-0.5490582275,-0.7623646545,-0.05792953491,0.941286691
2.644955125,-0.3643423462,-0.7174580383,0.02769241333,0.8051448638
2.654895125,-0.0004490661621,-0.5116360474,0.001347198486,0.5116380181
2.664834125,0.5203179932,-0.1710942078,-0.2198927307,0.5902176336
2.674774125,1.150657196,0.2568658447,-0.4743635559,1.27083155
2.684713125,2.42091568,2.351759491,-1.40991806,3.657796382
2.694653125,3.703748016,5.849535828,-0.6447093201,6.953450142
2.704592125,4.026177521,1.629810791,1.467548218,4.584766779
2.714531125,6.594386902,0.247585144,2.044897614,6.908606463
2.724471125,9.739646301,2.13890213,1.339414673,10.06129435
2.734410125,14.64584381,3.763174438,-0.2600093079,15.12381657
2.744350125,23.03020844,5.613626404,-1.858684845,23.77725828
2.754289125,36.21568909,9.01784729,-2.515069885,37.4061931
2.764229125,52.87110397,15.05898468,-1.049916687,54.98389746
2.774168125,61.39243378,22.05438766,2.293231201,65.27392933
2.784107125,48.94072723,26.06454849,6.109844513,55.78427798
2.794047125,31.65871536,24.1188945,8.227790222,40.64101207
2.803986125,18.42967529,19.61850311,8.152945862,28.12488439
2.813926125,11.59488831,12.29558121,5.071304169,17.64485415
2.823865125,8.789871368,9.202862549,6.860982513,14.45778679
2.833805125,11.15600098,6.771917725,-1.096020813,13.09643039
2.843744125,8.901239777,5.133874054,-3.223247223,10.7693108
2.853683125,5.530399475,3.68458786,-2.177072754,6.992935852
2.863623125,3.018473053,2.508333893,-0.7454498291,3.994823392
2.873562125,1.051114197,1.187929688,0.3219804382,1.618545458
2.883502125,-0.2227368164,-0.03622467041,0.6786886597,0.7152217928
2.893441125,-1.782493286,-2.118095398,3.123255157,4.17352767
2.903381125,-4.088148651,-5.544769592,6.590045929,9.533421976
2.913320125,-3.991449738,-5.893244934,5.157524872,8.789884508
2.923259125,-2.725681915,-4.860991516,3.114124146,6.384069988
2.933199125,-1.807491302,-4.110302582,2.087708588,4.951781424
2.943138125,-1.31052475,-3.03523819,1.002914429,3.45484925
2.953078125,-1.133742371,-1.71303772,-0.09954299927,2.056642604
2.963017125,-1.25199646,-0.8307723999,-0.6770420837,1.648048512
2.972957125,-1.028361511,-0.5677693176,-0.6116281128,1.324378475
2.982896125,-0.7881111145,-0.4935237122,-0.3833528137,1.005805231
2.992835125,-0.6481521606,-0.4784051514,-0.2140548706,0.8335419605
3.002775125,-0.5791456604,-0.5514532471,-0.1689985657,0.8173560392
3.012714125,-0.5998027039,-0.7096742249,-0.2853067017,0.972008592
3.022654125,-0.3844006348,-0.8512797546,-0.3571572876,1.000001198
3.032593125,-0.1242416382,-0.8906478882,-0.5281018066,1.042871595
3.042533125,0.1466949463,-0.6735992432,-1.048120422,1.254516547
3.052472125,0.6489006042,-0.3135978699,-1.504820709,1.668502618
3.062411125,1.491348724,0.1013392639,-1.852996674,2.380753523
3.072351125,2.987038422,1.406924286,-2.899320831,4.394075075
3.082290125,5.597310333,3.576362915,-3.686683502,7.596834203
3.092230125,8.115224304,2.850821686,-2.439926147,8.940765593
3.102169125,11.83109711,4.380490723,-2.485581207,12.85852525
3.112109125,18.10470108,6.543792114,-3.277883606,19.52808074
3.122048125,28.60566422,9.007967834,-5.532345428,30.49646464
3.131987125,45.65161697,14.37475754,-5.450465698,48.17064835
3.141927125,62.74966141,20.42113403,-0.1880090332,65.98922692
3.151866125,61.78925858,22.74385391,2.768941956,65.90039761
3.161806125,38.16628281,19.88824219,8.484805756,43.86569559
3.171745125,18.4177002,17.78451691,13.70819366,29.04161317
3.181685125,9.642348633,14.40140213,12.94208679,21.63036941
3.191624125,11.63440613,9.858349457,3.913611603,15.74365954
3.201563125,12.30740662,7.171586609,-0.8714877319,14.27106874
3.211503125,7.727979584,5.784121857,-0.9945318604,9.703959384
3.221442125,3.008743286,4.594545593,-0.4007167053,5.506628664
3.231382125,-0.05837860107,3.47053299,-0.1360670471,3.473689902
3.241321125,-1.525477753,2.801125031,0.1225950623,3.19192941
3.251261125,-1.47084137,1.90374115,-0.6643185425,2.495781206
3.261200125,-0.1996847534,1.143771515,-1.169817352,1.648198992
3.271139125,1.11862381,0.6836283875,-0.6662644958,1.470569746
3.281079125,1.68609375,0.4302053833,-0.02933898926,1.740359038
3.291018125,1.589843903,0.2526745605,0.2528242493,1.629530045
3.300958125,1.263372803,0.05837860107,0.279768219,1.295295007
3.310897125,0.8783734131,-0.2543211365,0.07185058594,0.9172685539
3.320836125,0.4270619202,-0.7273374939,0.1490899658,0.8565217636
3.330776125,-0.0303868103,-1.269360352,0.3764671326,1.324358925
3.340715125,-0.3144960022,-1.676663361,0.5046006775,1.778968691
3.350655125,-0.5764512634,-2.088157654,0.6703060913,2.267599767
3.360594125,-0.8604107666,-2.67718277,0.8216413879,2.929626058
3.370534125,-1.048120422,-3.222947845,0.8963360596,3.505619427
3.380473125,-1.064137115,-3.153043213,0.8782237244,3.441706875
3.390412125,-1.033450928,-2.738704834,0.8372090149,3.044576148
3.40035225,-0.9865983582,-2.538870392,0.6210585022,2.79373457
3.41029125,-1.152752838,-2.822081451,0.2378553772,3.057704695
3.42023125,-1.376387787,-3.176843719,0.1049317932,3.46378262
3.43017025,-0.2989283752,-0.9975256348,1.355880432,1.709627828
3.44011025,2.054328003,1.271156616,3.476670227,4.233596409
3.45004925,3.556454315,0.8009843445,2.344724121,4.334475103
3.45998825,5.152435455,0.8937913513,0.9581575012,5.316438648
3.46992825,8.321345673,2.394121399,1.313518524,8.757964489
3.47986725,13.99290161,4.697531433,1.421893158,14.82868427
3.48980725,23.15025879,7.377707977,-0.4261637878,24.30116607
3.49974625,39.33834549,12.65363663,-4.255500641,41.5418973
3.50968625,59.57895493,19.45160019,-6.424190826,63.00227653
3.51962525,71.63668076,25.6650293,-3.633244629,76.18207286
3.52956425,59.07031265,25.26565979,-0.6210585022,64.24983358
3.53950425,31.21144547,19.52090607,3.202290802,36.95233102
3.54944325,14.06415344,16.4813269,8.73703125,23.36172647
3.55938325,5.243895264,13.34924011,12.00787949,18.70534199
3.56932225,4.079766083,9.964927826,8.963061218,14.01002299
3.57926225,5.080435181,7.209607544,3.764970703,9.589800152
3.58920125,3.693269806,4.927752686,0.96414505,6.233182499
3.59914025,2.007176056,2.802023163,-0.7226971436,3.521701391
3.60908025,1.598226471,1.468296661,-1.231040039,2.495131763
3.61901925,1.507814484,0.6882687378,-0.8482859802,1.861936486
3.62895925,1.257235565,0.009729766846,-0.8134085083,1.497454285
3.63889825,0.9060658264,-0.5508544922,-0.8598120117,1.365163964
3.64883825,0.6090834045,-0.9880952454,-0.7984396362,1.408836634
3.65877725,0.4385879517,-1.73519165,-0.4067042542,1.835390369
3.66871625,0.2203417969,-2.690355377,0.1657054138,2.704444647
3.67865625,0.05523513794,-3.255280609,0.6218069458,3.314596
3.68859525,-0.1407073975,-3.34060318,0.6444099426,3.405097994
3.69853525,-0.3620970154,-3.060236206,0.5590873718,3.131890575
3.70847425,-0.6617738342,-2.903212738,0.5213658142,3.022980503
3.71841425,-0.9846524048,-3.26456131,0.5737568665,3.457759079
3.72835325,-1.184187469,-4.082909546,0.4168830872,4.27156199
3.73829225,-1.458716583,-4.790188751,0.1700463867,5.01025729
3.74823225,-1.528621216,-4.711153107,0.06990463257,4.953436491
3.75817125,-1.588646393,-3.946243744,0.2472857666,4.261195525
3.76811125,-1.448238373,-3.098855896,0.390687561,3.442809756
3.77805025,-1.304986267,-2.200573883,0.6128256226,2.630792621
3.78799025,-1.341061249,-0.9283694458,1.038240967,1.933457888
3.79792925,-1.370998993,0.3947291565,1.551224213,2.107544994
3.80786825,-1.279239807,2.134860535,2.470911713,3.507062685
3.81780825,-0.200433197,3.357967072,3.074157257,4.557034031
3.82774725,1.196611633,1.148711243,1.377734985,2.156286301
3.83768725,2.798580322,0.5180726624,0.5167254639,2.892655581
3.84762625,5.359754333,1.760638733,0.2218386841,5.645885906
3.85756625,8.809181213,3.34644104,-0.3426374817,9.429620445
3.86750525,15.13607437,6.287075958,-1.503323822,16.45867716
3.87744425,30.43665665,11.289673,-6.630611572,33.13324304
3.88738425,53.68436279,19.13261353,-11.53291718,58.14701959
3.89732325,71.84624496,28.27215775,-5.957012329,77.43825808
3.90726325,73.09075699,32.65294785,2.281555481,80.08544971
3.91720225,46.35006454,24.52185654,3.61558136,52.56160538
3.92714125,24.35689957,16.2756546,3.238216095,29.47272523
3.93708125,11.00421661,14.86977814,11.62587387,21.84866194
3.94702025,2.885100403,12.40874588,17.25416977,21.44777735
3.95696025,3.257975006,8.707841949,13.3692984,16.28431921
3.96689925,7.89458313,6.255192261,3.231929169,10.57814914
3.97683925,8.279283142,4.772375793,-0.7047344971,9.582210119
3.98677825,5.96045517,3.461701355,-0.7756869507,6.936288081
3.99671725,3.179687805,1.625170441,-0.8313711548,3.66643853
4.00665725,1.440005493,0.4200265503,-1.473236389,2.102489853
4.01659625,0.5969586182,0.01721420288,-1.888023834,1.980224714
4.02653625,0.02395019531,-0.01796264648,-1.826651459,1.826896773
4.03647525,-0.3399430847,-0.163460083,-1.225202179,1.28195198
4.04641525,-0.6134243774,-0.6411167908,-0.746048584,1.15927076
4.05635425,-0.8373587036,-1.147663422,-0.5737568665,1.532154649
4.06629325,-1.016087036,-1.522783356,-0.6047424316,1.927956281
4.07623325,-1.236428833,-1.904639282,-0.8470884705,2.423626607
4.08617225,-1.218466187,-2.695744171,-0.556842041,3.01027732
4.09611225,-1.089584198,-4.082610168,0.1832189941,4.229476175
4.10605125,-1.393452301,-4.953349457,0.3402424622,5.156854185
4.11599125,-2.05582489,-5.757477264,-0.02993774414,6.113579696
4.12593025,-2.300715637,-5.393883362,-0.3113525391,5.872325823
4.13586925,-1.984573059,-4.08126297,-0.03293151855,4.538317105
4.14580925,-1.947300568,-3.236120453,0.3176394653,3.790164893
4.15574825,-2.024090881,-2.280357971,0.4960684204,3.089184399
4.16568825,-1.907782745,-1.137185211,0.622256012,2.306518535
4.17562725,-1.498384094,-0.1663041687,0.8090675354,1.710965297
4.18556725,-0.4912783813,1.222657471,1.494641876,1.992536092
4.19550625,1.590891724,1.730401611,1.773661652,2.944673474
4.20544525,3.345692596,-0.03083587646,1.046773224,3.505758689
4.21538525,5.034331055,-0.3632945251,1.163380737,5.179761271
4.22532425,7.558831329,0.5857319641,1.137634277,7.666369724
4.23526425,11.64024399,1.681603088,1.082099762,11.81075819
4.24520325,18.34540054,4.400998077,1.885329437,18.95987796
4.25514325,30.27229843,7.778424683,-0.1062789917,31.25583526
4.26508225,48.84208237,14.73954895,-4.63241684,51.22755703
4.27502125,66.40401215,22.85701859,-4.905,70.3988292
4.28496125,65.40888153,26.39700714,-1.486858063,70.5502269
4.29490025,37.18836639,24.85745865,5.884712677,45.11649021
4.30484025,18.01009781,18.25004883,7.631580048,26.75198907
4.31477925,12.36937775,13.15509384,3.774251404,18.44730261
4.32471925,7.593708801,10.60424835,2.558778992,13.29142003
4.33465825,4.88748642,8.440198517,0.3742218018,9.760354321
4.34459725,3.230881348,6.631509705,-2.004781036,7.644256815
4.35453725,1.249152374,5.362598419,-2.616558838,6.096246682
4.36447625,-0.168848877,4.099524994,-2.511627045,4.810705305
4.37441625,-0.4002676392,3.436703339,-2.480641479,4.257314432
4.38435525,-0.4670288086,3.194806366,-1.959575043,3.776882044
4.39429525,-0.8744815063,2.170636139,-1.101858673,2.586594612
4.404234625,-0.7774832153,0.9274713135,-0.6512956238,1.374361371
4.414173625,-0.4978646851,-0.2453398132,0.242795105,0.6058137763
4.424113625,0.2457888794,-0.9470805359,1.217118988,1.56165052
4.434052625,0.8321195984,-0.5215155029,1.116827545,1.487180289
4.443992625,0.6189628601,0.09984237671,0.7782316589,0.9993638163
4.453931625,0.04385879517,0.7370672607,0.102387085,0.7454360173
4.463871625,-0.1585203552,0.7360194397,-0.1511856079,0.7679260424
4.473810625,-0.08158035278,0.349972229,0.002694396973,0.3593649605
4.483749625,-0.006137237549,0.0556842041,0.1222956848,0.1345162845
4.493689625,-0.06780899048,-0.1924996948,0.2339634705,0.3104723775
4.503628625,-0.1413061523,-0.4343966675,0.2061213684,0.5011525835
4.513568625,-0.2209405518,-0.5668711853,0.001047821045,0.6084067439
4.523507625,-0.2920426941,-0.603993988,-0.09654922485,0.677804858
4.533446625,-0.357456665,-0.6191125488,-0.1692979431,0.7346682306
4.543386625,-0.450712738,-0.6185137939,-0.2269281006,0.7982466087
4.553325625,-0.4793032837,-0.5593867493,-0.3230282593,0.8043583961
4.563265625,-0.4981640625,-0.4152365112,-0.5044509888,0.8216201029
4.573204625,-0.1823208618,0.292641449,-0.8544232178,0.9213679772
4.583144625,1.958078156,2.642155609,-1.45557312,3.59635224
4.593083625,3.376977539,2.177072754,-0.4502636719,4.043063251
4.603022625,5.568570099,5.309758301,1.458117828,7.83125876
4.612962625,9.738448792,7.610473938,2.385738831,12.58763076
4.622901625,17.76879959,7.601642303,0.04670288086,19.32659788
4.632841625,30.11302963,11.82540894,-3.96660141,32.59399909
4.642780625,45.05151489,17.55818756,-5.716462555,48.68887849
4.652720625,60.84352524,23.69527542,-1.623673553,65.31490608
4.662659625,65.88983139,27.40905258,8.360414429,71.85139229
4.672598625,37.72874268,19.9663797,5.638923798,43.05707612
4.682538625,18.88338181,13.73214386,5.437143402,23.97324366
4.692477625,11.76164154,11.251203,3.56528595,16.66244414
4.702417625,7.520660706,8.462951202,3.567680969,11.8705614
4.712356625,8.297545166,6.544839935,-1.005758514,10.61582478
4.722296625,5.720204773,5.165757751,-1.345402222,7.824059236
4.732235625,2.389780426,3.699706421,-0.5528004456,4.438971324
4.742174625,-0.2118095398,2.312391357,-0.6617738342,2.414531358
4.752114625,-2.506837006,0.4059558105,-0.2432441711,2.551117328
4.762053625,-3.519930267,-1.113983459,-0.5637277222,3.734790112
4.771993625,-2.55668335,-1.200802917,-2.729873199,3.928201253
4.781932625,-1.298399963,-0.8918453979,-2.850222931,3.256532118
4.791872625,-0.390687561,-1.302591248,-1.586550751,2.089622936
4.801811625,0.279768219,-1.954785004,-0.580941925,2.058384849
4.811750625,0.7286846924,-2.461331635,0.03502716064,2.567169978
4.821690625,0.8343649292,-2.685565338,0.283510437,2.826447273
4.831629625,0.7069798279,-2.763553162,0.4746629333,2.891773064
4.841569625,0.6258485413,-3.254681854,1.006956024,3.463899653
4.851508625,0.5885760498,-3.891158295,1.599873047,4.248191192
4.861448625,0.2381547546,-3.30662384,1.478625183,3.629987788
4.871387625,0.005538482666,-2.675236816,1.35378479,2.998275497
4.881326625,-0.09639953613,-2.596051483,1.067729645,2.80870482
4.891266625,-0.3532653809,-2.507884827,0.7370672607,2.637716983
4.901205625,-0.5505551147,-2.343376923,0.5129832458,2.461235086
4.911145625,-0.9232800293,-2.318079529,0.853225708,2.637031062
4.921084625,-1.106798401,-0.8334667969,2.006128235,2.438077131
4.931024625,-0.06227050781,1.532662811,2.999911652,3.369332698
4.940963625,1.746867371,0.9047186279,1.984273682,2.794173125
4.950902625,3.968397675,0.833915863,1.215173035,4.233230595
4.960842625,7.176526337,2.292632446,1.660946045,7.714754407
