Time (s),Acceleration x (m/s^2),Acceleration y (m/s^2),Acceleration z (m/s^2),Absolute acceleration (m/s^2)
29.82047467,1.598076782,-4.520898743,-1.528471527,5.032752731
29.83041467,0.2775228882,-4.619094543,-1.031055908,4.740899666
29.84035367,-0.5459147644,-4.547393646,-0.7292834473,4.637743659
29.85029367,-1.174457703,-4.400249634,-0.6583309937,4.601624434
29.86023267,-1.691632233,-4.508025513,-0.2579136658,4.82187029
29.87017167,-2.052681427,-4.949008484,0.7210505676,5.4061169
29.88011167,-1.911824341,-5.538632355,2.118694153,6.23060074
29.89005067,-0.4867877197,-5.721551971,4.176165619,7.100244962
29.89998967,1.908680878,-5.732179871,6.731052704,9.044778564
29.90992967,4.970413971,-6.157146149,9.719737701,12.53350568
29.91986867,8.511300659,-7.396419067,13.62511642,17.68595634
29.92980867,11.9718045,-9.872719574,17.03592361,23.04381453
29.93974767,13.63394806,-13.00046539,16.54838745,25.07480344
29.94968667,14.12911835,-14.98249374,15.07275604,25.52048351
29.95962667,12.88026535,-13.28921494,12.56292526,22.36809246
29.96956567,9.742640076,-9.007967834,9.264534302,16.18314296
29.97950467,7.593409424,-5.392087097,7.264992371,11.81162919
29.98944467,6.696624298,-2.765948181,6.575376434,9.784212875
29.99938367,6.728208618,-1.510957947,1.561403046,7.070344023
30.00932367,6.73853714,-2.219284973,-6.395001526,9.551395348
30.01926267,6.780300293,-4.965773621,-9.26468399,12.50862699
30.02920167,7.895481262,-8.305478668,-8.88207962,14.49865299
30.03914167,9.168434143,-10.62984512,-6.532266083,15.4830324
30.04908067,11.67557053,-11.62108383,0.9098080444,16.49837226
30.05901967,18.13119598,-11.53875504,17.30760864,27.59413801
30.06895967,14.44645844,-11.06469086,10.17119888,20.8466024
30.07889867,5.600453796,-9.078471222,-1.740879822,10.80807036
30.08883867,0.8590635681,-6.795269165,-1.976639557,7.128869278
30.09877767,-2.138453064,-5.511688385,-2.013013916,6.245311472
30.10871667,-2.398462372,-5.721551971,-2.233505402,6.593733775
30.11865667,-0.6075865173,-6.515351257,-2.326911163,6.945032681
30.12859567,1.299597473,-7.702831879,-2.304308167,8.144471049
30.13853467,2.903961182,-8.953780518,-2.320923615,9.6948369
30.14847467,4.628375244,-10.14739838,-2.443219299,11.41756856
30.15841367,6.241121521,-10.94194611,-2.410437469,12.82528718
30.16835367,7.001390533,-11.01978424,-2.202669525,13.24034996
30.17829267,6.670428772,-10.1457518,-1.968706055,12.30067897
30.18823167,5.664221191,-8.918154602,-1.741179199,10.7074081
30.19817167,4.877008209,-8.03379364,-1.730401611,9.556219915
30.20811067,4.74932373,-7.454947357,-1.632056122,8.988655249
30.21804967,5.030888214,-6.982230377,-1.481469269,8.732475506
30.22798967,6.053860931,-6.806046753,-0.9478289795,9.158050249
30.23792867,6.987170105,-7.27562027,0.6065386963,10.10559675
30.24786867,7.083869019,-7.590265961,3.026107178,10.81437295
30.25780767,6.599176941,-7.569758606,6.31027771,11.86043787
30.26774667,6.024971008,-7.156617737,4.894970856,10.55832339
30.27768667,6.154900818,-6.797364807,1.506167908,9.292766766
30.28762567,6.327042847,-6.727609863,0.1191522217,9.23614654
30.29756467,6.315516815,-6.460714874,-0.4116439819,9.044116325
30.30750467,6.250102844,-6.217021637,-0.9104067993,8.862504394
30.31744367,6.12660965,-6.135291595,-1.349593506,8.774881845
30.32738367,6.099515991,-6.171965332,-1.422192535,8.793172522
30.33732267,6.111640778,-6.154751129,-1.210382996,8.75774751
30.34726167,6.081253967,-6.092031555,-1.096020813,8.677312943
30.35720167,5.951922913,-6.085295563,-0.8589138794,8.555345785
30.36714067,5.899082794,-6.210585022,-0.55579422,8.583673534
30.37707967,5.951922913,-6.412515106,-0.2074685669,8.75150156
30.38701967,6.110443268,-6.631958771,0.1529818726,9.019079638
30.39695867,6.42613678,-6.950196991,0.4790039062,9.477864573
30.40689867,6.677763519,-7.394473114,0.7473957825,9.991464293
30.41683767,6.75964325,-7.794740753,1.005758514,10.36640297
30.42677667,6.561904449,-8.044122162,1.582359467,10.50096914
30.43671667,6.297703857,-8.025710449,2.747835846,10.56521197
30.44665567,6.385720825,-7.814499664,4.234095154,10.94401193
30.45659467,7.018305359,-7.497608643,4.980592804,11.41389724
30.46653467,7.951464844,-7.314838715,4.036506042,11.5336915
30.47647367,8.995543671,-7.384593658,2.150727539,11.83544078
30.48641367,10.04471191,-7.47680191,0.605640564,12.53657069
30.49635267,10.76067307,-7.372618561,-0.1719923401,13.04519722
30.50629167,11.04747665,-7.066505127,-0.212258606,13.11591738
30.51623167,10.98834961,-6.722520447,0.3110531616,12.88537397
30.52617067,10.76142151,-6.652316437,1.074016571,12.69704763
30.53610967,10.70768326,-6.997648315,2.214494934,12.98173912
30.54604967,10.82384171,-7.550448761,3.747157745,13.71881981
30.55598867,11.08325226,-8.156089325,4.420906677,14.45353554
30.56592867,11.44040955,-8.679401093,4.232897644,14.97105195
30.57586767,11.52692963,-8.968450012,4.817731476,15.37900318
30.58580667,11.05106918,-8.729247437,6.006858673,15.31039653
30.59574667,10.24634262,-8.13213913,5.96045517,14.37519564
30.60568567,9.625583496,-7.326664124,4.671485596,12.96744549
30.61562467,8.916957092,-7.150630188,2.274220734,11.65399999
30.62556467,7.965834961,-8.120912476,0.8054750061,11.40405788
30.63550367,7.572303314,-9.221873016,-0.8150550842,11.96022718
30.64544367,8.151748352,-9.639354858,-3.653302917,13.14209974
30.65538267,8.242609406,-9.651180267,-5.512736206,13.83749077
30.66532167,7.957153015,-9.803563385,-4.935237122,13.55664799
30.67526167,8.230783997,-10.65334625,-3.547922058,13.92218885
30.68520067,8.944499817,-12.87173309,-1.696721649,15.765927
30.69514029,9.360484772,-15.80159042,1.133892059,18.40094145
30.70508029,8.190068665,-17.18561234,4.917124786,19.66216194
30.71501929,6.449188843,-17.66177216,8.755143585,20.7408479
30.72495929,5.63158905,-16.87845108,7.621999969,19.35695714
30.73489829,4.973707123,-15.76162354,2.689008179,16.74506805
30.74483729,4.413721619,-14.09154648,-0.4897814941,14.77472526
30.75477729,3.868704987,-11.33098709,-2.09564209,12.15524013
30.76471629,3.417094116,-8.834927673,-2.89827301,9.906183202
30.77465529,3.606899414,-7.101532288,-2.640509033,8.391291448
30.78459529,3.570375366,-6.157295837,-2.211800537,7.453316973
30.79453429,2.615960083,-5.566324768,-3.253184967,6.957760488
30.80447429,2.701132965,-4.997507629,-2.854713593,6.357719048
30.81441329,3.073408813,-4.78450058,-0.9147477722,5.759691921
30.82435229,3.329975281,-4.568350067,0.09864486694,5.654050629
30.83429229,3.135978699,-4.240082703,-0.1803749084,5.276855013
30.84423129,3.153043213,-3.976780243,-0.1127156067,5.076334052
30.85417029,3.461401978,-3.781436462,-0.2776725769,5.133971896
30.86411029,4.272265778,-3.539389801,-0.7719447327,5.60137784
30.87404929,5.031486969,-3.44478653,-0.949176178,6.17117094
30.88398929,5.060526581,-3.469036102,-0.9883946228,6.21450438
30.89392829,4.436623993,-3.49508194,-0.9704319763,5.730704009
30.90386729,3.20019516,-3.657793579,-0.7608677673,4.919311201
30.91380729,1.64986908,-4.072880402,-0.7972421265,4.466096478
30.92374629,0.3861968994,-4.428840179,-1.277593231,4.625582973
30.93368529,-0.7418572998,-4.769980774,-1.790127411,5.148555621
30.94362529,-1.504970398,-5.180576935,-1.513802032,5.603116086
30.95356429,-1.736688538,-5.71466629,-0.6123765564,6.004040551
30.96350429,-1.595681763,-6.315067749,0.7450007629,6.556013049
30.97344329,-0.8009843445,-6.877298584,2.542163544,7.375730961
30.98338229,1.086590424,-6.832990723,4.444407806,8.223332762
30.99332229,3.234623566,-6.979985046,7.228318634,10.55611534
31.00326129,6.227350159,-7.8817099,12.19693634,15.80083849
31.01320029,10.58942917,-9.942474518,18.49688553,23.51857955
31.02314029,14.00742142,-13.16063232,19.37061859,27.28792705
31.03307929,14.86124588,-15.71447159,16.86767349,27.4284461
31.04301929,14.50154388,-14.47549805,15.07185791,25.43611054
31.05295829,11.69742508,-9.661658478,11.33682495,18.93940332
31.06289729,9.41796524,-5.472020874,7.066056061,12.98345986
31.07283729,8.389454041,-2.669548645,5.103636932,10.17627334
31.08277629,8.069269867,-1.556912384,2.954106903,8.732917036
31.09271529,8.225544891,-3.245550842,-5.200036469,10.2583414
31.10265529,8.464897156,-7.008725281,-10.01851639,14.871025
31.11259429,9.436227264,-10.23376877,-10.10803024,17.20304286
31.12253429,10.84749252,-11.549832,-7.877817993,17.69538724
31.13247329,11.52154083,-11.30479156,-2.927761688,16.40475553
31.14241229,14.36323151,-10.02165985,9.414672089,19.88396681
31.15235229,10.39468414,-8.342451782,13.09911026,18.68776738
31.16229129,3.15693512,-6.491101685,1.076710968,7.297941281
31.17223029,-0.5460644531,-4.998854828,-2.365530853,5.557200032
31.18217029,-2.090402985,-4.661755829,-1.680405579,5.378244598
31.19210929,-1.352736969,-5.616769867,-2.276915131,6.209858578
31.20204929,0.8544232178,-7.2486763,-2.955454102,7.874519419
31.21198829,2.082319794,-8.877738647,-2.685265961,9.505837811
31.22192729,3.489094391,-10.3421434,-2.3635849,11.16782178
31.23186729,5.067112885,-11.38996445,-2.332299957,12.68252917
31.24180629,6.049070892,-11.67018173,-2.388433228,13.35997805
31.25174529,6.329737244,-11.11094467,-2.266736298,12.98679169
31.26168529,5.868995361,-9.665849762,-2.101180573,11.50168327
31.27162429,5.062622223,-8.29829361,-2.004930725,9.925299382
31.28156429,4.326752472,-7.237898712,-1.92005722,8.648386234
31.29150329,3.833827515,-6.345005493,-1.956880646,7.66724918
31.30144229,4.205654297,-6.16867218,-1.572030945,7.629634711
31.31138229,5.385201416,-6.830595703,-0.2615061951,8.70205823
31.32132129,6.395749969,-7.559280396,1.216520233,9.976385079
31.33126029,6.997798004,-7.937543793,3.236270142,11.06558732
31.34120029,6.708599396,-7.943531342,4.182602234,11.20710299
31.35113929,6.131549377,-7.664810944,2.809058533,10.20960501
31.36107929,6.249204712,-7.457941132,1.373244324,9.826456402
31.37101829,6.20848938,-7.336543579,0.7634124756,9.64121417
31.38095729,5.910758514,-7.112459564,-0.08158035278,9.24828647
31.39089729,5.540129242,-6.970404968,-0.8421487427,8.943645339
31.40083629,5.197192383,-6.878346405,-1.261726227,8.712887639
31.41077529,5.069208527,-6.855294342,-1.540895691,8.664080744
31.42071529,5.013075256,-6.813830566,-1.792821808,8.647162572
31.43065429,4.984035645,-6.688690796,-1.869013367,8.548239985
31.44059429,5.23027359,-6.712640991,-1.683998108,8.674742678
31.45053329,5.605094147,-6.879394226,-1.318009186,8.971080956
31.46047229,5.75687851,-7.039710846,-0.850531311,9.133596361
31.47041229,6.072422333,-7.169041901,-0.4007167053,9.403725253
31.48035129,6.276448059,-7.291038208,-0.07005432129,9.620704028
31.49029029,6.340065765,-7.357649689,0.4305047607,9.721973935
31.50023029,6.363716583,-7.369475098,1.55152359,9.859679377
31.51016929,6.574029236,-7.392227783,3.523373108,10.50128802
31.52010929,7.17023941,-7.307054901,5.573210449,11.65615971
31.53004829,8.05609726,-7.154971161,6.213429108,12.43788634
31.53998729,9.111702118,-7.155270538,4.437971191,12.40631292
31.54992729,10.09710297,-7.200626221,1.603315887,12.50484419
31.55986629,10.81231567,-7.163054352,-0.2411485291,12.97203417
31.56980529,11.22366028,-7.05213501,-0.6812333679,13.27280065
31.57974529,11.28817612,-6.822063446,-0.3538641357,13.1942673
31.58968429,11.03684875,-6.754104767,0.4264631653,12.94649885
31.59962429,10.46863037,-7.05677536,1.51410141,12.7154553
31.60956329,9.697883148,-7.560328217,2.914888458,12.63740777
31.61950229,9.32440979,-8.148604889,3.813469849,12.95711896
31.62944229,9.935888214,-8.681796112,3.329825592,13.60820329
31.63938129,10.93221634,-8.976233826,2.962788849,14.45213637
31.64932129,11.58665543,-8.977880402,4.336781616,15.28596072
31.65926029,11.60446838,-8.626710663,5.670657806,15.53190855
31.66919929,10.94508957,-8.181686096,4.837340698,14.49602836
31.67913929,10.20428009,-7.820038147,4.10117157,13.49444097
31.68907829,8.91725647,-7.616611176,3.104544067,12.1312993
31.69901708,6.949598236,-8.453969879,3.236120453,11.41223019
31.70895708,5.321883087,-9.711953888,1.96690979,11.24780966
31.71889608,6.137387238,-10.01282822,-3.114273834,12.15001862
31.72883508,7.430548096,-9.527238007,-6.047873383,13.51140561
31.73877508,7.6441539,-9.672885132,-5.42097702,13.46791697
31.74871408,8.075107727,-10.64241898,-4.302053833,14.03481791
31.75865408,8.719966736,-12.44512024,-2.998863831,15.48909364
31.76859308,9.063951416,-15.029496,-0.7635621643,17.56769742
31.77853208,8.260871429,-16.5450943,2.591860199,18.67350748
31.78847208,6.724167023,-16.12955841,6.409820709,18.61351332
31.79841108,5.97557373,-15.20358398,7.855813751,18.12650703
31.80835008,5.640869751,-14.29796722,4.1631427,15.92429074
31.81829008,5.048551483,-13.18203781,0.3041674805,14.11901239
31.82822908,4.391717377,-11.21198456,-1.614991608,12.14923772
31.83816908,3.913312225,-9.084758148,-2.382146301,10.17454983
31.84810808,4.176764374,-7.520810394,-2.124232635,8.861168879
31.85804708,4.913532257,-6.603667603,-2.016756134,8.474581426
31.86798708,4.981341248,-6.464457092,-1.608405304,8.318048674
31.87792608,4.170627136,-6.472689972,-0.9868977356,7.762977091
31.88786508,3.625909882,-6.243965607,-0.9193881226,7.278708916
31.89780508,3.698808289,-5.777236176,-0.6255491638,6.888319994
31.90774408,3.72904541,-5.456602936,0.1095721436,6.610015229
31.91768408,3.661685486,-5.214107208,-0.02484832764,6.371457605
31.92762308,3.615132294,-4.917424164,-0.3285667419,6.112135307
31.93756208,3.688779144,-4.71773941,-0.4725672913,6.007285291
31.94750208,3.874093781,-4.575834503,-0.9201365662,6.065765848
31.95744108,4.340224457,-4.320615234,-1.090033264,6.220404879
31.96738008,4.289929047,-4.142635345,-0.8813671875,6.028409985
31.97732008,3.70210144,-4.042942657,-0.5716612244,5.511600218
31.98725908,2.64440094,-3.961362305,-0.7967930603,4.829091718
31.99719908,0.8801696777,-4.114942932,-0.9810598755,4.320871726
32.00713808,-0.3938310242,-4.262086945,-0.5929170227,4.321115434
32.01707708,-1.312919769,-4.468807068,-0.03742218018,4.657831615
32.02701708,-1.741927643,-4.702022095,0.6707551575,5.058975803
32.03695608,-1.677411804,-5.155129852,1.790576477,5.709223964
32.04689508,-0.5093907166,-5.627098389,3.520978088,6.657402037
32.05683508,1.525477753,-5.646408234,5.60120224,8.098300738
32.06677408,3.812272339,-5.711672516,8.933422852,11.26777117
32.07671408,6.633006592,-6.133495331,12.86275177,15.71836265
32.08665308,9.639504547,-7.468269653,14.65751953,19.06667193
32.09659208,12.16535202,-9.84278183,14.63341965,21.42459135
32.10653208,13.4237851,-12.36847961,13.52482498,22.71779446
32.11647108,13.0720166,-13.69891296,11.9294426,22.37966566
32.12641008,10.35830978,-12.34632568,10.2333197,19.09049951
32.13635008,6.835834808,-9.147328033,9.401050415,14.7912811
32.14628908,4.74932373,-5.546565857,10.51922516,12.80525543
32.15622908,4.726870422,-2.414329376,5.523214417,7.660168916
32.16616808,5.342390442,-0.9574090576,-5.80717392,7.94864999
32.17610708,4.960384827,-1.984722748,-11.14013397,12.35504459
32.18604708,5.040318604,-5.215005341,-11.70146667,13.76682297
32.19598608,6.666686554,-8.638087006,-9.461374969,14.44225997
32.20592508,8.665330353,-11.51091293,-5.44208313,15.40147186
32.21586508,12.16265762,-14.05861496,-0.3153941345,18.59232015
32.22580408,20.91271179,-16.43372589,13.01184174,29.60940537
32.23574408,18.41829895,-15.27708115,13.29460373,27.37461293
32.24568308,7.32127533,-11.5844101,4.121229858,14.3102818
32.25562208,0.7527845764,-7.926466827,0.572409668,7.982682119
32.26556208,-2.643053741,-5.481002197,1.694176941,6.316435203
32.27550108,-2.636916504,-4.211941223,0.1555265808,4.971716608
32.28544008,0.512384491,-4.361330566,-4.029171295,5.959694917
32.29538008,2.229463806,-5.83995575,-3.975582733,7.408161046
32.30531908,3.49148941,-7.54236557,-3.411555634,8.984235557
32.31525908,5.164410553,-9.081914063,-2.923420715,10.84890262
32.32519808,6.62971344,-9.828112335,-2.547702026,12.1258269
32.33513708,7.22757019,-9.665849762,-2.31912735,12.29002743
32.34507708,7.009773102,-8.943751373,-2.263892212,11.58675172
32.35501608,6.71398819,-8.031997375,-2.279459839,10.71384881
32.36495508,6.619534607,-7.164102173,-2.001936951,9.957426872
32.37489508,6.575526123,-6.659651184,-1.206191711,9.436280842
32.38483408,6.270011444,-6.582411804,-0.4715194702,9.102940145
32.39477408,5.779780884,-6.87894516,0.2516267395,8.988274005
32.40471308,5.355862427,-7.345674591,1.241667938,9.175289467
32.41465208,4.486021271,-7.683372345,3.220403137,9.462007916
32.42459208,3.672463074,-7.830965424,4.356839905,9.684681639
32.43453108,3.823648682,-7.821535034,3.022215271,9.215773688
32.44447008,4.331542511,-7.801925812,1.438957672,9.038965985
32.45441008,4.537963257,-7.896828461,0.6828799438,9.133418597
32.46434908,4.758454742,-7.942333832,0.2201921082,9.261319711
32.47428908,5.078339539,-7.815846863,-0.1255888367,9.321629
32.48422808,5.307662659,-7.469167786,-0.5072950745,9.176987447
32.49416708,5.471721497,-7.079078979,-0.8470884705,8.987249535
32.50410708,5.67844162,-6.815477142,-0.9135502625,8.917959519
32.51404608,5.848188629,-6.611301727,-0.8168513489,8.864415767
32.52398608,5.993237,-6.548731842,-0.6788383484,8.903123046
32.53392508,6.356531525,-6.635700989,-0.5276527405,9.204153304
32.54386408,6.887477417,-6.786287842,-0.3270698547,9.6746071
32.55380408,7.408244476,-6.895710297,-0.1127156067,10.12154195
32.56374308,7.793393555,-6.941814423,0.17902771,10.43828633
32.57368208,8.092471619,-6.969656525,0.736917572,10.70547787
32.58362208,8.372838593,-6.792425079,1.729952545,10.91944139
32.59356108,8.408464508,-6.397246857,3.045566711,10.99556817
32.60350108,8.181087341,-6.045178986,4.368964691,11.07078279
32.61344008,7.903714142,-6.090834045,4.53526886,10.96063959
32.62337908,7.753276978,-6.649472351,2.931653595,10.62654126
32.63331908,7.991581421,-7.387288055,1.219064941,10.95095967
32.64325808,8.433761902,-7.9215271,0.4918771362,11.58105671
32.65319708,8.848100281,-8.005203094,0.4631369019,11.94096524
32.66313708,8.986412659,-7.785160675,0.5700146484,11.90332961
32.67307608,9.081464996,-7.481591949,0.5966592407,11.78147813
32.68301608,9.313332825,-7.261848907,0.5662724304,11.82342092
32.69295508,9.805958405,-7.144343262,0.6553372192,12.15022336
32.70289429,10.74600357,-7.216343536,1.101858673,12.9910084
32.71283429,12.09499832,-7.644602966,2.554587708,14.53460895
32.72277329,13.174254,-8.336464233,4.542004852,16.23845474
32.73271229,13.45102844,-8.881331177,5.943690033,17.17951282
32.74265229,12.36503677,-8.676407318,5.528154144,16.08523132
32.75259129,10.69076843,-7.875572662,4.585115204,14.04779185
32.76253129,9.215885468,-7.473957825,4.056115265,12.53972334
32.77247029,7.805069275,-7.905510406,3.459755402,11.63555364
32.78240929,6.65890274,-8.91605896,2.960693207,11.5153288
32.79234929,6.984924774,-9.582473145,-0.1889071655,11.85953842
32.80228829,8.123307495,-9.128317566,-3.941304016,12.83932177
32.81222729,8.185578003,-8.898695068,-5.303770752,13.20304682
32.82216729,8.228239288,-9.546847229,-4.692891083,13.44877097
32.83210629,8.52177887,-10.72624466,-3.453767853,14.12804134
32.84204629,9.159901886,-12.41877502,-1.960922241,15.55554537
32.85198529,9.677076416,-14.02029465,-0.3989204407,17.04035233
32.86192429,8.825796661,-14.92486359,2.493215332,17.51748733
32.87186429,7.188351746,-15.33620819,7.303312683,18.44478405
32.88180329,6.602470093,-15.052099,7.677833862,18.14131827
32.89174229,6.632108459,-14.16190018,3.850442963,16.10497408
32.90168229,5.952970734,-12.95600784,0.1016386414,14.25855288
32.91162129,5.714067535,-11.1477681,-2.08276886,12.69886717
32.92156129,4.912334747,-9.280550995,-2.608625336,10.81963888
32.93150029,4.250710602,-7.787256317,-2.340233459,9.175325292
32.94143929,4.080664215,-6.776558075,-2.250420227,8.224229507
32.95137929,3.84026413,-6.130651245,-1.543440399,7.396940012
32.96131829,3.850442963,-5.844895477,-0.6773414612,7.031892036
32.97125729,3.840862885,-5.767955475,-0.3115022278,6.936755127
32.98119729,3.554957428,-5.733078003,-0.03697311401,6.745907849
32.99113629,3.099005585,-5.627996521,0.02544708252,6.424860155
33.00107629,2.885998535,-5.47366745,-0.1043330383,6.18877276
33.01101529,3.029849396,-5.270390167,-0.5050497437,6.100170089
33.02095429,3.373085632,-5.072501678,-0.7143145752,6.133369814
33.03089429,3.416495361,-5.007237396,-0.6881190491,6.100686414
33.04083329,3.479065247,-5.136119385,-0.9776170349,6.280075827
33.05077229,3.217409363,-5.301076355,-1.259929962,6.327760823
33.06071229,2.302062836,-5.413043518,-1.358275452,6.037006347
33.07065129,1.138831787,-5.386398926,-0.9803114319,5.592069539
33.08059129,-0.004041595459,-5.213508453,-0.5249583435,5.239872898
33.09053029,-0.9812095642,-4.819078674,-0.3682342529,4.931722614
33.10046929,-1.810185699,-4.27900177,-0.3118016052,4.656591957
33.11040929,-2.368973694,-3.805985413,0.3285667419,4.495054775
33.12034829,-2.205812988,-3.719764709,1.990111542,4.760546647
33.13028729,-0.3588038635,-3.948938141,3.78877121,5.484308519
33.14022729,1.916913757,-4.369862823,5.124144287,7.001936455
33.15016629,4.441414032,-5.024451599,7.632178802,10.15979457
33.16010629,7.616461487,-6.101761322,11.4396611,15.03688209
33.17004529,11.21587646,-8.044271851,16.16174149,21.25342519
33.17998429,14.24527679,-10.22089554,17.64365982,24.87354716
33.18992429,15.68213882,-11.34520752,15.34818329,24.70242786
33.19986329,16.28807877,-10.18137772,13.62781082,23.55162818
33.20980329,15.18592072,-6.785838776,13.42558136,21.37536036
33.21974229,11.57213562,-3.825894012,11.61868881,16.8388158
33.22968129,9.034163361,-2.187101898,4.15026947,10.17960014
33.23962129,6.749763794,-2.577939148,-7.18670517,10.19086909
33.24956029,3.686833191,-4.904401245,-14.59794342,15.83495635
33.25949929,3.12295578,-7.886200562,-12.40620117,15.02860072
33.26943929,5.946534119,-10.38645126,-7.336992645,14.03820141
33.27937829,9.672286377,-12.20516922,-1.082997894,15.61064265
33.28931829,15.95636856,-12.90780807,16.08465179,26.07552934
33.29925729,17.10448105,-13.74771149,24.42904953,32.8381075
33.30919629,7.840096436,-12.23046661,4.592449951,15.23620761
33.31913629,2.116448822,-9.38174057,-2.791245575,10.01436287
33.32907529,-1.629062347,-7.594457245,-2.558479614,8.177740697
33.33901429,-2.201022949,-6.358028412,-2.902763672,7.327691604
33.34895429,-0.8650511169,-6.191724243,-3.406017151,7.119460329
33.35889329,1.212628326,-6.963519287,-3.172353058,7.747573313
33.36883329,2.869532776,-7.868537292,-2.882106628,8.85746217
33.37877229,4.143533478,-8.773555298,-2.635868683,10.05444906
33.38871129,5.211712189,-9.673633575,-2.491419067,11.2671336
33.39865129,5.519771576,-10.00728973,-2.502945099,11.69950684
33.40859029,5.431754608,-9.70821167,-2.487676849,11.39920471
33.41852929,5.466931458,-9.16409317,-2.101030884,10.87576544
33.42846929,5.536387024,-8.745563507,-1.923799438,10.52793743
33.43840829,5.648503876,-8.423882446,-1.883682861,10.31579627
33.44834729,5.907465363,-8.054750061,-1.604812775,10.11694468
33.45828729,6.345155182,-7.54236557,-1.204994202,9.929767555
33.46822629,7.131320343,-7.45464798,-0.001646575928,10.31637092
33.47816629,7.66526001,-7.697293396,3.485352173,11.40842743
33.48810529,7.183711395,-7.601342926,7.489974518,12.86413005
33.49804429,6.092929688,-7.329208832,5.996380463,11.26044728
33.50798429,5.895490265,-6.941964111,0.9662406921,9.158673062
33.51792329,5.955216064,-6.793772278,-0.7182064819,9.062878168
33.52786229,5.696553955,-6.712341614,-1.035696259,8.864475373
33.53780229,5.62575119,-6.529421997,-1.385518799,8.729380872
33.54774129,5.928421783,-6.499334564,-1.284179535,8.890255997
33.55768129,6.194718018,-6.598727875,-0.6697073364,9.075585314
33.56762029,6.278543701,-6.624174957,-0.07065307617,9.127146144
33.57755929,6.161337433,-6.6554599,0.3734733582,9.077263232
33.58749929,6.024971008,-6.635102234,0.6803352356,8.988198559
33.59743829,6.057154083,-6.524182892,0.7228468323,8.93177393
33.60737829,6.102809143,-6.361920319,0.5450166321,8.832629999
33.61731729,6.263574829,-6.258186035,0.3502716064,8.861148475
33.62725629,6.556515656,-6.141578522,0.2796185303,8.988051558
33.63719629,6.919211426,-6.036047974,0.3480262756,9.188606215
33.64713529,7.245682526,-6.285878448,0.4649331665,9.603559027
33.65707429,7.42890152,-6.758894806,0.6556365967,10.06484457
33.66701429,7.425458679,-7.122638397,1.130898285,10.35124849
33.67695329,7.309599609,-7.437284088,1.962119751,10.6110016
33.68689329,7.130272522,-7.563621368,3.031046906,10.8275759
33.69683208,6.984924774,-7.361092529,3.791615295,10.83287607
33.70677108,7.623197479,-7.071145477,2.96727951,10.8129083
33.71671108,9.077273712,-6.939569092,1.109492798,11.47978621
33.72665008,10.4244722,-6.840175781,-0.2011816406,12.46988771
33.73658908,11.3188623,-6.587351532,-0.8047265625,13.1208776
33.74652908,11.5683934,-6.211782532,-0.7696994019,13.15318993
33.75646808,11.22845032,-5.890700226,-0.2851570129,12.68305011
33.76640808,10.46907944,-5.900130615,0.3203338623,12.0214716
33.77634708,9.729168091,-6.389912109,0.9979747009,11.68262137
33.78628608,9.076525269,-7.397167511,2.296973419,11.9322037
33.79622608,8.854836273,-8.817114716,3.749103699,13.04627977
33.80616508,9.471703491,-10.30187714,3.891307983,14.52529233
33.81610408,10.27702881,-11.32350266,3.541635132,15.69656692
33.82604408,10.09635452,-11.42005188,4.071982269,15.77767407
33.83598308,9.495054932,-10.38225998,5.038222961,14.94426582
33.84592308,9.485474854,-8.899443512,4.915927277,13.90469953
33.85586208,9.339977417,-7.871680756,4.202660522,12.91746459
33.86580108,8.936716003,-7.141948242,3.28087738,11.9011123
33.87574108,8.413254547,-7.048243103,3.178789673,11.42651682
33.88568008,7.511230316,-7.57859024,2.543361053,10.96915203
33.89561908,8.059839478,-7.850574646,-1.429676971,11.34180369
33.90555908,8.369695129,-7.581883392,-4.970114594,12.33850848
33.91549808,7.892487488,-7.821684723,-5.660329285,12.47034235
33.92543808,7.849377136,-8.714727631,-4.674329681,12.62571016
33.93537708,8.180488586,-10.10398865,-3.117267609,13.3689318
33.94531608,8.975186005,-11.81103882,-0.8246351624,14.85714054
33.95525608,9.799821167,-13.941259,3.754642181,17.44971448
33.96519508,9.108259277,-15.18277725,7.786208496,19.34172058
33.97513408,7.483388214,-15.39099426,6.729855194,18.38952839
33.98507408,6.824308777,-14.95210693,3.280128937,16.75995041
33.99501308,6.784341888,-13.96266449,0.2942880249,15.52642586
34.00495308,6.103108521,-12.72458908,-1.840871887,14.23207329
34.01489208,4.631668396,-11.29865433,-2.78016861,12.52362884
34.02483108,4.199217682,-9.499395905,-2.6104216,10.70916676
34.03477108,3.874692535,-8.058791656,-2.154918823,9.197882384
34.04471008,4.140390015,-6.890920258,-1.079704742,8.111311472
34.05464908,4.233646088,-6.135740662,-0.3517684937,7.462895801
34.06458908,3.800596619,-5.592819672,-0.1405577087,6.76342539
34.07452808,3.46933548,-5.310057678,-0.3827540588,6.354486752
34.08446808,3.292104034,-5.157824249,-0.5035528564,6.13959815
34.09440708,3.102747803,-5.019062805,-0.6309379578,5.934316985
34.10434608,3.211122437,-5.08522522,-0.6854246521,6.053150402
34.11428608,3.521277466,-5.250930634,-0.7393125916,6.365394773
34.12422508,3.806135101,-5.366190948,-1.028810577,6.658912892
34.13416408,3.918701019,-5.379662933,-0.6242019653,6.684805087
34.14410408,3.55585556,-5.359454956,-0.4002676392,6.444228455
34.15404308,3.263812866,-5.427862701,-1.200353851,6.44631812
34.16398308,2.308200073,-5.245990906,-1.554816742,5.938489982
34.17392208,0.4948709106,-4.909790039,-1.506916351,5.159625213
34.18386108,-1.150058441,-4.6183461,-1.325493622,4.940514999
34.19380108,-2.253863068,-4.584815826,-1.261426849,5.26228397
34.20374008,-2.499502258,-4.788841553,-1.107995911,5.514360334
34.21367908,-2.398013306,-5.135670319,-0.2863545227,5.675171922
34.22361908,-2.186652832,-5.45959671,1.419647827,6.050127833
34.23355808,-0.2796185303,-5.416935425,3.556753693,6.486283431
34.24349808,2.619702301,-5.357509003,5.839207306,8.346381541
34.25343708,5.765261078,-5.929170227,9.218579865,12.38448665
34.26337608,9.435478821,-7.547904053,14.80930389,19.11320481
34.27331608,12.84359161,-10.45620621,19.21628952,25.36840312
34.28325508,14.0952887,-13.36645432,17.00359085,25.81591304
34.29319408,14.43538147,-14.17177963,14.55962311,24.92392829
34.30313408,14.16444489,-11.11947693,13.05001236,22.2390892
34.31307308,10.90182953,-6.642137604,9.894873505,16.15166867
34.32301308,8.388555908,-3.614084473,6.89885376,11.44655669
34.33295208,7.444169769,-1.648372192,6.266867981,9.869469526
34.34289108,7.493567047,-1.087937622,4.382137299,8.748730346
34.35283108,8.271499329,-2.845283203,-5.376220093,10.26728202
34.36277008,8.643326111,-6.223009186,-11.38337814,15.58891361
34.37270908,8.920250244,-9.497449951,-11.76358749,17.55432741
34.38264908,9.686955872,-11.4835199,-9.413773956,17.72928322
34.39258808,9.923314362,-12.11475723,-4.170776825,16.20601401
34.40252808,14.47564774,-11.86417831,11.42409348,21.92744892
34.41246708,14.09289368,-11.51540359,23.97773804,30.1022606
34.42240608,5.928272095,-9.717492371,3.695215759,11.96781883
34.43234608,1.01099762,-7.256310425,-3.537892914,8.135898441
34.44228508,-2.093995514,-6.283633118,-1.904788971,6.89181278
34.45222408,-3.030298462,-6.325396271,-1.638492737,7.202638766
34.46216408,-1.223405914,-6.634653168,-2.757715302,7.288370076
34.47210308,0.8316705322,-7.398664398,-2.373913422,7.814561772
34.48204308,2.314337311,-8.532855835,-1.943408661,9.052216475
34.49198208,3.387904816,-9.767488403,-2.109114075,10.55130755
34.50192108,4.171225891,-10.67819458,-2.234104156,11.67964838
34.51186108,5.090763702,-10.78791641,-2.236948242,12.13667801
34.52180008,5.669909363,-10.1206041,-2.094743958,11.78823361
34.53173908,5.482499084,-9.21214325,-1.921853485,10.89104679
34.54167908,4.831652527,-8.559350739,-1.704206085,9.975553598
34.55161808,4.33872757,-7.897576904,-1.653760986,9.161397452
34.56155808,4.352798309,-7.275470581,-2.070195007,8.727258027
34.57149708,5.469775543,-7.20421875,-1.630858612,9.191241053
34.58143608,6.862479401,-7.745193787,0.240100708,10.3508115
34.59137608,7.410938873,-7.967780914,2.268382874,11.11544459
34.60131508,7.32127533,-7.643854523,5.937103729,12.13584711
34.61125408,6.284231873,-7.145091705,5.287304993,10.88574755
34.62119408,5.784421234,-6.877298584,1.795516205,9.164095333
34.63113308,5.930667114,-6.789281616,0.2435435486,9.018119025
34.64107308,6.105802917,-6.737788696,-0.5740562439,9.110881755
34.65101208,6.355034637,-6.656208344,-1.177601166,9.277840226
34.66095108,6.457122345,-6.64962204,-1.489402771,9.387769856
34.67089108,6.168821869,-6.503825226,-1.6907341,9.12209886
34.68083008,5.949677582,-6.377188568,-1.686692505,8.88324991
34.69076908,5.984405365,-6.479276276,-1.394949188,8.929726304
34.70070842,6.037993927,-6.676865387,-1.089883575,9.067841434
34.71064742,6.154002686,-6.691534882,-1.009949799,9.147042512
34.72058742,6.389912109,-6.662644958,-0.8595126343,9.271492683
34.73052642,6.633755035,-6.682553558,-0.5760021973,9.433716471
34.74046542,6.922654266,-6.783294067,-0.2838098145,9.696224446
34.75040542,7.271279297,-6.89526123,-0.05373825073,10.02092899
34.76034442,7.446115723,-7.031927032,0.2227368164,10.24413241
34.77028442,7.372468872,-7.212152252,0.6993457031,10.33719119
34.78022342,7.08491684,-7.297624512,1.619631958,10.29925132
