Time (s),Acceleration x (m/s^2),Acceleration y (m/s^2),Acceleration z (m/s^2),Absolute acceleration (m/s^2)
4.970866208,-0.8539741516,-1.39240448,1.387315063,2.143059769
4.980807208,-1.024918671,-1.462309113,1.577419739,2.382658023
4.990747208,-1.029109955,-1.629511414,2.256557465,2.967562356
5.000687208,-1.214723969,-1.852547607,2.780917053,3.555416518
5.010627208,-1.634451141,-2.016905823,3.30662384,4.203938731
5.020567208,-1.939816132,-2.272723846,4.476441193,5.382070796
5.030507208,-1.865420837,-2.647993469,5.830375671,6.6697035
5.040448208,-1.648821259,-2.894680481,7.174879761,7.910542725
5.050388208,-1.352138214,-2.961890717,8.240064697,8.860007934
5.060328208,-0.9072633362,-2.849324799,8.74526413,9.242371085
5.070268208,-0.5580395508,-2.708018646,9.232949982,9.63805678
5.080208208,-1.022823029,-2.649640045,9.512418823,9.927379875
5.090148208,-2.245929565,-2.581831055,8.896749115,9.532166387
5.100089208,-3.367996216,-2.018702087,7.156018982,8.162546435
5.110029208,-3.467389526,-1.097368011,4.844974823,6.058117506
5.119969208,-2.89363266,-0.004790039062,2.677332458,3.942238198
5.129909208,-2.532433777,1.321152649,2.257305908,3.640617409
5.139849208,-1.905238037,2.634970551,3.138523407,4.519217958
5.149789208,-0.4314028931,3.498225403,4.932842102,6.062723862
5.159729208,3.187770996,3.714076538,7.944130096,9.330886959
5.169670208,15.45101944,4.138294373,16.07103012,22.67460013
5.179610208,53.27466476,4.444557495,31.55692703,62.07885019
5.189550208,79.10884232,2.653082886,27.81351151,83.89779022
5.199490208,78.464133,7.376809845,17.25716354,80.67742673
5.209430208,76.11177475,5.213807831,5.412594452,76.48190784
5.219370208,55.13948685,-1.297950897,-3.956272888,55.29647169
5.229311208,25.17090683,-6.983727264,-36.1650943,44.61234182
5.239251208,-10.55649765,-16.88833054,-78.73836273,81.21813293
5.249191208,-7.87347702,-12.83670593,-49.33380981,51.58097954
5.259131208,4.29891037,-5.901178436,-12.79643967,14.73273245
5.269071208,7.557334442,-4.143982544,-1.160836029,8.696748558
5.279011208,5.667664032,-3.420836334,2.214494934,6.980581968
5.288952208,2.992277527,-3.087479553,2.350262604,4.899998887
5.298892208,1.250499573,-2.592159576,2.257455597,3.657751526
5.308832208,0.2011816406,-2.164798279,2.142644348,3.052499049
5.318772208,-0.2517764282,-1.867067413,1.843416595,2.635814265
5.328712208,-0.2360591125,-1.689087524,1.925895081,2.57251092
5.338652208,0.03263214111,-1.725012817,2.789000244,3.279520764
5.348592208,0.09310638428,-1.903890839,3.432961121,3.926664129
5.358533208,0.2308200073,-2.298919373,3.975732422,4.598342794
5.368473208,0.3887416077,-2.816992035,4.815635834,5.592576566
5.378413208,0.9837542725,-2.87372406,6.197562103,6.901872099
5.388353208,1.926793213,-2.772085419,7.852071533,8.547047269
5.398293208,3.04691391,-2.813100128,9.652976532,10.50605409
5.408233208,2.96144165,-2.894081726,10.48853897,11.27631569
5.418173208,1.612446899,-2.972219238,9.519903259,10.10260512
5.428114208,1.023122406,-2.982248383,7.63008316,8.255831509
5.438054208,1.105301514,-2.32032486,6.085894318,6.606338512
5.447994208,0.7878117371,-1.50242569,4.981940002,5.262856304
5.457934208,0.0383203125,-0.8979826355,4.039050751,4.137846327
5.467874208,-1.009201355,-0.02724334717,3.155288544,3.31286513
5.477814208,-1.808090057,0.8131091309,2.358794861,3.081273975
5.487755208,-1.779948578,1.233884125,1.033750305,2.399859718
5.497695208,-1.527573395,1.795216827,0.6062393188,2.433887846
5.507635208,-1.172661438,2.507286072,1.207838287,3.020015169
5.517575208,0.4180805969,3.24465271,2.960244141,4.411984584
5.527515208,7.656128998,3.720662842,7.566764832,11.38927448
5.537455208,33.83054901,4.732558594,21.92221252,40.58924191
5.547396208,69.58504715,2.462529144,30.07545776,75.84639739
5.557336208,79.22245605,2.731968842,25.14710632,83.16272094
5.567276208,78.14993637,3.570225677,11.74562485,79.10827244
5.577216208,66.87493286,-0.5441184998,-1.242865448,66.8886943
5.587156208,37.52950699,-3.33596283,-12.27821732,39.62760608
5.597096208,8.743467865,-8.299491119,-50.75016449,52.16233295
5.607036208,-16.36756348,-13.45132782,-74.32389267,77.28438637
5.616977208,-8.356522522,-9.035809937,-31.76888626,34.06962671
5.626917208,1.320254517,-5.333409119,-6.555168457,8.553277636
5.636857208,2.40220459,-4.052672424,-0.3968247986,4.727812453
5.646797208,0.6777905273,-3.047812042,0.9912387085,3.275837667
5.656737208,-0.3743714905,-2.202669525,1.008003845,2.451117868
5.666677208,-0.6315367126,-1.510508881,1.198258209,2.028866293
5.676617208,-0.6837780762,-1.043929138,1.147513733,1.695325417
5.686558208,-0.6840774536,-0.7945477295,1.160985718,1.564338804
5.696498208,-0.688717804,-0.7336244202,1.034199371,1.442950222
5.706438208,-0.7943980408,-0.7795788574,0.8887019348,1.424290199
5.716378208,-0.6634204102,-0.9126521301,1.533860321,1.904150214
5.726318208,-0.650098114,-1.217118988,2.648741913,2.986610103
5.736258208,-0.532742157,-1.483864288,3.518882446,3.85593064
5.746199208,0.523611145,-1.767674103,4.423900452,4.7926752
5.756139208,2.047891388,-2.091450806,5.7649617,6.465509185
5.766079208,3.761976929,-2.258653107,7.416477356,8.617315164
5.776019208,4.656516724,-2.356250153,8.534053345,10.00325593
5.785959208,4.074077911,-2.391427002,8.801098022,9.988811758
5.795899208,3.17908905,-1.739682312,8.297395477,9.054273767
5.805839208,2.298170929,-1.258882141,7.431296539,7.879755207
5.815780208,1.144519958,-0.8337661743,6.626869354,6.776465849
5.825720208,0.3227288818,-0.3314108276,5.87962326,5.897792532
5.835660208,-0.2980302429,0.1784289551,5.49357605,5.504546914
5.845600208,-0.8791218567,0.5858816528,4.881349182,4.994365064
5.855540208,-1.235680389,0.6030958557,3.450325012,3.714212343
5.865480208,-1.056502991,0.8578660583,2.44202179,2.795640028
5.875420208,0.5373825073,1.171912994,3.118614807,3.37459899
5.885361208,6.300997009,1.24032074,6.397546234,9.064742504
5.895301208,27.04021957,0.4465214539,19.9704213,33.61830726
5.905241208,61.51068787,-3.657344513,28.02397385,67.69256976
5.915181208,78.6843251,-3.716920624,22.33640121,81.877673
5.925121208,78.20891373,0.09714797974,12.47386047,79.19747988
5.935061208,67.80330231,0.01092727661,-0.7430548096,67.80737463
5.945001208,42.62760544,-1.816322937,-8.992400208,43.60361265
5.954942208,19.14249298,-3.647315369,-22.12893265,29.48605784
5.964882208,-17.15118393,-12.67444336,-71.15632965,74.28342934
5.974822208,-13.05659866,-9.601034546,-43.90385147,46.79960264
5.984762208,-2.865790558,-3.844156036,-13.3520842,14.186911
5.994702208,-2.277064819,-2.63736557,-5.641169128,6.630498509
6.004642208,-1.338366852,-1.969753876,-1.156495056,2.647383043
6.014583208,-1.275198212,-1.601070557,0.7200027466,2.169783713
6.024523208,-1.472338257,-1.087937622,1.616338806,2.4421178
6.034463208,-1.554966431,-0.7635621643,1.786834259,2.488719439
6.044403208,-1.465751953,-0.7327262878,1.795067139,2.430551919
6.054343208,-1.350491638,-0.7479945374,1.668879547,2.273429664
6.064283208,-1.433119812,-0.746048584,1.838327179,2.447420622
6.074223208,-1.536255341,-0.7647596741,2.742447052,3.23511262
6.084164208,-1.710493011,-0.8331674194,3.752696228,4.207455677
6.094104208,-1.925296326,-1.006506958,4.569248199,5.059431915
6.104044208,-2.012714539,-1.265468445,5.08866806,5.616669193
6.113984208,-1.954485626,-1.48131958,5.458099823,5.983742595
6.123924208,-1.82889679,-1.615141296,5.773344269,6.267778627
6.133864208,-1.647024994,-1.741927643,5.905669098,6.373690512
6.143804208,-1.660496979,-1.950444031,5.830824738,6.368673273
6.153745208,-1.514251099,-2.107168121,5.544619904,6.121758224
6.1636855,-1.468895416,-2.342628479,5.17997818,5.871774509
6.1736255,-1.416803741,-2.35535202,5.128934326,5.819019101
6.1835655,-0.9496252441,-1.79252243,5.700745239,6.050902499
6.1935055,-0.6134243774,-1.030756531,6.735543365,6.841512473
6.2034455,0.1989363098,-0.9107061768,7.463180237,7.521171494
6.2133865,2.455044708,-0.8044271851,8.615633698,8.994636826
6.2233265,8.339607697,-1.271156616,12.03886505,14.70031181
6.2332665,21.00297409,-3.571423187,18.07027267,27.93590412
6.2432065,42.00954071,-6.268215179,22.24973145,47.9493752
6.2531465,65.10501343,-10.03722748,17.13052689,68.06514277
6.2630865,72.50861755,-11.57183624,11.20360199,74.2760238
6.2730265,62.3131691,-4.559069366,4.207300873,62.62122274
6.2829665,47.79066879,0.8408015442,-1.788929901,47.83152978
6.2929075,34.76730103,-1.505120087,-5.488636322,35.23004025
6.3028475,23.34230942,-3.724554749,-10.27807663,25.77546462
6.3127875,6.852450256,-6.870562592,-29.59600479,31.1461748
6.3227275,-19.55024506,-11.19162689,-67.43297241,71.09620498
6.3326675,-14.49720291,-7.298522644,-35.13688248,38.70449373
6.3426075,-1.676064606,-2.676584015,-9.021888885,9.558649152
6.3525475,-0.2362088013,-1.038390656,-2.662513275,2.867582029
6.3624885,-0.6251000977,0.06646179199,0.8280780029,1.03965402
6.3724285,-1.242715759,-0.4758604431,1.341510315,1.889559617
6.3823685,-1.453627167,-0.8855584717,1.5527211,2.303950642
6.3923085,-1.548230438,-0.8391549683,1.692081299,2.442199352
6.4022485,-1.520987091,-0.8065228271,1.598675537,2.34939232
6.4121885,-1.425036621,-0.7488926697,1.632505188,2.292736965
6.4221285,-1.322350159,-0.5373825073,2.380649414,2.775766837
6.4320695,-1.496737518,-0.4565505981,2.87836441,3.276223943
6.4420095,-1.595382385,-0.3215313721,2.931204529,3.35269852
6.4519495,-1.740281067,-0.3040177917,3.393443298,3.825762986
6.4618895,-2.045646057,-0.3335064697,3.872297516,4.392104553
6.4718295,-2.06869812,-0.3523672485,4.250411224,4.740218367
6.4817695,-1.922003174,-0.3406915283,4.876259766,5.252435266
6.4917095,-1.650318146,-0.4258644104,5.677842865,5.928137151
6.5016505,-1.539398804,-0.6659651184,6.409671021,6.625491741
6.5115905,-1.507964172,-1.11982132,6.821165314,7.075044309
6.5215305,-1.056203613,-1.495839386,6.620732117,6.869293654
6.5314705,-0.6755451965,-1.701661377,6.151308289,6.417990839
6.5414105,-0.1016386414,-1.472787323,5.501659241,5.696287152
6.5513505,0.4567002869,-0.4456233215,4.969066772,5.00986825
6.5612905,1.080752563,0.9439370728,5.024002533,5.224906196
6.5712315,2.232457581,1.344055023,5.895340576,6.445571446
6.5811715,6.929539948,0.9190887451,9.208999786,11.5615278
6.5911115,19.68511459,-0.4818479919,16.37040756,25.60715052
6.6010515,41.38503937,-3.162623291,22.86495209,47.38702041
6.6109915,60.22052078,-5.698499908,20.49403244,63.86696635
6.6209315,68.75457413,-6.441854095,11.86447769,70.06750159
6.6308715,64.8107254,-5.18461853,2.347418518,65.06013196
6.6408125,48.5006424,-3.816463623,-1.93068512,48.68886169
6.6507525,32.65773788,-4.067042542,-3.109483795,33.05658132
6.6606925,21.02258331,-3.75943222,-5.112618256,21.95953563
6.6706325,12.16669922,-3.711382141,-9.191186829,15.69333752
6.6805725,3.908222809,-4.403991852,-14.34047882,15.50221541
6.6905125,-11.51854706,-4.420906677,-28.78918259,31.32153215
6.7004525,-20.57740906,-3.120111694,-36.75950821,42.24247039
6.7103935,-10.81530945,-2.211950226,-19.52854019,22.43273332
6.7203335,-3.6588414,-1.898801422,-7.176526337,8.276176502
6.7302735,-1.268761597,-1.456920319,-2.443818054,3.115223826
6.7402135,-1.196162567,-1.116079102,-0.785716095,1.814879398
6.7501535,-0.7842192078,-0.7915539551,0.2523751831,1.142475673
6.7600935,-0.3830534363,-0.5584886169,1.086740112,1.280485666
6.7700335,-0.2303709412,-0.4438270569,1.692530365,1.764854743
6.7799745,-0.126486969,-0.3405418396,1.994901581,2.027708069
6.7899145,0.04056564331,-0.2520758057,2.234104156,2.248646074
6.7998545,0.1707948303,-0.2005828857,2.456092529,2.470181143
6.8097945,0.2838098145,-0.1996847534,2.739453278,2.761345011
6.8197345,0.5016069031,-0.1549278259,2.980601807,3.026482983
6.8296745,0.7226971436,-0.08472381592,3.093018036,3.177456507
6.8396145,0.9598040771,-0.03592529297,3.108286285,3.253299575
6.8495555,1.064137115,-0.03233276367,2.974464569,3.159251918
6.8594955,0.8515791321,-0.1751358032,2.923570404,3.050102207
6.8694355,0.5141807556,-0.269589386,2.962190094,3.018547737
6.8793755,0.2381547546,-0.3426374817,2.970572662,2.999736667
6.8893155,0.1646575928,-0.4472698975,3.034190369,3.071396047
6.8992555,0.3222798157,-0.5599855042,3.201242981,3.265793115
6.9091955,1.020727386,-0.5730084229,3.432661743,3.62676022
6.9191365,1.997895355,-0.5062472534,4.001778259,4.501344396
6.9290765,3.518134003,-0.1297801208,5.429958344,6.471364412
6.9390165,6.829248505,0.3339555359,8.420439606,10.84684123
6.9489565,15.25133469,0.5957611084,14.78774872,21.25172118
6.9588965,31.74134354,-0.3662882996,22.58787827,38.95971382
6.9688365,48.4647171,-2.675087128,25.6874826,54.91658818
6.9787765,54.79175995,-1.304237823,22.56078461,59.2691066
6.9887175,57.80200012,1.939516754,17.86310349,60.53035114
6.9986575,52.58489914,-0.1128652954,9.94337265,53.51686665
7.0085975,39.99742493,-2.056124268,1.941762085,40.0972828
7.0185375,26.46376831,-2.372715912,-3.341501312,26.77921666
7.0284775,14.75391907,-3.992946625,-9.532776489,18.0137608
7.0384175,4.125121765,-6.078110504,-23.33841751,24.46715735
7.0483575,-9.067394257,-8.698710938,-52.26890625,53.75801123
7.0582975,-11.3706546,-8.872649231,-36.74873062,39.47765055
7.0682385,-0.4674778748,-4.751569061,-6.1803479,7.80977876
7.0781785,3.168161774,-3.588188324,-0.9626481628,4.882523524
7.0881185,3.045866089,-3.06442749,1.196611633,4.483290697
7.0980585,2.288890228,-2.623594208,2.034419403,4.032508816
7.1079985,1.665137329,-2.294279022,2.396815796,3.7122937
7.1179385,1.027613068,-2.087558899,2.462828522,3.388128554
7.1278785,0.4379891968,-1.880389709,2.365381165,3.053314273
7.1378195,0.1332229614,-1.58310791,2.268233185,2.769270805
7.1477595,-0.1127156067,-1.298399963,2.098336487,2.470134265
7.1576995,-0.3143463135,-1.066681824,1.944007416,2.239595622
7.167639708,-0.3722758484,-0.8205935669,1.877395935,2.082445343
7.177579708,-0.4320016479,-0.6149212646,1.849553833,1.996397497
7.187519708,-0.4715194702,-0.4354444885,1.82186142,1.931611127
7.197459708,-0.5617817688,-0.2764750671,1.74342453,1.852448734
7.207399708,-0.6468049622,-0.1535806274,1.568737793,1.703784591
7.217340708,-0.6572831726,-0.05089416504,1.29405899,1.452308526
7.227280708,-0.6475534058,-0.01586700439,1.047072601,1.231234424
7.237220708,-0.5884263611,0.02829116821,0.7933502197,0.9881551213
7.247160708,-0.4414320374,0.1318757629,0.7057823181,0.8428417058
7.257100708,-0.2136058044,0.2841091919,0.84948349,0.9208516017
7.267040708,0.2418969727,0.4364923096,1.38656662,1.473637226
7.276980708,0.9033714294,0.6776408386,2.450703735,2.698374667
7.286921708,1.722917175,1.098864899,4.048930206,4.535392318
7.296861708,3.261417847,1.352886658,6.164780273,7.104341243
7.306801708,7.26394455,1.623673553,9.968670044,12.44088376
7.316741708,19.17048477,1.799408112,15.95142883,25.00386846
7.326681708,40.34694809,0.3716770935,22.79804123,46.3439861
7.336621708,54.89848801,0.6572831726,26.08760056,60.78518659
7.346561708,69.2193576,3.880530396,25.30622543,73.80232401
7.356502708,76.99658478,1.589993591,16.96033081,78.85844893
7.366442708,57.02960632,-2.456840973,2.268382874,57.12755575
7.376382708,31.34391998,-2.642604675,-4.99511261,31.84926733
7.386322708,14.2147403,-4.871769104,-11.73619446,19.06649512
7.396262708,-0.02439926147,-7.003785553,-25.16282364,26.1193664
7.406202708,-12.73207352,-7.677534485,-39.45435425,42.16273593
7.416142708,-11.06828339,-5.534441071,-21.02797211,24.39902756
7.426082708,-2.495011597,-2.752476196,-4.594994659,5.908907175
7.436023708,0.08711883545,-1.523382111,-1.086440735,1.873135397
7.445963708,0.6198609924,-0.7596702576,0.5260061646,1.112658544
7.455903708,0.6956034851,-0.4528083801,1.323697357,1.562393782
7.465843708,0.4206253052,-0.3619473267,1.624421997,1.716589159
7.475783708,0.16615448,-0.3311114502,1.839973755,1.876897845
7.485723708,-0.05194198608,-0.3049159241,2.019899597,2.043444659
7.495663708,-0.1510359192,-0.3007246399,2.204016724,2.229559794
7.505604708,-0.02424957275,-0.3251239014,2.550246735,2.571002139
7.515544708,0.0513432312,-0.3977229309,2.861599274,2.889562261
7.525484708,0.007634124756,-0.4833448792,2.935395813,2.974933467
7.535424708,-0.09819580078,-0.5740562439,2.889740753,2.947844061
7.545364708,-0.1751358032,-0.6092330933,2.800077209,2.870935369
7.555304708,-0.2439926147,-0.5619314575,2.802023163,2.868210795
7.565244708,-0.3255729675,-0.4616400146,2.848726044,2.904195126
7.575184708,-0.3118016052,-0.3490740967,2.780018921,2.819144935
7.585125708,-0.2553689575,-0.1706451416,2.763253784,2.780270588
7.595065708,-0.06960525513,0.007783813477,2.758164368,2.75905349
7.605005708,0.02799179077,0.06810836792,2.918031921,2.918960874
7.614945708,-0.1269360352,-0.01601669312,3.104544067,3.107179293
7.624885708,-0.5514532471,-0.2291734314,3.322341156,3.375584676
7.634825708,-1.108444977,-0.2284249878,3.768563232,3.934831264
7.644765708,-1.160237274,-0.1490899658,4.541256409,4.68949764
7.654705708,-0.3053649902,-0.1197509766,5.700745239,5.710173759
7.664646708,1.556313629,-0.3297642517,7.096442871,7.272575747
7.674586708,6.916067963,-1.011746063,9.464967499,11.76610538
7.684526708,23.282883,-4.763843536,16.41516449,28.88329052
7.694466708,57.93731873,-13.07590851,22.16351074,63.3950589
7.704406708,77.58171799,-19.84887405,19.88330246,82.51209901
7.714346708,68.06151535,-9.273216248,10.34229309,69.46456246
7.724286708,62.97599075,-0.1282832336,4.421655121,63.13115635
7.734227708,58.92930588,-4.539609833,-2.92641449,59.17630481
7.744167708,35.95118912,-4.85350708,-10.45455963,37.7537064
7.754107708,11.69503006,-6.565047913,-24.20391769,27.67134283
7.764047708,-4.336033173,-7.155869293,-33.73624512,34.75833546
7.773987708,-5.820196838,-3.979025574,-21.78165482,22.89427488
7.783927708,-2.971021729,-1.372795258,-7.060068512,7.78178028
7.793867708,-2.787054291,-0.4210743713,-2.467618561,3.746213636
7.803807708,-1.570983124,-0.1119671631,-0.04131408691,1.575509909
7.813748708,-0.7201524353,-0.05972579956,1.146016846,1.354821506
7.823688708,-0.689765625,0.2052232361,1.476828918,1.642838047
7.833628708,-0.8059240723,0.2993774414,1.499431915,1.728420242
7.843568708,-1.013093262,0.3026705933,1.992356873,2.255538373
7.853508708,-1.145418091,0.2472857666,2.384840698,2.657178581
7.863448708,-1.373394012,0.2276765442,2.934797058,3.248242832
7.873388708,-1.668430481,0.2348616028,3.574716339,3.951887795
7.883328708,-1.779499512,0.1914518738,3.905977478,4.296502344
7.893269708,-1.877246246,0.01571731567,3.94085495,4.36516188
7.903209708,-1.895208893,-0.307610321,3.617677002,4.095610791
7.913149708,-1.974394226,-0.6846762085,3.292403412,3.899606941
7.923089708,-2.130968628,-0.7801776123,3.009641418,3.769303101
7.933029708,-2.295326843,-0.5846841431,2.840193787,3.69825386
7.942969708,-2.297422485,-0.1628613281,2.7099646,3.556484503
7.952909708,-2.470762024,0.2656974792,2.795736237,3.740508152
7.962849708,-2.826123047,0.5195695496,2.998564453,4.153108808
7.972790708,-2.987487488,0.5845344543,3.152444458,4.382313097
7.982730708,-3.013383636,0.5599855042,3.39793396,4.57602665
7.992670708,-2.780767365,0.5792953491,4.03680542,4.935995162
8.002610708,-1.946402435,0.6484515381,4.894372101,5.306962417
8.012550708,-0.8345146179,0.68332901,5.731431427,5.832037327
8.022490708,0.7011419678,0.7206015015,6.978787537,7.050839813
8.032430708,6.081553345,0.2827619934,12.43748611,13.84761013
8.042370708,23.01089859,-2.571502533,21.79677338,31.7995819
8.052311708,43.75655777,-6.469995575,24.75716721,50.68939257
8.062251708,72.88987473,-10.70094727,23.16777237,77.22816705
8.072191708,75.58082886,-8.957822113,18.27774124,78.27375098
8.082131708,71.77708878,-4.19712204,8.530909882,72.40402427
8.092071708,56.18311661,-5.549260254,1.293909302,56.47132974
8.102011708,34.42481323,-4.459526367,-6.891968079,35.39003201
8.111951708,16.48357224,-3.81796051,-13.96700546,21.9399685
8.121892708,-0.09295669556,-3.636537781,-28.34715179,28.57960921
8.131832708,-12.1801712,-3.574117584,-39.82932449,41.80318142
8.141772708,-12.71545807,-2.944077759,-28.44504822,31.29650517
8.151712708,-8.490044861,-1.425934753,-13.86237305,16.31807397
8.161651958,-3.203787689,-1.080902252,-5.442232819,6.407066668
8.171591958,-0.9253756714,-0.9704319763,-1.30348938,1.87006495
8.181531958,-0.4281097412,-0.846789093,0.2101629639,0.9718529673
8.191471958,-0.1787283325,-0.672102356,0.9741741943,1.196946429
8.201412958,-0.1194515991,-0.4046086121,1.561552734,1.617536323
8.211352958,-0.1053808594,-0.08547225952,1.93652298,1.941270688
8.221292958,-0.1330732727,0.2146536255,2.021097107,2.036815699
8.231232958,-0.06122268677,0.2460882568,1.706451416,1.725191028
8.241172958,-0.1444496155,0.2035766602,1.895358582,1.911725216
8.251112958,-0.08053253174,0.1561253357,2.455643463,2.461919054
8.261052958,0.1697470093,0.1646575928,2.769241333,2.779320732
8.270992958,0.396076355,0.2763253784,3.190465393,3.226809821
8.280933958,0.8122109985,0.4736151123,3.768263855,3.883788159
8.290873958,1.502126312,0.5301974487,3.896547089,4.209580978
8.300813958,2.153421936,0.4043092346,4.048181763,4.603093262
8.310753958,2.414329376,-0.1055305481,4.5586203,5.159568013
8.320693958,2.971321106,-0.5216651917,5.86091217,6.591750538
8.330633958,4.828209686,-0.6979985046,7.719746704,9.131993203
8.340573958,9.536818085,-1.893562317,9.347910919,13.48776913
8.350513958,18.28836914,-4.653522949,10.84300186,21.76442995
8.360454958,24.81000732,-7.438032532,10.74330917,28.04067552
8.370394958,33.27086288,-9.280251617,13.76657227,37.18322067
8.380334958,54.86376022,-12.47146545,15.24968811,58.29341836
8.390274958,54.08597763,-11.73305099,16.14976639,57.65216749
8.400214958,51.12318878,-4.057612152,13.63230148,53.0649064
8.410154958,48.83998672,-2.861748962,9.969717865,49.92924178
8.420094958,40.67790985,-3.689677277,3.537892914,40.99783841
8.430034958,26.03041946,-2.815944214,-4.262536011,26.52699554
8.439975958,13.16557205,-3.060535583,-9.95040802,16.78421238
8.449915958,2.618504791,-3.72201004,-16.78489563,17.39087828
8.459855958,-5.948031006,-3.110232239,-22.823638,23.79014647
8.469795958,-12.36967712,-2.854713593,-22.8793222,26.16527635
8.479735958,-9.628277893,-2.444416809,-11.97225357,15.55679158
8.489675958,-3.757037201,-1.476828918,-2.988984375,5.022985146
8.499615958,-2.375859375,-0.946481781,-0.1562750244,2.562217285
8.509555958,-2.167193298,-0.3788621521,0.7105723572,2.311963753
8.519495958,-1.871707764,0.09879455566,0.9434880066,2.098385078
8.529436958,-1.732197876,0.1465452576,0.776585083,1.903961498
8.539376958,-1.566342773,0.04760101318,0.7713459778,1.746616775
8.549316958,-1.403631134,-0.04954696655,1.12910202,1.80208397
8.559256958,-1.314566345,-0.1353186035,1.542392578,2.031100851
8.569196958,-1.41934845,-0.1375639343,1.877845001,2.357917663
8.579136958,-1.445693665,-0.1761836243,2.037862244,2.504786092
8.589076958,-1.520088959,-0.2637515259,2.283651123,2.755956778
8.599016958,-1.685345306,-0.3056643677,2.638712769,3.14589011
8.608957958,-1.659449158,-0.3186872864,2.927013245,3.379754374
8.618897958,-1.769919434,-0.2951861572,3.120261383,3.599413948
8.628837958,-1.777852936,-0.2408491516,3.256178741,3.717723681
8.638777958,-1.594933319,-0.1944456482,3.439547424,3.796328211
8.648717958,-1.336869965,-0.05044509888,3.670367432,3.906579462
8.658657958,-1.16308136,0.193996582,4.069886627,4.237259737
8.668597958,-0.4851411438,0.5367837524,4.859195251,4.912766758
8.678537958,0.6882687378,0.7194039917,6.375691681,6.452960589
8.688478958,3.209625549,0.4803511047,8.912616119,9.485101973
8.698418958,9.390123138,-0.8825646973,12.73461823,15.84688721
8.708358958,19.45818649,-3.15109726,16.74867096,25.86635681
8.718298958,32.48933807,-5.141657867,17.74724442,37.37590692
8.728238958,62.59323669,-6.656807098,16.48955978,65.0702078
8.738178958,73.15841629,-4.196223907,13.82899246,74.57213422
8.748118958,78.5132309,-2.732567596,8.620274048,79.03229388
8.758058958,67.23089264,-5.151237946,1.346599731,67.44139314
8.767999958,38.2526532,-4.215533752,-8.177045746,39.34336385
8.777939958,16.99565735,-4.566404114,-15.35926025,23.3583238
8.787879958,0.1401086426,-5.637576599,-27.55799286,28.12907518
8.797819958,-9.890981598,-4.724325714,-32.35252258,34.15898839
8.807759958,-8.599617004,-3.117566986,-19.11465088,21.19062327
8.817699958,-3.920197906,-1.843266907,-7.30720459,8.4947527
8.827639958,-1.6615448,-1.185983734,-1.790576477,2.715410219
8.837579958,-0.7214996338,-0.9183403015,0.6535409546,1.338292349
8.847519958,-0.669407959,-0.4086502075,1.776954803,1.94233632
8.857460958,-1.053958282,0.5343887329,2.175276489,2.475525638
8.867400958,-1.366807709,0.7015910339,2.078577576,2.584739451
8.877340958,-1.351090393,0.1300794983,1.422940979,1.966501197
8.887280958,-1.239871674,-0.02245330811,1.616787872,2.03759391
8.897220958,-1.414259033,-0.1417552185,2.393822021,2.783991204
8.907160958,-1.46964386,-0.2430944824,2.972967682,3.325279663
8.917100958,-1.272653503,-0.2942880249,3.040177917,3.308917368
8.927040958,-1.470242615,-0.3791615295,3.204236755,3.54577354
8.936981958,-1.742077332,-0.4810995483,3.468886414,3.911452819
8.946921958,-1.655557251,-0.5828878784,3.346141663,3.778530418
8.956861958,-1.742676086,-0.6821315002,3.339555359,3.828165791
8.966801958,-1.593436432,-0.7488926697,3.432212677,3.857455606
8.976741958,-1.520388336,-0.7147636414,3.562441864,3.938712961
8.986681958,-1.64283371,-0.6954537964,3.962559814,4.345622955
8.996621958,-1.510957947,-0.616867218,4.412823486,4.704947418
9.006561958,-1.46260849,-0.483943634,4.775219879,5.017584073
9.016502958,-1.975292358,-0.3941304016,4.9939151,5.384821882
9.026442958,-2.450853424,-0.3089575195,5.101391602,5.668009662
9.036382958,-2.013163605,-0.004041595459,5.321883087,5.689928262
9.046322958,-0.1149609375,0.4655319214,7.000342712,7.016746688
9.056262958,4.368216248,-0.1425036621,11.24716141,12.06649329
9.066202958,11.38771912,-1.8991008,14.85675522,18.81515097
9.076142958,20.5530098,-3.69042572,17.24863129,27.08432637
9.086082958,35.35348206,-5.364244995,16.69463333,39.46333235
9.096022958,72.43586884,-10.27972321,4.918022919,73.32676696
9.105963958,79.2523938,-10.91859467,-0.4607418823,80.00231194
9.115903958,70.21927826,-5.125192108,0.7008425903,70.40955769
9.125843958,48.83175385,-0.8948391724,-2.045646057,48.88277394
9.135783958,31.66814575,-2.995570679,-7.164102173,32.60627637
9.145723958,15.8708963,-4.504432983,-19.50354218,25.54532097
9.155663958,-2.829416199,-5.497168579,-41.69714035,42.15300668
9.165603958,-12.98804123,-4.752018127,-41.66555603,43.90090489
9.175543958,-8.131240997,-2.571203156,-16.76423859,18.80871769
9.185483958,-3.636238403,-1.348545685,-5.702092438,6.895988933
9.195424958,-2.089055786,-0.9523196411,-1.802252197,2.918763396
9.205364958,-1.196761322,-0.7565267944,0.4644841003,1.490072459
9.215304958,-0.7297325134,-0.3475772095,1.309776306,1.539101501
9.225244958,-0.8208929443,0.09729766846,1.354383545,1.586722045
9.235184958,-0.7348219299,0.2781216431,1.347198486,1.55957003
9.245124958,-0.7029382324,0.06197113037,1.733395386,1.871529359
9.255064958,-0.9211843872,-0.1463955688,2.489323425,2.658334714
9.265004958,-1.068029022,-0.1847158813,3.072061615,3.257663045
9.274944958,-1.022373962,-0.254021759,3.027154999,3.205221203
9.284885958,-0.7494914246,-0.3496728516,2.654430084,2.780289116
9.294825958,-0.7340734863,-0.5041516113,2.865940247,3.0011075
9.304765958,-0.9654922485,-0.77927948,3.586990814,3.795517737
9.314705958,-1.320104828,-1.152303772,4.154161377,4.508607045
9.324645958,-1.460812225,-1.477128296,4.262236633,4.741575843
9.334585958,-1.038390656,-1.523681488,4.100273438,4.495787216
9.344525958,-0.5008584595,-1.146166534,4.20640274,4.388437186
9.354465958,-0.005538482666,-0.6080355835,4.499493256,4.540393981
9.364406958,0.3135978699,-0.2677931213,4.975353699,4.992414367
9.374346958,0.7298822021,0.07200027466,5.879473572,5.925041903
9.384286958,2.207459564,0.2634521484,7.609426117,7.927524872
9.394226958,6.006409607,-0.4393363953,11.39161102,12.88560338
9.404166958,10.73717194,-1.902244263,14.38822952,18.05343577
9.414106958,15.8045842,-3.363355865,16.21742569,22.89327282
9.424046958,22.47306702,-4.040547638,16.05022339,27.91011353
9.433986958,49.00763809,-4.474944305,14.45678696,51.29105582
9.443926958,68.19279236,-6.406826935,14.27012512,69.96385375
9.453867958,67.39704712,-0.3529660034,10.11506561,68.15277762
9.463807958,62.84621063,3.248993683,4.158652039,63.06739679
9.473747958,47.38127014,0.4755610657,-3.390000458,47.50476841
9.483687958,29.11715057,-1.409319305,-11.06319397,31.17994386
9.493627958,10.60320053,-5.333409119,-25.54647583,28.16905291
9.503567958,-7.176226959,-9.609267426,-45.90054932,47.441508
9.513507958,-10.53284683,-6.856042786,-34.83750504,37.03509069
9.523447958,-4.927602997,-3.256627808,-12.95451096,14.23749452
9.533387958,-2.077230377,-2.197580109,-5.003046112,5.845914366
9.543328958,-0.6367758179,-1.683549042,-0.7623646545,1.954743125
9.553268958,-0.3727249146,-1.266516266,1.540746002,2.02901098
9.563208958,-0.6435118103,-0.7027885437,2.100132751,2.306203972
9.573148958,-0.9867480469,-0.4863386536,1.810335388,2.118374663
9.583088958,-1.098864899,-0.5454656982,1.659449158,2.063688058
9.593028958,-0.8809181213,-0.6390211487,1.708547058,2.025709213
9.602968958,-0.9178912354,-0.7083270264,2.199675751,2.486528686
9.612908958,-1.082997894,-0.7957452393,2.872227173,3.171085596
9.622849958,-1.193917236,-0.8836125183,3.274291077,3.595440377
9.632789958,-1.455124054,-1.034798126,3.453019409,3.887355941
9.642729958,-1.572929077,-1.18179245,3.645668793,4.142661007
9.652669958,-1.709594879,-1.345851288,3.894152069,4.460767947
9.662609958,-1.787133636,-1.50706604,4.272116089,4.869914841
9.672549958,-1.631607056,-1.50706604,4.788991241,5.27899865
9.682489958,-1.487456818,-1.37249588,5.458099823,5.821265017
9.692429958,-1.56319931,-1.235830078,6.156248016,6.470723121
9.702369958,-1.569785614,-1.110989685,6.372997284,6.656847552
9.712309958,-1.246008911,-0.9274713135,6.121669922,6.315661792
9.722250958,-0.9680369568,-0.6417155457,5.982309723,6.094007221
9.732190958,-0.8539741516,-0.06406677246,6.079158325,6.139180918
9.742130958,-0.3555107117,0.5081932068,6.129603424,6.160899799
9.752070958,0.554147644,0.7896080017,6.019133148,6.095943263
9.762010958,2.988684998,0.3921844482,7.364086304,7.957123459
9.771950958,12.37117401,-1.465153198,15.61956894,19.97907791
9.781890958,29.72249176,-5.0735495,21.26283371,36.89546745
9.791830958,62.7869339,-9.525890808,17.15911743,65.78280151
9.801771958,79.43351715,-14.27955551,6.958130493,81.00620305
9.811711958,70.90335571,-7.408693542,-1.629511414,71.30799323
9.821651958,53.05492172,-2.4724086,-3.515439606,53.22871254
9.831591958,40.00745407,-3.242557068,-5.248236237,40.48029819
9.841531958,28.03430237,-4.141437836,-10.03887405,30.06414158
9.851471958,11.95444061,-5.903423767,-21.29366959,25.12328456
9.861411958,-4.667893066,-7.717950439,-40.32389603,41.32036514
9.871351958,-10.43599823,-5.400619354,-35.69013199,37.57475575
9.881291958,-7.330705719,-2.874023438,-15.40551407,17.30113062
9.891232958,-3.86601059,-1.473386078,-5.681734772,7.028443244
9.901172958,-1.913919983,-0.8488847351,-1.376986542,2.505950305
9.911112958,-1.503174133,-0.467328186,0.9716294861,1.849862689
9.921052958,-1.247805176,-0.1249900818,1.760339355,2.161350255
9.930992958,-1.140628052,-0.08187973022,1.652862854,2.009898569
