Time (s),Acceleration x (m/s^2),Acceleration y (m/s^2),Acceleration z (m/s^2),Absolute acceleration (m/s^2)
4.972138708,2.855312347,0.1898052979,-3.464246063,4.493310076
4.982078708,2.589914246,0.4668791199,-3.431763611,4.324654136
4.992018708,2.158960419,0.7084767151,-3.060086517,3.811453639
5.001958708,1.399589539,1.032852173,-2.65263382,3.172081441
5.011897708,0.7473957825,1.312321014,-2.392175446,2.829008707
5.021837708,0.1068777466,1.497485962,-1.804497528,2.347359876
5.031777708,-0.3183879089,1.763931885,-1.356030121,2.247586315
5.041717708,-0.4676275635,2.125879211,-1.142574005,2.458355816
5.051657708,-0.5340893555,2.355052643,-0.9804611206,2.606305508
5.061596708,-0.5349874878,2.455044708,-0.7851173401,2.632463745
5.071536708,-0.6366261292,2.405497742,-0.5619314575,2.550976122
5.081476708,-0.6965016174,2.307751007,-0.2853067017,2.427391425
5.091416708,-0.7785310364,2.2056633,0.1323248291,2.342769947
5.101356708,-0.9714797974,2.042352905,0.4730163574,2.310567649
5.111295708,-2.014959869,1.374441833,3.880081329,4.583032266
5.121235708,-5.326673126,-1.646426239,19.82267853,20.59181269
5.131175708,-2.800077209,-3.563639374,17.98285446,18.54516143
5.141115708,0.5117857361,-1.911075897,3.660637665,4.161058019
5.151055708,0.5611830139,0.8078700256,-5.595065002,5.680874293
5.160995708,1.758393402,0.3047662354,-4.807103577,5.127677312
5.170934708,2.868185577,-0.03128494263,-5.090763702,5.84323047
5.180874708,4.677323456,-0.2951861572,-5.342839508,7.107068565
5.190814708,9.7609021,-1.261875916,-2.977608032,10.28268886
5.200754708,14.79044312,-1.7995578,-7.204967194,16.55014103
5.210694708,25.03184601,-3.623365173,-9.747280426,27.10593229
5.220633708,52.63414673,-10.42836411,-1.372196503,53.67482746
5.230573708,78.42536362,-19.18350769,15.56148972,82.22350387
5.240513708,68.99018417,-20.6220163,7.986791382,72.44792547
5.250453708,33.08270416,-13.18967194,-0.783021698,35.62367027
5.260393708,17.10986984,-9.117240601,-1.163680115,19.42230351
5.270332708,10.07719437,-7.864495697,1.919757843,12.92615987
5.280272708,7.050189056,-6.753805389,2.794838104,10.1553027
5.290212708,6.647376709,-5.535488892,1.719174957,8.819570109
5.300152708,5.517675934,-4.08246048,0.5298980713,6.884186462
5.310092708,4.161047058,-2.745740204,-0.09415420532,4.986207667
5.320031708,2.716850281,-1.765728149,-0.7086264038,3.316809118
5.329971708,1.600172424,-0.9804611206,-1.369352417,2.323140512
5.339911708,0.8894503784,-0.347277832,-1.825453949,2.060098538
5.349851708,0.3263214111,0.2568658447,-1.834135895,1.8805638
5.359791708,0.08427474976,0.825383606,-1.578317871,1.783100567
5.369730708,0.2914439392,1.091230774,-1.768871613,2.098721266
5.379670708,0.33230896,1.214873657,-1.901645508,2.280921499
5.389610708,0.08577163696,1.365011444,-1.793121185,2.255193251
5.399550708,-0.2377056885,1.562301178,-1.71184021,2.329739442
5.409490708,-0.4837939453,1.863624573,-1.320553894,2.334741038
5.419429708,-0.8026309204,2.497556305,-0.1459465027,2.62741399
5.429369708,-1.622176666,3.620970154,2.17752182,4.525978708
5.439309708,-2.251318359,4.029171295,3.190016327,5.61060245
5.449249708,-2.594404907,3.856430511,3.664379883,5.91867156
5.459189708,-3.49852478,3.393443298,4.853956146,6.878664356
5.469128708,-4.18544632,2.272723846,5.203479309,7.054036539
5.479068708,-2.375559998,0.6167175293,4.226161652,4.887132914
5.489008708,0.157023468,-0.9997709656,3.960464172,4.087722448
5.498948708,2.782114563,-2.092947693,3.814966736,5.164742267
5.508888708,3.861819305,-0.9172924805,-1.452579346,4.22670801
5.518827708,2.9077034,0.2647993469,-5.142705688,5.913736514
5.528767708,4.043990479,-0.1471440125,-4.826712799,6.298624199
5.538707708,7.281907196,-0.7161108398,-5.373825073,9.07837998
5.548647708,14.46397202,-2.199675751,-5.385650482,15.59007027
5.558587708,27.22179199,-4.706213379,-3.991898804,27.91253589
5.568526708,39.27068619,-7.000342712,-6.649771729,40.44021582
5.578466708,58.28549469,-11.76777878,0.1712438965,59.46182669
5.588406708,74.16282761,-17.62255371,30.53634933,82.11667327
5.598346708,47.11317764,-18.97828445,13.69202728,52.60511762
5.608286708,23.93148422,-14.99042725,-2.480940857,28.34755569
5.618225708,15.29923508,-13.54638016,-1.272054749,20.47410884
5.628165708,8.900641022,-12.57145752,1.827998657,15.51143236
5.638105708,7.066355438,-8.570427704,-1.162033539,11.16852417
5.648045708,6.81921936,-5.147346039,-3.220253448,9.130550706
5.657985708,6.047124939,-3.075803833,-3.632346497,7.695598113
5.667924708,4.266876984,-1.701960754,-2.855911102,5.40917164
5.677864708,2.451452179,-0.8490344238,-1.204395447,2.860252721
5.687804708,1.186283112,-0.1860630798,0.1043330383,1.205310115
5.697744708,0.4659809875,0.2523751831,0.6256988525,0.8199576622
5.707684708,0.2553689575,0.3879931641,0.3568579102,0.5857470169
5.717623708,0.07978408813,0.3755690002,-0.2040257263,0.4347919867
5.727563708,-0.3662882996,0.5399272156,-0.3317102051,0.731929079
5.737503708,-0.6041436768,0.9440867615,-0.1844165039,1.13591322
5.747443708,-0.8047265625,1.474882965,0.3004252625,1.706786436
5.757383708,-1.15604599,2.055076447,1.173110504,2.633622939
5.767323708,-1.865271149,2.82342865,2.166594543,4.018098769
5.777262708,-1.74926239,3.243006134,1.746418304,4.077619966
5.787202708,-0.8601113892,3.009042664,0.3311114502,3.14702465
5.797142708,-0.4676275635,2.605930939,-0.7623646545,2.755131841
5.807082708,-0.6096821594,2.372416534,-1.00396225,2.647265145
5.817022708,-1.452729034,2.842738495,0.4864883423,3.229280834
5.826961708,-3.316503296,3.162174225,5.048102417,6.817761946
5.836901708,-3.446732483,1.493743744,7.83725235,8.691016027
5.846841708,-1.85224823,-0.6054908752,5.382507019,5.72440604
5.856781708,0.4519102478,-0.43409729,-1.742077332,1.851349983
5.866721708,1.553469543,0.4294569397,-4.540657654,4.818222993
5.876660708,2.142195282,0.0477507019,-4.056564331,4.587700396
5.886600708,2.972518616,-0.2868035889,-4.00866394,4.998750825
5.896540708,8.315358124,-2.472558289,-0.3067121887,8.680598918
5.906480708,20.01442978,-5.775140533,2.442770233,20.97371627
5.916420708,34.1691449,-7.663463745,1.478475494,35.04918015
5.926359708,50.88189056,-10.24454636,1.034648438,51.91327397
5.936299708,66.22348755,-14.01475616,3.695664825,67.79101439
5.946239708,66.97612244,-15.63723221,6.315367126,69.06669146
5.956179792,39.85237656,-11.90534271,6.7642836,42.13911051
5.966119792,19.66221222,-9.686057739,6.113586731,22.75518065
5.976058792,12.96139664,-9.148076477,0.7479945374,15.88221023
5.985998792,10.43330383,-7.889044647,-3.311713257,13.4928981
5.995938792,7.889643402,-6.249653778,-3.84610199,10.77483855
6.005878792,5.92887085,-4.415817261,-3.108435974,8.019558955
6.015818792,4.61131073,-2.832409973,-2.281106415,5.872834016
6.025757792,3.214565277,-1.608704681,-1.39000946,3.854022181
6.035697792,2.121538239,-0.8286767578,-1.365310822,2.655504341
6.045637792,1.525328064,-0.3607498169,-1.871857452,2.441437375
6.055577792,0.7541317749,0.01556762695,-2.274969177,2.396756525
6.065517792,-0.247585144,0.4399351501,-2.062111816,2.123004118
6.075456792,-1.067579956,0.8190966797,-1.604663086,2.094180019
6.085396792,-1.376387787,0.9976753235,-1.339264984,2.1641234
6.095336792,-1.28822113,1.303040314,-1.091380463,2.132730422
6.105276792,-1.134490814,1.525926819,-0.8247848511,2.072629276
6.115216792,-1.149309998,1.74926239,-0.4102967834,2.132879704
6.125155792,-1.605112152,2.302362213,0.4637356567,2.844698146
6.135095792,-2.071691895,2.976410522,0.9104067993,3.73895272
6.145035792,-2.201472015,3.190764771,1.154249725,4.044718938
6.154975792,-5.324577484,3.530258789,8.381969604,10.53903539
6.164915792,-6.906038818,3.271147614,9.917326813,12.51987021
6.174854792,-4.271816711,2.410886536,3.732637939,6.163876856
6.184794792,-0.4694238281,1.178050232,1.286424866,1.806391434
6.194734792,2.330653381,0.5918692017,1.035845947,2.618249637
6.204674792,2.68182312,0.7771838379,-1.840123444,3.343986282
6.214614792,1.585951996,0.8491841125,-3.502266998,3.93728733
6.224554792,1.831890564,0.6132746887,-3.094215546,3.647752558
6.234493792,2.697839813,0.3980223083,-3.013533325,4.064252024
6.244433792,6.533463593,-0.543968811,-2.117197266,6.889453741
6.254373792,13.88512573,-2.321522369,-4.164938965,14.68103877
6.264313792,26.79143692,-5.286855927,-7.378007355,28.28722203
6.274252792,46.59001556,-10.71217392,-7.893984375,48.45302065
6.284192792,70.12407623,-18.97588943,-4.451143799,72.78243695
6.294132792,75.5815773,-26.04808273,11.82735489,80.81437845
6.304072792,44.35441452,-23.57507538,26.23040359,56.66685397
6.314012792,22.54865982,-17.08621902,9.884994049,29.96821729
6.323952792,16.82501221,-12.81155823,-1.435814209,21.19619358
6.333891792,12.02479431,-9.307045898,-6.586902466,16.57118178
6.343831792,8.978479156,-6.159541168,-8.184979248,13.62156087
6.353771792,6.074218597,-4.335733795,-6.573131104,9.944886707
6.363711792,2.339185638,-2.658022614,-4.004772034,5.345565705
6.373651792,-0.8208929443,-0.9512718201,-1.126707001,1.6876765
6.383590792,-2.007325745,0.3867956543,0.8008346558,2.195518998
6.393530792,-1.80195282,0.7933502197,0.2046244812,1.97947208
6.403470792,-1.309925995,0.7123686218,-1.086440735,1.844919683
6.413410792,-1.230141907,0.8021818542,-1.067879333,1.815794897
6.423350792,-1.54808075,1.222058716,-0.3620970154,2.005267005
6.433289792,-2.15417038,1.849404144,0.4966671753,2.882260224
6.443229792,-2.515219574,2.265389099,1.218466187,3.597634935
6.453169792,-2.24428299,2.156116333,0.8845106506,3.235429318
6.463109792,-1.791175232,1.986219635,0.2704875183,2.688222581
6.473049792,-1.779948578,1.871558075,-0.03712280273,2.583084333
6.482988792,-1.86631897,1.740730133,-0.2965333557,2.569283932
6.492928792,-1.815574493,1.47667923,-0.400866394,2.374360157
6.502868792,-1.756746826,1.127006378,-0.2125579834,2.097971326
6.512808792,-2.397264862,0.7360194397,1.517693939,2.931211068
6.522748792,-4.821773071,0.01571731567,6.926396484,8.439473375
6.532687792,-4.024530945,-0.8684939575,5.061873779,6.524852277
6.542627792,-2.089055786,-1.368903351,2.327509918,3.413993685
6.552567792,-0.3418890381,-0.9716294861,-0.1742376709,1.044658192
6.562507792,0.9674382019,-0.1472937012,-2.530038757,2.712697591
6.572447792,1.817520447,-0.273331604,-2.927612,3.45673296
6.582386792,2.68421814,-0.5995033264,-3.616329803,4.543376774
6.592326792,4.250411224,-1.100062408,-4.446802826,6.249014982
6.602266792,8.772956543,-1.915117493,-5.081932068,10.31787163
6.612206792,23.46670074,-4.791236572,-4.318070526,24.33696211
6.622146792,48.50393555,-9.685608673,-3.591182098,49.59172681
6.632085792,68.51432373,-16.98907104,-7.224277039,70.95795424
6.642025792,78.56202942,-26.15002075,10.39094193,83.44931231
6.651965792,57.96216705,-23.17750214,30.99619308,69.69629402
6.661905792,25.66592743,-14.80346603,11.81014069,31.89611043
6.671845792,16.3075383,-10.39827667,-2.261347504,19.47238187
6.681784792,11.95518906,-7.094047852,-6.822961578,15.48563415
6.691724792,8.578959961,-4.533023529,-7.639363861,12.34936179
6.701664792,4.590503998,-3.034639435,-4.833299103,7.324107022
6.711604792,0.7455995178,-1.5925383,-1.849404144,2.551938982
6.721544792,-1.843865662,-0.3712280273,-0.9864486694,2.123848348
6.731483792,-2.539020081,0.5406756592,-1.175056458,2.849510628
6.741423792,-2.423759766,0.9854008484,-1.663041687,3.100215135
6.751363792,-2.466720428,1.22160965,-1.947150879,3.371711191
6.761303792,-2.325863342,1.646575928,-1.964365082,3.461153384
6.771243792,-2.022743683,2.175276489,-1.560055847,3.355159319
6.781183792,-2.370320892,2.851869507,-0.586330719,3.75437938
6.791122792,-3.314407654,3.723506927,0.5611830139,5.016445785
6.801062792,-3.367397461,4.394112396,0.703686676,5.580570253
6.811002792,-3.580254822,5.122946777,2.731370087,6.82079107
6.820942792,-4.800517273,6.024372253,7.004983063,10.41190736
6.830882792,-3.665427704,5.369334412,2.404898987,6.931713454
6.840821792,-2.477647705,4.230053558,-1.645079041,5.170916389
6.850761792,-2.367626495,3.503165131,-2.386038208,4.854997372
6.860701792,-2.671195221,2.90411087,-2.195334778,4.515378018
6.870641792,-2.86204834,2.00088913,-1.088386688,3.657794908
6.880581792,-3.067271576,-0.1014889526,4.046235809,5.078432746
6.890520792,-1.090033264,-1.482068024,6.158493347,6.427420824
6.900460792,1.926044769,-1.459165649,3.610791321,4.34472402
6.910400792,1.960473175,-0.2803669739,-2.070195007,2.864920257
6.920340792,2.072140961,-0.03143463135,-3.89175705,4.409141552
6.930280792,3.845652924,-0.3251239014,-3.494932251,5.206659524
6.940219792,11.37918686,-1.373244324,0.9520202637,11.5012189
6.950159792,23.84077286,-3.552113342,-0.8141569519,24.11768669
6.960100417,38.2764537,-5.623805237,-6.978787537,39.31179936
6.970040417,64.68917816,-11.23788071,-4.2321492,65.7943069
6.979980417,79.11093796,-22.79100586,2.665357361,82.37156416
6.989919417,67.65511047,-26.34057449,11.48127457,73.50414617
6.999859417,28.67676636,-17.89813065,10.32238449,35.34475394
7.009799417,12.94223648,-12.04949295,1.522933044,17.74855179
7.019739417,8.394393768,-7.996521149,-2.839445343,11.93619064
7.029679417,5.957461395,-4.876110077,-3.354075165,8.397476762
7.039618417,3.349734192,-3.484004974,-2.491568756,5.437547672
7.049558417,0.6963519287,-2.222129059,-1.58894577,2.81913324
7.059498417,-1.050216064,-1.097667389,-0.9526190186,1.793128683
7.069438417,-2.017803955,-0.4616400146,-0.582588501,2.150361287
7.079378417,-2.397863617,-0.03981719971,-0.6544390869,2.485885326
7.089317417,-2.453098755,0.282462616,-1.059197388,2.686889975
7.099257417,-2.512974243,0.533789978,-1.41575592,2.933314868
7.109197417,-2.849773865,0.9053173828,-1.571731567,3.378039485
7.119137417,-3.375480652,1.621128845,-1.578766937,4.063795443
7.129077417,-3.122057648,2.158511353,-1.687740326,4.153899689
7.139016417,-2.64559845,2.589315491,-1.732796631,4.087337768
7.148956417,-2.448308716,2.722538452,-1.478625183,3.948767355
7.158896417,-2.344275055,2.700085144,-1.157393188,3.758409811
7.168836417,-2.282004547,2.873274994,-0.8508306885,3.766585563
7.178776417,-2.167492676,2.826422424,-0.5912704468,3.610580142
7.188715417,-2.305505676,2.605332184,-0.1871109009,3.48398087
7.198655417,-3.652554474,2.251018982,3.139870605,5.31667453
7.208595417,-5.161865845,1.015937347,7.134912872,8.864759974
7.218535417,-3.211721191,-0.2965333557,5.670508118,6.523629922
7.228475417,-0.75353302,-0.6746470642,4.458628235,4.571906212
7.238414417,-0.2375559998,-0.006885681152,0.7185058594,0.7567898887
7.248354417,0.4875361633,0.4450245667,-1.866468658,1.979758477
7.258294417,1.40527771,0.3950285339,-2.703078918,3.07204958
7.268234417,2.598296814,0.1236428833,-4.140689392,4.88996345
7.278174417,4.803511047,-0.3025209045,-5.657185822,7.427582965
7.288113417,10.11296997,-0.9252259827,-3.828139343,10.85278101
7.298053417,23.71907593,-2.696342926,0.9282197571,23.88988112
7.307993417,37.37921951,-5.017565918,-5.51932251,38.11620312
7.317933417,58.88709366,-9.96208374,-3.007246399,59.79946858
7.327873417,78.28615311,-22.325923,4.141886902,81.51272191
7.337813417,72.64977402,-26.38084076,11.13294891,78.08892992
7.347752417,34.83466095,-16.62427963,11.23069565,40.19886567
7.357692417,13.19910233,-10.20398071,2.817890167,16.91975265
7.367632417,8.293653259,-6.115382996,-3.106939087,10.76269781
7.377572417,5.314398651,-2.946173401,-5.13312561,7.954354107
7.387512417,3.080743561,-1.757046204,-4.267026672,5.54848708
7.397451417,0.3237767029,-1.20050354,-2.951711884,3.202911667
7.407391417,-1.789378967,-0.6216572571,-2.172731781,2.882550646
7.417331417,-2.863844604,-0.2204914856,-1.643133087,3.309094854
7.427271417,-3.19780014,0.1010398865,-1.254990234,3.436733229
7.437211417,-2.976560211,0.5017565918,-1.184486847,3.242634648
7.447150417,-2.466421051,0.7988887024,-1.285227356,2.893659502
7.457090417,-2.041454773,1.091530151,-1.155746613,2.587416838
7.467030417,-1.858235779,1.475781097,-0.7270381165,2.481844975
7.476970417,-1.889221344,1.961820374,-0.1592687988,2.728234413
7.486910417,-2.046993256,2.345173187,0.5754034424,3.165613335
7.496849417,-2.531685333,3.017574921,2.558329926,4.696833086
7.506789417,-2.584076385,3.429817657,3.695964203,5.665796618
7.516729417,-2.174078979,3.127895508,1.774260406,4.202183921
7.526669417,-1.523531799,2.63152771,-0.4378395081,3.07209874
7.536609417,-1.146166534,2.112257538,-1.039887543,2.618529307
7.546548417,-1.326391754,1.775308228,-0.9773176575,2.422020684
7.556488417,-1.487905884,1.559008026,-0.9229806519,2.344411062
7.566428417,-1.722917175,1.165775757,-0.8584648132,2.250430746
7.576368417,-1.60765686,0.5345384216,-0.5728587341,1.788423617
7.586308417,-0.2285746765,0.1510359192,-0.2264790344,0.3554588368
7.596247417,1.084494781,0.01691482544,-0.5930667114,1.236180879
7.606187417,1.92948761,-0.1270857239,-1.694775696,2.5712522
7.616127417,3.900438995,-0.6128256226,-2.329904938,4.584477791
7.626067417,12.15427505,-2.718197479,3.877386932,13.0441224
7.636007417,21.32151169,-5.036277008,0.6951544189,21.91926519
7.645946417,31.41202835,-6.185736694,-5.631439362,32.50679887
7.655886417,52.7167749,-8.631051636,-0.8680448914,53.42571394
7.665826417,73.49042587,-17.55489441,0.5629792786,75.56013472
7.675766417,77.61943954,-24.52724533,3.334615631,81.47074825
7.685706417,48.77232742,-17.98644699,7.232809296,52.48395686
7.695645417,19.78705261,-10.51533325,2.271376648,22.52240743
7.705585417,11.07217529,-6.531667328,-2.74858429,13.14573921
7.715525417,6.154900818,-3.605402527,-3.4810112,7.937201675
7.725465417,2.679278412,-2.048639832,-1.97514267,3.908535088
7.735405417,0.3992198181,-1.056952057,-0.6903643799,1.324057057
7.745344417,-1.537901917,-0.7554789734,-0.4420307922,1.76954288
7.755284417,-3.005300446,-0.540226593,-0.2646496582,3.064916798
7.765224417,-3.536246338,-0.01152603149,0.113613739,3.538089752
7.775164417,-3.314108276,0.5656736755,0.01242416382,3.362061084
7.785104417,-2.765948181,0.9879455566,-0.7038363647,3.020246909
7.795044417,-2.255809021,1.365011444,-0.9978250122,2.819146207
7.804983417,-2.543061676,2.010768585,-0.7295828247,3.32304741
7.814923417,-2.747985535,2.819686432,-0.3963757324,3.95716689
7.824863417,-2.084116058,3.258424072,-0.6122268677,3.916080811
7.834803417,-1.95643158,4.107608185,1.126257935,4.687059468
7.844742417,-1.96930481,4.583768005,2.212099915,5.45733237
7.854682417,-1.664688263,3.881727905,-0.5906716919,4.264726438
7.864622417,-1.430874481,3.360661469,-1.422641602,3.919866887
7.874562417,-1.759141846,3.070564728,-1.196012878,3.735424285
7.884502417,-2.550396423,3.054248657,0.02200424194,3.979125653
7.894442417,-4.802463226,2.531685333,4.327949982,6.942926956
7.904381417,-4.149371338,1.405128021,2.891986084,5.249309551
7.914321417,-1.982926483,0.6517446899,0.4776567078,2.141243683
7.924261417,-0.219743042,0.4206253052,-0.382155304,0.6093072527
7.934201417,0.7122189331,0.6882687378,-1.493294678,1.79189806
7.944141417,1.156644745,0.7569758606,-2.123633881,2.533902204
7.954080417,2.157463531,0.6903643799,-2.938389587,3.710173208
7.964020417,4.574187927,0.7625143433,-2.580633545,5.307004128
7.973960417,14.55887466,0.2724334717,4.365222473,15.20165184
7.983900417,27.88191925,-2.902464294,-4.2029599,28.34590962
7.993840417,56.5362323,-9.749525757,-4.28139679,57.53024573
8.003779417,78.6472023,-23.22660004,3.990850983,82.10227933
8.013719417,76.22868164,-30.22514648,9.694290619,82.57330474
8.023659417,43.62318512,-19.74888199,11.53082153,49.25404009
8.033599417,15.68064194,-11.65057251,2.851570129,19.74208255
8.043539417,9.228309631,-6.928192749,-3.959865417,12.20008555
8.053478417,4.606071625,-3.265908508,-6.755751343,8.804670942
8.063418417,2.211052094,-1.477427673,-5.597310333,6.196888482
8.073358417,0.3203338623,-0.6960525513,-2.963237915,3.060699573
8.083298417,-1.433269501,-0.0730480957,-1.461860046,2.048568349
8.093238417,-2.372566223,0.3791615295,-1.448837128,2.805701868
8.103177417,-2.594853973,0.6011499023,-1.559008026,3.086284882
8.113117417,-2.34951416,1.037492523,-1.292412415,2.87522823
8.123057417,-1.62876297,1.66034729,-1.122964783,2.582764379
8.132997417,-1.342857513,2.153571625,-1.033750305,2.740397186
8.142937417,-1.320254517,2.807711334,-0.9662406921,3.249605515
8.152876417,-1.862127686,3.911515961,-0.3481759644,4.346113566
8.162816417,-2.912792816,5.246290283,1.051114197,6.092024686
8.172756417,-2.48872467,5.871989136,1.207688599,6.490956682
8.182696417,-2.902314606,6.728657684,4.423301697,8.559431185
8.192636417,-3.27743454,6.592590637,2.912643127,7.917532347
8.202575417,-2.83630188,6.051765289,-1.950593719,6.962276016
8.212515417,-3.72201004,5.119803314,-2.421963501,6.777289422
8.222455417,-5.666017456,3.774401093,0.7484436035,6.849089374
8.232395417,-6.755152588,1.072519684,6.602170715,9.506368555
8.242335417,-3.916904755,-0.6659651184,6.665189667,7.759536435
8.252274417,-1.403780823,-0.3709286499,1.771116943,2.29020608
8.262214417,-0.2802172852,0.5469625854,-2.657124481,2.727269753
8.272154417,0.8240364075,0.436791687,-3.266806641,3.397329629
8.282094417,1.425036621,0.2323168945,-3.565585327,3.846829764
8.292034417,2.102827148,0.2107617188,-3.955225067,4.48442949
8.301973417,3.091670837,0.315693512,-4.412823486,5.397323604
8.311913417,5.946085052,1.119521942,-2.96727951,6.738991358
8.321853417,15.23546768,0.4800517273,1.451082458,15.31194192
8.331793417,29.98384827,-2.845283203,-4.892725525,30.51336685
8.341733417,67.52937195,-12.11191315,7.951015778,69.06615067
8.351672417,79.33921326,-25.79316284,12.81440231,84.40501713
8.361612417,71.58399033,-29.52325607,5.180876312,77.60626134
8.371552417,34.79484375,-19.73211685,0.8577163696,40.00966464
8.381492417,12.70258484,-12.72458908,-2.487527161,18.15099502
8.391432417,5.854774933,-8.423583069,-2.139351196,10.47912042
8.401371417,3.938759308,-4.743186493,-1.878294067,6.445124638
8.411311417,4.210594025,-2.693199463,-2.404599609,5.546577744
8.421251417,3.73368576,-1.356030121,-3.083737335,5.028783451
8.431191417,2.696492615,-0.4297563171,-3.350332947,4.322093679
8.441131417,1.128802643,0.1008901978,-3.20019516,3.394940839
8.451070417,-0.3288661194,0.6409671021,-2.491868134,2.593915678
8.461010417,-1.91661438,1.378184052,-1.273551636,2.682300455
8.470950417,-2.823129272,2.415377197,0.02125579834,3.71544852
8.480890417,-2.226769409,2.625989227,-0.6583309937,3.50538459
8.490830417,-1.622176666,2.730322266,-1.07057373,3.351454151
8.500769417,-1.665586395,3.26216629,-0.2368075562,3.670420244
8.510709417,-2.564317474,4.457730103,2.099983063,5.554908698
8.520649417,-3.755240936,5.503156128,3.964056702,7.752438803
8.530589417,-3.675756226,5.378016357,2.751877441,7.071567947
8.540529417,-3.101999359,4.552483063,1.023272095,5.603087349
8.550469417,-2.675386505,3.897744598,-0.09744735718,4.728594072
8.560408417,-2.6303302,3.147654419,-0.9168434143,4.203209149
8.570348417,-3.190764771,2.121987305,-0.1317260742,3.834209397
8.580288417,-3.73488327,0.5698649597,2.529889069,4.546915198
8.590228417,-2.559228058,-1.544039154,6.366860046,7.033534816
8.600168417,-0.3498225403,-1.827399902,4.644691315,5.003491143
8.610107417,0.449664917,0.1832189941,-2.662064209,2.705984773
8.620047417,1.115180969,0.288899231,-3.460054779,3.646789058
8.629987417,1.662891998,0.01137634277,-3.082689514,3.502615289
8.639927417,2.029928741,-0.001646575928,-3.110980682,3.714675519
8.649867417,2.917732544,0.0758921814,-2.838996277,4.071710044
8.659806417,8.705895996,-0.4162843323,2.189646606,8.986682925
8.669746417,14.88639359,-1.289867706,-1.775607605,15.04730059
8.679686417,27.43973877,-2.864742737,-4.876708832,28.01657195
8.689626417,51.41777618,-8.568930817,-5.903274078,52.46010797
8.699566417,76.425672,-17.35026993,-4.869224396,78.52149103
8.709505417,76.32448242,-19.84677841,3.03523819,78.9210612
8.719445417,43.58456543,-12.32312393,10.88476501,46.58274183
8.729385417,14.23240356,-8.415948944,15.51299057,22.67250282
8.739325417,8.548423462,-7.735164642,9.240434418,14.77477391
8.749265417,7.958200836,-6.851402435,2.534230042,10.80263846
8.759204417,6.084247742,-5.360951843,-0.7174580383,8.140799794
8.769144417,3.863166504,-3.619173889,-0.6843768311,5.337681774
8.779084417,1.289718018,-2.291135559,0.6128256226,2.699672195
8.789024417,-1.322050781,-1.278191986,1.249751129,2.223391757
8.798964417,-2.712509308,-0.3671864319,0.8437953186,2.864353882
8.808903417,-2.83749939,0.4875361633,0.2010319519,2.886088727
8.818843417,-1.71303772,0.7015910339,-1.284478912,2.253134325
8.828783417,-0.1390608215,0.734223175,-2.841840363,2.938448269
8.838723417,0.1278341675,1.398841095,-2.542313232,2.904557549
8.848663417,-0.4296066284,1.802850952,-2.025887146,2.745733443
8.858602417,-0.5649252319,2.161056061,-1.671723633,2.789975577
8.868542417,-0.4562512207,2.689756622,-1.073268127,2.931699223
8.878482417,-0.3345542908,3.246448975,-0.1670526123,3.267914334
8.888422417,-0.4285588074,3.776347046,0.2070195007,3.806220794
8.898362417,-0.5550457764,4.066743164,-0.3359014893,4.118167746
8.908301417,-0.6020480347,3.848946075,-0.986149292,4.018623913
8.918241417,-1.123713226,3.685336304,0.01137634277,3.852864455
8.928181417,-2.737357635,3.429368591,4.932842102,6.602016886
8.938121417,-3.792663116,1.409768372,11.63201111,12.31565763
8.948061417,-2.103874969,-1.414259033,9.593999176,9.923267541
8.957999792,1.021775208,-2.144440613,3.250939636,4.026320732
8.967939792,2.245031433,-0.5677693176,-2.073937225,3.108656261
8.977879792,2.10731781,0.1761836243,-3.298840027,3.91844032
8.987819792,3.428769836,-0.07499404907,-2.385289764,4.177522467
8.997759792,8.368347931,-1.260379028,-0.139360199,8.463877578
9.007698792,14.33733536,-2.026036835,-2.690056,14.72753923
9.017638792,25.02211624,-3.745511169,-4.956193542,25.7817573
9.027578792,45.94276154,-6.974147186,-3.029699707,46.56774793
9.037518792,69.07251297,-11.86522614,-0.08113128662,70.08425088
9.047458792,74.66428482,-14.89896744,8.067323914,76.56249979
9.057397792,40.76278336,-12.47116608,13.2140712,44.6289835
9.067337792,20.22429337,-10.16326538,3.019371185,22.83485511
9.077277792,15.58079956,-8.950187988,-2.321821747,18.11789271
9.087217792,11.80939224,-7.788154449,-2.415676575,14.35104833
9.097157792,7.8618013,-6.654561768,-0.6318360901,10.31941514
9.107096792,6.005212097,-4.951702881,-0.1112187195,7.784234282
9.117036792,5.500910797,-2.985541534,-0.4505630493,6.275068519
9.126976792,4.822970581,-1.541344757,-0.6985972595,5.111245153
9.136916792,3.590583344,-0.7132667542,-0.8381071472,3.755457602
9.146856792,2.605930939,-0.1260379028,-1.519190826,3.019056538
9.156795792,1.669178925,0.2920426941,-2.42555603,2.958845936
9.166735792,0.687071228,0.5760021973,-2.548600159,2.701704679
9.176675792,-0.1601669312,0.943787384,-1.930236053,2.154576361
9.186615792,-0.8036787415,1.301393738,-1.378483429,2.059063317
9.196555792,-1.009201355,1.513951721,-1.31052475,2.242322972
9.206495792,-0.8066725159,1.645079041,-1.388063507,2.29863566
9.216434792,-0.5342390442,1.792971497,-1.222956848,2.235124515
9.226374792,-0.3999682617,1.989063721,-0.8072712708,2.183583294
9.236314792,-0.5879772949,2.182012482,-0.1935475159,2.268117371
9.246254792,-0.8610095215,2.349963226,0.4797523499,2.54829882
9.256194792,-1.01683548,2.348166962,0.9047186279,2.714103585
9.266133792,-1.130000153,2.219883728,1.240620117,2.782790396
9.276073792,-1.639989624,1.884580994,2.227667542,3.34719497
9.286013792,-4.492906952,0.6685098267,7.587721252,8.843451366
9.295953792,-5.925577698,-1.159339142,10.35516632,11.98690985
9.305893792,-2.929258575,-2.011966095,6.903045044,7.764057847
9.315832792,0.457149353,-0.8699908447,0.6756948853,1.192658031
9.325772792,1.037492523,0.4664300537,-3.299438782,3.490020631
9.335712792,1.903441772,0.374072113,-3.508703613,4.00924202
9.345652792,3.168461151,0.3097059631,-4.030069427,5.135807964
9.355592792,5.968089294,0.06227050781,-4.076173553,7.227527812
9.365531792,11.0149942,-0.4945715332,-5.947432251,12.52783495
9.375471792,21.4301857,-1.714235229,-8.126151581,22.98316343
9.385411792,43.39715515,-5.694608002,-6.723418579,44.28256985
9.395351792,72.10026672,-13.70744522,-0.734223175,73.3953786
9.405291792,78.02165314,-18.64552643,13.08204575,81.27837311
9.415230792,48.27356461,-14.30545166,30.00929535,58.61348645
9.425170792,20.3007843,-10.07165588,6.209387512,23.49716129
9.435110792,11.43352386,-8.169710999,-4.123026123,14.64475982
9.445050792,7.249724121,-6.924450531,-5.062771912,11.23112525
9.454990792,4.693938904,-6.092779999,-0.665665741,7.719983253
9.464929792,4.143383789,-4.74004303,-0.1145118713,6.296725349
9.474869792,5.230722656,-2.921474762,-1.970801697,6.30710184
9.484809792,4.899461517,-1.718276825,-2.88195694,5.938255149
9.494749792,3.868555298,-0.9731263733,-2.947520599,4.959896442
9.504689792,2.729723511,-0.4070036316,-2.505938873,3.727837448
9.514628792,1.632505188,0.12753479,-2.021246796,2.601302927
9.524568792,0.45984375,0.6875202942,-1.410965881,1.635532069
9.534508792,-0.6182144165,1.179996185,-0.5610333252,1.445454411
9.544448792,-1.048270111,1.491498413,-0.04565505981,1.823601417
9.554388792,-0.9882449341,1.654958496,-0.02245330811,1.927698064
9.564327792,-0.937350769,1.568438416,0.2023791504,1.838364177
9.574267792,-1.191522217,1.575773163,0.9921368408,2.210683551
9.584207792,-1.945354614,1.560055847,2.468965759,3.509126778
9.594147792,-2.655178528,1.171613617,3.536994781,4.57525776
9.604087792,-2.848276978,0.5451663208,3.706891479,4.706477717
9.614026792,-2.921474762,-0.05224136353,3.305426331,4.411755566
9.623966792,-2.789748688,-0.5295986938,2.347717896,3.684420149
9.633906792,-2.516267395,-0.8255332947,1.289867706,2.945651969
9.643846792,-2.204765167,-0.9836045837,0.6339317322,2.496064274
9.653786792,-1.656605072,-1.21577179,0.664019165,2.159482082
9.663725792,-0.5249583435,-1.822460175,1.368154907,2.338544462
9.673665792,1.789229279,-2.112407227,1.395847321,3.100321829
9.683605792,3.185974731,-1.249002686,-1.073567505,3.586501064
9.693545792,3.247646484,-0.905766449,-2.522404633,4.210717953
9.703485792,4.163442078,-1.175056458,-2.852468262,5.18185129
9.713424792,6.661746826,-1.436562653,-3.842659149,7.823593316
9.723364792,13.63200211,-2.098486176,-5.73457489,14.93721777
9.733304792,28.96806061,-4.462071075,-7.870782623,30.34811086
9.743244792,51.08861069,-8.158035278,-5.555397491,52.03327899
9.753184792,74.89226074,-14.38748108,1.938319244,76.28635142
9.763124792,75.88754105,-17.65503616,19.70681946,80.36776668
9.773063792,41.81943604,-13.84336258,38.53840897,58.52958981
9.783003792,19.03845932,-11.05436234,4.911286926,22.55620977
9.792943792,10.55619827,-8.361013184,-6.137237549,14.79883604
9.802883792,5.771398315,-5.838009796,-7.881560211,11.3802631
9.812823792,2.475252686,-4.127965851,-3.115471344,5.733510235
9.822762792,3.026705933,-2.287243652,-1.830992432,4.212477372
9.832702792,4.050726471,-0.7559280396,-2.380948792,4.759068112
9.842642792,3.595373383,0.07619155884,-3.305576019,4.88460313
9.852582792,2.892285461,0.4364923096,-4.119283905,5.052161975
9.862522792,1.873953094,0.8803193665,-4.031117249,4.531729103
9.872461792,0.7726931763,1.499282227,-3.194806366,3.61271223
9.882401792,-0.06750961304,2.270179138,-1.667083282,2.817345832
9.892341792,-0.5351371765,2.991379395,-0.6179150391,3.101054897
9.902281792,-0.872535553,3.12295578,-0.8903485107,3.362572165
9.912221792,-0.9475296021,2.998115387,-1.203946381,3.366896955
9.922160792,-1.010398865,3.44822937,0.1008901978,3.594630786
9.932100792,-1.744472351,3.813918915,2.581831055,4.924937854
