Time (s),Acceleration x (m/s^2),Acceleration y (m/s^2),Acceleration z (m/s^2),Absolute acceleration (m/s^2)
29.82091562,10.52461395,-3.093766479,-2.086810455,11.16663189
29.83085563,10.39079224,-2.910697174,-2.008373566,10.97607788
29.84079462,10.68403244,-3.063529358,-2.146087189,11.31986977
29.85073363,11.04987167,-3.457061005,-2.32960556,11.81008031
29.86067363,11.3654155,-3.979774017,-2.602637787,12.32010528
29.87061263,11.59833115,-4.583768005,-2.930456085,12.81092453
29.88055263,11.72002808,-5.143603821,-3.236719208,13.20197219
29.89049163,11.81418228,-5.648503876,-3.562591553,13.57101903
29.90043163,11.90070236,-6.063291321,-3.842808838,13.89810772
29.91037063,11.89681046,-6.272705841,-3.935316467,14.01312432
29.92031063,11.77631104,-6.21193222,-3.859424286,13.86235043
29.93024963,11.49474655,-5.879323883,-3.532055054,13.38547946
29.94018863,11.15525253,-5.418582001,-3.0855336,12.7797186
29.95012863,10.78686859,-4.959037628,-2.656974792,12.1658581
29.96006763,10.51129166,-4.587659912,-2.304457855,11.6980512
29.97000763,10.05893234,-4.228257294,-1.847158813,11.06671927
29.97994663,9.950258331,-4.046984253,-1.607207794,10.86134611
29.98988663,9.633816376,-4.063899078,-1.48012207,10.56013518
29.99982563,9.258546753,-4.130660248,-1.347797241,10.22739456
30.00976562,8.931177521,-4.3409729,-1.40527771,10.02919653
30.01970463,8.51818634,-4.528532867,-1.503473511,9.763582389
30.02964363,8.125403137,-4.787045288,-1.743723907,9.590544917
30.03958363,7.62783783,-5.125192108,-2.06046524,9.417909593
30.04952263,7.002438354,-5.414989471,-2.31673233,9.150054785
30.05946263,6.442003784,-5.599256287,-2.487826538,8.890464814
30.06940163,5.973777466,-5.73696991,-2.592758331,8.678780831
30.07934163,5.572911072,-5.823190613,-2.601889343,8.469752941
30.08928063,5.268444214,-5.843997345,-2.488574982,8.252382374
30.09921963,5.033582611,-5.825585632,-2.321672058,8.041427921
30.10915963,4.774471436,-5.716312866,-2.081122284,7.733232198
30.11909863,4.60547287,-5.599256287,-1.809437256,7.47235669
30.12903863,4.457580414,-5.411846008,-1.508413239,7.171709061
30.13897762,4.370760956,-5.202281799,-1.291663971,6.916334511
30.14891763,4.308789825,-5.081333313,-1.124611359,6.756505658
30.15885662,4.396657104,-5.052144012,-1.039139099,6.777504178
30.16879563,4.50248703,-5.164111176,-1.081351318,6.936119546
30.17873562,4.676724701,-5.397775269,-1.20514389,7.242934735
30.18867463,4.973108368,-5.71122345,-1.35962265,7.69405315
30.19861462,5.257966003,-6.1113414,-1.515448608,8.203126519
30.20855363,5.514831848,-6.544390869,-1.686991882,8.722864425
30.21849362,5.83052536,-6.906338196,-1.876946869,9.231222173
30.22843263,6.151907043,-7.166646881,-2.023791504,9.659322949
30.23837262,6.418502655,-7.250322876,-2.070644073,9.902117199
30.24831163,6.680607605,-7.04629715,-2.01840271,9.91739739
30.25825063,6.976392517,-6.691235504,-1.953288116,9.861948063
30.26819063,7.354206848,-6.49394577,-2.038161621,10.02046869
30.27812963,7.89218811,-6.606811066,-2.284698944,10.54307521
30.28806963,8.41056015,-6.921157379,-2.549797668,11.18666213
30.29800863,8.674012299,-7.22757019,-2.649939423,11.59734621
30.30794863,8.619226227,-7.376061401,-2.546354828,11.62674785
30.31788763,8.409212952,-7.26035202,-2.279160461,11.34117041
30.32782662,8.256231079,-6.840774536,-1.961970062,10.90004011
30.33776663,8.16013092,-6.112089844,-1.684596863,10.3335979
30.34770562,8.190667419,-5.307962036,-1.555864563,9.883430998
30.35764563,8.47372879,-4.630470886,-1.697170715,9.804372936
30.36758462,9.034462738,-4.120930481,-2.10851532,10.15132611
30.37752463,9.678273926,-3.775299225,-2.672243042,10.72673078
30.38746362,10.20398071,-3.663182373,-3.202590179,11.30472075
30.39740263,10.75109299,-3.83442627,-3.660338287,11.98694713
30.40734262,11.27709915,-4.313879242,-4.136498108,12.76295953
30.41728163,11.61060562,-4.794080658,-4.572092285,13.36762507
30.42722162,11.59818146,-4.986730042,-4.731061707,13.48214503
30.43716063,11.41226807,-4.773273926,-4.674928436,13.22418097
30.44710062,11.0256221,-4.358187103,-4.560566254,12.70263367
30.45703963,10.58269318,-3.872746582,-4.420158234,12.10493122
30.46697962,10.25023453,-3.373983765,-4.275708618,11.6074441
30.47691863,9.849517822,-2.876418457,-4.024830322,11.02207075
30.48685763,9.473499756,-2.372416534,-3.609893188,10.41186279
30.49679763,9.142987061,-1.956281891,-3.097808075,9.849754621
30.50673663,8.841513977,-1.708846436,-2.718047791,9.406397256
30.51667663,8.544082489,-1.565744019,-2.392025757,9.009699614
30.52661563,8.044122162,-1.446891174,-1.968855743,8.407008289
30.53655563,7.577991486,-1.397643585,-1.678010559,7.886385863
30.54649463,7.207362213,-1.460063782,-1.582209778,7.522050525
30.55643362,6.934779053,-1.642983398,-1.640738068,7.313178267
30.56637363,6.697372742,-1.885628815,-1.856140137,7.201086993
30.57631262,6.502927094,-2.086361389,-2.122286682,7.151577825
30.58625263,6.365063782,-2.267335052,-2.346221008,7.15259381
30.59619162,6.30788269,-2.449506226,-2.505789185,7.215846743
30.60613163,6.290668488,-2.606679382,-2.65143631,7.307352594
30.61607062,6.347250824,-2.741698608,-2.780917053,7.452382434
30.62600963,6.449787598,-2.897823944,-2.87611908,7.633426794
30.63594962,6.597979431,-3.032543793,-2.975362701,7.847447842
30.64588863,6.766229553,-3.141517181,-3.036136322,8.054136598
30.65582863,7.008276215,-3.232378235,-3.007545776,8.283087356
30.66576763,7.310348053,-3.265908508,-2.966980133,8.538753899
30.67570763,7.620652771,-3.215762787,-2.877017212,8.757437239
30.68564663,7.864795074,-3.034190369,-2.77777359,8.875659912
30.69558563,8.089777222,-2.84094223,-2.730322266,8.998339176
30.70552563,8.510402527,-2.781366119,-2.745740204,9.364936622
30.71546463,9.123078461,-2.798730011,-2.845133514,9.957822804
30.72540463,9.839638367,-2.83390686,-3.004851379,10.67139368
30.73534363,10.60724213,-2.93225235,-3.247496796,11.47422872
30.74528363,11.36227203,-3.074306946,-3.478017426,12.27392334
30.75522263,12.11924789,-3.17325119,-3.719914398,13.06841443
30.76516162,12.85900955,-3.266956329,-4.070635071,13.87793934
30.77510163,13.52033432,-3.185525665,-4.369862823,14.56168654
30.78504063,13.97957932,-2.89363266,-4.689448242,15.02639919
30.79498063,14.4124791,-2.553839264,-4.977149963,15.46006696
30.80491963,14.89896744,-2.367776184,-5.25721756,15.97572944
30.81485963,15.49457886,-2.495460663,-5.508245544,16.63280093
30.82479863,16.05157059,-2.96263916,-5.606291656,17.25864002
30.83473863,16.30439484,-3.440445557,-5.448669434,17.53162728
30.84467763,15.94978226,-3.658092957,-5.031187592,17.11987286
30.85461663,14.98054779,-3.619173889,-4.435426483,16.03708951
30.86455663,13.73947861,-3.428470459,-3.800746307,14.66196967
30.87449563,12.63776962,-3.151995392,-3.237467651,13.42123291
30.88443563,11.7091008,-2.833607483,-2.82462616,12.37379836
30.89437463,10.96469879,-2.524500275,-2.567011871,11.54067897
30.90431463,10.51653076,-2.418071594,-2.449805603,11.06553374
30.91425363,10.36549484,-2.66191452,-2.486179962,10.9868268
30.92419263,10.423125,-3.159330139,-2.55084549,11.18613939
30.93413262,10.56068893,-3.855532379,-2.652334442,11.55111071
30.94407163,10.60155396,-4.657714233,-2.825673981,11.9193826
30.95401162,10.35741165,-5.339396667,-2.913241882,12.01133261
30.96395063,10.00010468,-5.791606293,-2.980901184,11.93442788
30.97389062,9.650132446,-5.959107971,-3.00125885,11.73216002
30.98382963,9.306297455,-5.84923645,-2.985242157,11.39001361
30.99376863,9.117989044,-5.499264221,-2.971919861,11.05495087
31.00370863,9.170829163,-5.03717514,-2.949466553,10.87090584
31.01364763,9.302854614,-4.567152557,-2.813100128,10.73850636
31.02358763,9.278455353,-4.135150909,-2.603835297,10.48661838
31.03352663,9.216184845,-3.789519653,-2.526146851,10.28007491
31.04346663,9.054221649,-3.50211731,-2.396067352,9.999244675
31.05340563,8.920848999,-3.269950104,-2.289339294,9.773187553
31.06334462,8.804391174,-3.196452942,-2.286944275,9.641821896
31.07328463,8.687633972,-3.143612823,-2.194137268,9.495868784
31.08322362,8.49947525,-3.152444458,-2.104024658,9.306229384
31.09316363,8.297395477,-3.235821075,-2.064357147,9.142148553
31.10310262,8.226293335,-3.332519989,-2.039059753,9.106885098
31.11304263,8.213120728,-3.467838593,-1.99969162,9.136740292
31.12298162,8.201445007,-3.634142761,-1.99145874,9.188939097
31.13292063,8.124355316,-3.824846191,-1.9972966,9.199119056
31.14286062,7.986342316,-4.021836548,-2.010918274,9.165185492
31.15279963,7.801626434,-4.217479706,-2.030826874,9.098173876
31.16273962,7.578889618,-4.388723602,-2.038460999,8.991984538
31.17267863,7.458539886,-4.562661896,-2.051633606,8.980918732
31.18261862,7.193291473,-4.694537659,-2.005679169,8.82070717
31.19255763,7.000193024,-4.727918243,-1.930984497,8.665137876
31.20249663,6.768175507,-4.781506805,-1.884880371,8.498457568
31.21243663,6.651418304,-4.838089142,-1.8592836,8.432402238
31.22237563,6.368506622,-4.853207703,-1.746567993,8.195242605
31.23231563,6.146069183,-4.851860504,-1.656754761,8.003721203
31.24225463,6.002068634,-4.95185257,-1.603764954,7.944667003
31.25219463,5.873036957,-5.161716156,-1.594933319,7.979955455
31.26213363,5.838159485,-5.471422119,-1.702858887,8.180482539
31.27207363,5.869893494,-5.907016296,-1.870061188,8.534964558
31.28201263,5.885161743,-6.444099426,-2.042652283,8.962922208
31.29195162,5.890400848,-6.929539948,-2.143991547,9.344091491
31.30189163,5.847739563,-7.225773926,-2.136507111,9.537952058
31.31183062,5.761219482,-7.301516418,-2.020348663,9.517646802
31.32177063,5.731880493,-7.187603302,-1.844464417,9.376467576
31.33170962,5.827531586,-6.954388275,-1.675166473,9.226582432
31.34164863,6.238576813,-6.627168732,-1.705553284,9.260027972
31.35158862,6.932533722,-6.497837677,-2.043700104,9.718982889
31.36152763,7.572153625,-6.753955078,-2.591860199,10.47239987
31.37146762,7.983797607,-7.212002563,-3.152893524,11.21136668
31.38140663,8.113877106,-7.64654892,-3.538641357,11.69729433
31.39134662,8.055947571,-7.793543243,-3.671115875,11.79468945
31.40128588,8.101752319,-7.563771057,-3.651207275,11.66963315
31.41122488,8.196954346,-6.949448547,-3.470233612,11.29280377
31.42116488,8.217162323,-5.993835754,-3.185974731,10.65824839
31.43110388,8.331374817,-4.952151947,-2.987038422,10.14189399
31.44104388,8.758885803,-3.999083862,-2.996319122,10.08408055
31.45098288,9.275162201,-3.309467926,-3.199895782,10.35473538
31.46092288,9.782157898,-2.994971924,-3.423830109,10.78809912
31.47086188,10.25517426,-3.023861847,-3.612587585,11.28552739
31.48080188,10.53134995,-3.272794189,-3.741768951,11.64565792
31.49074088,10.65544189,-3.63189743,-3.851041718,11.89788398
31.50067987,10.53913376,-4.091142426,-3.920497284,11.96582992
31.51061988,10.29364426,-4.505630493,-3.996838531,11.92621216
31.52055887,10.08003845,-4.69438797,-3.952979736,11.8012924
31.53049888,9.908944244,-4.67567688,-3.90927063,11.63320795
31.54043787,9.621242523,-4.337380371,-3.610491943,11.15422916
31.55037688,9.439520416,-3.689377899,-3.329376526,10.66774592
31.56031687,9.239685974,-2.999462585,-3.087778931,10.19327972
31.57025588,9.042545929,-2.407892761,-2.828368378,9.775748161
31.58019587,8.740025024,-1.891915741,-2.596500549,9.311777365
31.59013488,8.359815674,-1.531914368,-2.451452179,8.845501541
31.60007487,7.983348541,-1.348246307,-2.402953033,8.445460634
31.61001388,7.645501099,-1.333576813,-2.377805328,8.117023614
31.61995387,7.38324646,-1.442999268,-2.366279297,7.886307938
31.62989288,7.175478516,-1.655108185,-2.368075562,7.735286478
31.63983188,6.98312851,-1.925446014,-2.414628754,7.635565346
31.64977188,6.807393951,-2.189646606,-2.509681091,7.578500106
31.65971088,6.658154297,-2.417323151,-2.68646347,7.575721473
31.66965088,6.503226471,-2.637066193,-2.888243866,7.588677439
31.67958988,6.43541748,-2.882855072,-3.058439941,7.686319431
31.68952887,6.474935303,-3.102298737,-3.144211578,7.838055312
31.69946888,6.621181183,-3.265609131,-3.11592041,8.013314124
31.70940787,6.846313019,-3.376079407,-2.910098419,8.16936882
31.71934788,7.125482483,-3.456013184,-2.612517242,8.339171067
31.72928687,7.423512726,-3.519032135,-2.333347778,8.540295089
31.73922688,7.655979309,-3.54537735,-2.120789795,8.699509704
31.74916587,7.852670288,-3.496878204,-2.027234344,8.831889204
31.75910488,8.010741577,-3.4212854,-1.990710297,8.935328863
31.76904488,8.179590454,-3.344495087,-1.980381775,9.056117234
31.77898388,8.488098907,-3.299139404,-2.081421661,9.34154484
31.78892388,8.904532928,-3.341201935,-2.23021225,9.768735011
31.79886288,9.391470337,-3.457210693,-2.401456146,10.29169629
31.80880288,9.975406036,-3.631448364,-2.575544128,10.9238075
31.81874188,10.57475967,-3.838018799,-2.787653046,11.58994996
31.82868188,11.11693222,-4.03680542,-3.011737061,12.20461143
31.83862088,11.6201857,-4.154610443,-3.222648468,12.7544097
31.84855988,12.11146408,-4.116140442,-3.343297577,13.22149057
31.85849988,12.58777359,-3.968547363,-3.408561859,13.6315702
31.86843888,13.06557999,-3.776945801,-3.494782562,14.04237178
31.87837888,13.62691269,-3.629801788,-3.677402802,14.57365781
31.88831788,14.30455353,-3.72440506,-3.896247711,15.28634001
31.89825788,14.88534576,-4.028722229,-4.010011139,15.93374754
31.90819688,15.28097305,-4.359234924,-3.895499268,16.36111185
31.91813588,15.37482788,-4.600682831,-3.746409302,16.47990284
31.92807588,14.95629822,-4.559368744,-3.369193726,15.99469181
31.93801488,14.21683594,-4.354744263,-3.001109161,15.16868082
31.94795488,13.33921097,-4.009262695,-2.67718277,14.18365412
31.95789388,12.48523682,-3.517535248,-2.37990097,13.18780199
31.96783288,11.71987839,-2.982996826,-2.232457581,12.29787324
31.97777288,11.1477681,-2.611020355,-2.291434937,11.67650782
31.98771188,10.81216599,-2.519710236,-2.444716187,11.36787184
31.99765188,10.69945038,-2.757266235,-2.717598724,11.37831702
32.00759088,10.71397018,-3.175197144,-2.983296204,11.56594528
32.01753088,10.66756668,-3.659739532,-3.145259399,11.70825901
32.02746987,10.46219376,-4.133504333,-3.251089325,11.70952339
32.03740988,10.1803299,-4.555327148,-3.329376526,11.63936726
32.04734887,9.82751358,-4.811594238,-3.369493103,11.44923343
32.05728788,9.521998901,-4.908293152,-3.451372833,11.2548558
32.06722787,9.346414032,-4.89452179,-3.525768127,11.12397589
32.07716688,9.294172668,-4.760700073,-3.461252289,11.00118985
32.08710687,9.42739563,-4.373904419,-3.067121887,10.83577708
32.09704588,9.683513031,-3.88816452,-2.715054016,10.78238222
32.10698488,9.883347473,-3.560495911,-2.542163544,10.80834325
32.11692488,9.738299103,-3.187621307,-2.333048401,10.50897302
32.12686388,9.573940887,-2.829116821,-2.077230377,10.19701585
32.13680388,9.454638977,-2.650089111,-2.023192749,10.02529198
32.14674288,9.378896484,-2.559377747,-1.921105042,9.909831396
32.15668288,9.243577881,-2.614463196,-1.889969788,9.790359321
32.16662188,9.028026123,-2.781964874,-1.867965546,9.629843172
32.17656087,8.752449188,-3.064128113,-1.940265198,9.474116155
32.18650088,8.447832642,-3.367098083,-2.029479675,9.317833096
32.19643987,8.178243256,-3.641477509,-2.207309875,9.220425049
32.20637988,7.948920135,-3.927382965,-2.339934082,9.169785155
32.21631887,7.769742737,-4.170776825,-2.371368713,9.131685009
32.22625888,7.597600708,-4.415966949,-2.370021515,9.10171976
32.23619787,7.415279846,-4.650978241,-2.320923615,9.055642452
32.24613688,7.259004822,-4.857997742,-2.208956451,9.009593868
32.25607687,7.050338745,-5.035678253,-2.081271973,8.910500823
32.26601588,6.836134186,-5.201233978,-1.976040802,8.814210274
32.27595587,6.594087524,-5.276976471,-1.84177002,8.644107112
32.28589488,6.42374176,-5.327271881,-1.727707214,8.522279983
32.29583487,6.295608215,-5.32622406,-1.569785614,8.394496555
32.30577388,6.217021637,-5.354964294,-1.491947479,8.339838602
32.31571288,6.286626892,-5.532794495,-1.491199036,8.506301615
32.32565288,6.419550476,-5.89025116,-1.576820984,8.853928589
32.33559188,6.526577911,-6.300697632,-1.667232971,9.223593425
32.34553188,6.594835968,-6.626569977,-1.71648056,9.505240482
32.35547088,6.670279083,-6.833739166,-1.754501495,9.709319726
32.36541088,6.813980255,-6.979386292,-1.814526672,9.921424644
32.37534988,6.977739716,-7.096442871,-1.90718399,10.13339547
32.38528887,7.130871277,-7.113956451,-1.980232086,10.26542842
32.39522888,7.25451416,-6.930587769,-2.015558624,10.23345001
32.40516783,7.458689575,-6.629264374,-2.070195007,10.19141323
32.41510783,7.870632935,-6.570885773,-2.315235443,10.51112353
32.42504683,8.339607697,-6.926246796,-2.71580246,11.17575654
32.43498683,8.540789337,-7.530540161,-3.076851654,11.79496222
32.44492583,8.475375366,-8.025111694,-3.212769012,12.10604353
32.45486483,8.288114777,-8.162076874,-3.027604065,12.01993061
32.46480483,8.058641968,-7.943531342,-2.666704559,11.62551993
32.47474383,7.966882782,-7.382947083,-2.179617462,11.07835101
32.48468383,7.975115662,-6.49634079,-1.658251648,10.41895926
32.49462283,8.070617065,-5.638923798,-1.335822144,9.935629935
32.50456183,8.325237579,-5.060376892,-1.323547668,9.832027943
32.51450183,8.731043701,-4.781656494,-1.557960205,10.07584254
32.52444083,9.194030914,-4.647834778,-1.805844727,10.45914183
32.53438083,9.540111237,-4.620441742,-2.082918549,10.80281232
32.54431983,9.661957855,-4.705614624,-2.491568756,11.03196054
32.55425983,9.613608398,-4.78210556,-2.885848846,11.11836875
32.56419883,9.384734344,-4.753964081,-3.212319946,10.99965511
32.57413783,9.206904144,-4.689597931,-3.571722565,10.93236547
32.58407783,8.919651489,-4.549489288,-3.941603394,10.76077473
32.59401683,8.483907623,-4.239933014,-4.161645813,10.35726877
32.60395683,7.974816284,-3.778891754,-4.308939514,9.820625102
32.61389583,7.567962341,-3.19315979,-4.313729553,9.277854607
32.62383583,7.320676575,-2.667153625,-4.200864258,8.851738501
32.63377483,7.131919098,-2.226020966,-3.892505493,8.424431041
32.64371383,6.913373566,-1.854194183,-3.493585052,7.964791689
32.65365383,6.688840485,-1.625769196,-3.028801575,7.520462186
32.66359283,6.486611023,-1.634301453,-2.608924713,7.18008022
32.67353283,6.247857513,-1.805545349,-2.357297974,6.917555294
32.68347183,5.982309723,-2.027833099,-2.177671509,6.681496082
32.69341183,5.75687851,-2.308200073,-2.085163879,6.543496478
32.70335083,5.544320526,-2.58826767,-2.104324036,6.470455878
32.71328983,5.400469666,-2.84094223,-2.167193298,6.475550336
32.72322983,5.398074646,-3.075354767,-2.272125092,6.615101606
32.73316883,5.503006439,-3.295696564,-2.411485291,6.852733543
32.74310883,5.678291931,-3.435505829,-2.499502258,7.09177066
32.75304783,5.938750305,-3.457360382,-2.530637512,7.322992709
32.76298783,6.237828369,-3.394640808,-2.571053467,7.55277465
32.77292683,6.59348877,-3.295247498,-2.578687592,7.809121584
32.78286583,6.999743958,-3.210373993,-2.532134399,8.10645553
32.79280583,7.46512619,-3.16037796,-2.386187897,8.450443217
32.80274483,7.941136322,-3.187022552,-2.286944275,8.857136837
32.81268483,8.509953461,-3.202739868,-2.194736023,9.353807608
32.82262383,9.146429901,-3.188070374,-2.028282166,9.896206404
32.83256383,9.758806458,-3.179538116,-1.936972046,10.4448852
32.84250283,10.33675461,-3.157384186,-1.933529205,10.97980446
32.85244183,10.92069031,-3.139122162,-2.073039093,11.55045695
32.86238183,11.51525391,-3.200644226,-2.332599335,12.17728277
32.87232083,12.05518112,-3.342698822,-2.568508759,12.77099309
32.88226083,12.53702911,-3.591631165,-2.762355652,13.33069849
32.89219983,13.02621185,-3.829486542,-2.909499664,13.8856887
32.90213983,13.42977264,-3.912264404,-2.956352234,14.29701453
32.91207883,13.74187363,-3.785478058,-2.956052856,14.55703209
32.92201783,13.96236511,-3.438349915,-2.923869781,14.67374881
32.93195783,14.10861099,-2.965483246,-2.867736511,14.69935059
32.94189683,14.33703598,-2.596500549,-2.922672272,14.86049895
32.95183683,14.79433502,-2.536924438,-3.202739868,15.34815549
32.96177583,15.36270309,-2.900967407,-3.507356415,16.02279025
32.97171483,15.63543594,-3.525019684,-3.787873077,16.46938382
32.98165483,15.35027893,-4.06599472,-3.860023041,16.34206701
32.99159383,14.58791428,-4.33753006,-3.861070862,15.70125085
33.00153383,13.55685837,-4.261937256,-3.744762726,14.69611397
33.01147283,12.50364853,-3.928430786,-3.494932251,13.5642304
33.02141283,11.71493866,-3.532204742,-3.227737885,12.65442808
33.03135183,11.26692032,-3.296744385,-3.07969574,12.13657871
33.04129083,11.1052565,-3.132086792,-2.999612274,11.92201172
33.05123083,11.09268265,-3.1054422,-3.006647644,11.90509595
33.06116983,11.19117783,-3.324287109,-3.059936829,12.06882593
33.07110983,11.36945709,-3.784579926,-3.224594421,12.4090938
33.08104883,11.4396611,-4.32465683,-3.43775116,12.70380399
33.09098883,11.45418091,-4.841531982,-3.636238403,12.95611523
33.10092783,11.44415176,-5.300776978,-3.863016815,13.19051724
33.11086683,11.42738663,-5.614225159,-3.98291748,13.34047679
33.12080683,11.32215546,-5.690716095,-3.976630554,13.28115373
33.13074583,11.13983459,-5.558540955,-3.882176971,13.0408815
33.14068583,11.07906097,-5.173990631,-3.608396301,12.74897231
33.15062483,11.07696533,-4.616549835,-3.187621307,12.41662687
33.16056383,10.97637451,-4.040098572,-2.700833588,12.00406997
33.17050383,10.72355026,-3.51139801,-2.254910889,11.50691398
33.18044283,10.47671356,-3.081342316,-1.859433289,11.07762112
33.19038283,10.26699966,-2.795586548,-1.633553009,10.7654578
33.20032183,10.03573059,-2.679278412,-1.55975647,10.50367848
33.21026183,9.680668945,-2.76370285,-1.608704681,10.19516235
33.22020083,9.234746246,-3.06098465,-1.76677597,9.88795543
33.23013983,8.815917206,-3.423830109,-2.00552948,9.667737961
33.24007983,8.415649567,-3.778143311,-2.235750732,9.491896852
33.25001883,8.051157532,-4.137695618,-2.433339844,9.373516172
33.25995883,7.753127289,-4.505929871,-2.647095337,9.349946549
33.26989783,7.455695801,-4.807552643,-2.840792542,9.315045064
33.27983783,7.206015015,-5.04660553,-2.942281494,9.276416342
33.28977683,6.967261505,-5.240452423,-2.991978149,9.217212579
33.29971583,6.745871887,-5.378315735,-2.950813751,9.1181341
33.30965583,6.555767212,-5.438789978,-2.80232254,8.967247726
33.31959483,6.427483978,-5.418582001,-2.622247009,8.806234188
33.32953483,6.340065765,-5.33789978,-2.395318909,8.627117749
33.33947383,6.240822144,-5.231620789,-2.161505127,8.42554577
33.34941383,6.118077393,-5.152285767,-1.951491852,8.233179219
33.35935283,5.967939606,-5.188959503,-1.823807373,8.115902735
33.36929183,5.840554504,-5.240452423,-1.749412079,8.039580906
33.37923183,5.796396332,-5.303471375,-1.671124878,8.032289674
33.38917083,5.688321075,-5.362299042,-1.53401001,7.966456827
33.39911058,5.642067261,-5.495522003,-1.525477753,8.022516278
33.40904958,5.751190338,-5.762267303,-1.576371918,8.292458212
33.41898858,5.871390381,-6.198011169,-1.63115799,8.691906802
33.42892858,5.901627502,-6.614295502,-1.662891998,9.019053274
33.43886758,5.9335112,-6.92340271,-1.654359741,9.266982594
33.44880758,5.944139099,-7.103029175,-1.549727325,9.390818275
33.45874658,5.948629761,-7.123087463,-1.36665802,9.380422442
33.46868658,5.947881317,-6.900200958,-1.10335556,9.176462222
33.47862558,6.053561554,-6.524482269,-0.8919950867,8.944838266
33.48856458,6.371949463,-6.189478912,-0.9366023254,8.932447206
33.49850458,6.796915741,-6.153553619,-1.312171326,9.262077484
33.50844358,7.148235168,-6.438860321,-1.966610413,9.819559296
33.51838358,7.229516144,-6.865922241,-2.606230316,10.30530098
33.52832258,7.14105011,-7.129673767,-3.044219513,10.54011941
33.53826258,7.14224762,-7.125033417,-3.216960297,10.58898653
33.54820158,7.245682526,-6.791077881,-3.215164032,10.43819591
33.55814058,7.435637512,-6.217470703,-3.201542358,10.20762071
33.56808058,7.726482697,-5.536237335,-3.035687256,9.978168961
33.57801958,8.177794189,-4.78450058,-2.716700592,9.85637995
33.58795958,8.745413818,-4.177512817,-2.420167236,9.989548821
33.59789858,9.317823486,-3.915407867,-2.298769684,10.36516258
33.60783858,9.837542725,-3.913012848,-2.292782135,10.83262509
33.61777758,10.33181488,-4.080813904,-2.279609528,11.3400203
33.62771658,10.69451065,-4.385580139,-2.265389099,11.77870362
33.63765658,10.83042801,-4.812642059,-2.333796844,12.07916811
33.64759558,10.62625259,-5.250780945,-2.51102829,12.11582468
33.65753558,10.21700363,-5.566324768,-2.783012695,11.96312226
33.66747458,9.801916809,-5.633535004,-3.007695465,11.69874018
33.67741358,9.697883148,-5.630391541,-3.303630066,11.69034722
33.68735358,9.46481781,-5.481750641,-3.484903107,11.4794127
33.69729258,9.284442902,-4.999303894,-3.503763885,11.11171817
33.70723258,9.101523285,-4.396806793,-3.473526764,10.6880786
33.71717158,8.888665924,-3.791166229,-3.328478394,10.22057199
33.72711158,8.621920624,-3.205134888,-3.173700256,9.730507603
33.73705058,8.298892365,-2.694995728,-3.061733093,9.247098247
33.74698958,7.93784317,-2.344424744,-2.985990601,8.798967067
33.75692958,7.661068726,-2.185605011,-2.928959198,8.488088434
33.76686858,7.420818329,-2.197580109,-2.842888184,8.244993404
33.77680858,7.25451416,-2.265538788,-2.819536743,8.106196959
33.78674758,7.129224701,-2.357148285,-2.815794525,8.01939472
33.79668758,7.061715088,-2.443518677,-2.851570129,7.998128263
33.80662658,7.063511353,-2.549049225,-2.950813751,8.068342232
33.81656558,7.109016724,-2.597248993,-3.106939087,8.181496904
33.82650558,7.188052368,-2.594255219,-3.274291077,8.313798112
33.83644458,7.305558014,-2.603535919,-3.413800964,8.473701328
33.84638458,7.50254837,-2.635419617,-3.517684937,8.695273194
33.85632358,7.741750946,-2.653681641,-3.599564667,8.940559253
33.86626258,8.029003601,-2.677631836,-3.632496185,9.210300734
33.87620258,8.335117035,-2.650687866,-3.61438385,9.463830766
33.88614158,8.659492493,-2.575544128,-3.514840851,9.694036517
33.89608158,8.996890869,-2.471360779,-3.417543182,9.936361045
33.90602058,9.345216522,-2.367476807,-3.328328705,10.19881318
33.91596058,9.665999451,-2.276915131,-3.276835785,10.45722433
33.92589958,10.03872437,-2.192490692,-3.258873138,10.77976143
33.93583858,10.45381119,-2.197580109,-3.301684113,11.18090536
33.94577858,10.97068634,-2.357896729,-3.42832077,11.73324418
33.95571758,11.58186539,-2.685864716,-3.608246613,12.42468988
33.96565758,12.21894058,-3.059487762,-3.812571716,13.16049685
33.97559658,12.76380753,-3.325933685,-3.931424561,13.76345583
33.98553658,13.18069061,-3.395389252,-3.97124176,14.17850607
33.99547558,13.44593903,-3.255729675,-3.964954834,14.39145298
34.00541458,13.69352417,-3.004102936,-3.873045959,14.54433648
34.01535458,13.94245651,-2.764750671,-3.875141602,14.73270723
34.02529358,14.16998337,-2.529440002,-3.897894287,14.91241346
34.03523358,14.48343155,-2.517913971,-4.027075653,15.24227734
34.04517258,14.84912109,-2.929707642,-4.128265228,15.68828091
34.05511158,15.00973709,-3.614084473,-4.127965851,15.98104866
34.06505158,14.43044174,-4.120032349,-3.820205841,15.4856801
34.07499058,13.4448912,-4.181105347,-3.371289368,14.4779948
34.08493058,12.4761058,-4.079766083,-2.928360443,13.44890338
34.09486958,11.88004532,-4.169579315,-2.639461212,12.86419931
34.10480958,11.52363647,-4.371659088,-2.387235718,12.55406289
34.11474858,11.11738129,-4.491410065,-2.046244812,12.16371855
34.12468758,10.69630692,-4.453987885,-1.791474609,11.7242642
34.13462758,10.48105453,-4.446952515,-1.744172974,11.5182477
34.14456658,10.51937485,-4.685256958,-1.918260956,11.67427107
34.15450658,10.68567902,-5.157674561,-2.165546722,12.06129908
34.16444558,10.77249847,-5.667364655,-2.335293732,12.39432702
34.17438558,10.75498489,-6.080505524,-2.447111206,12.59486406
34.18432458,10.71067703,-6.395300903,-2.565664673,12.73582001
34.19426358,10.68897217,-6.561006317,-2.681673431,12.82545525
34.20420358,10.55245605,-6.448440399,-2.791694641,12.67794429
34.21414258,10.38390656,-6.015540619,-2.914589081,12.34937544
34.22408258,10.39318726,-5.45959671,-3.068618774,12.13432976
34.23402158,10.52626053,-5.059778137,-3.227438507,12.11692514
34.24396058,10.65035248,-4.84766922,-3.336112518,12.16797237
34.25390058,10.68373306,-4.721930695,-3.360960846,12.15462214
34.26383958,10.57999878,-4.61370575,-3.323838043,12.0112678
34.27377958,10.36519547,-4.516707458,-3.230731659,11.75906248
34.28371858,10.11476624,-4.478836212,-3.098257141,11.4877181
34.29365858,9.851912842,-4.473148041,-2.935844879,11.21108492
34.30359758,9.549541626,-4.44276123,-2.78016861,10.89317264
34.31353658,9.240883484,-4.441114655,-2.563718719,10.56835279
34.32347658,8.98626297,-4.450694733,-2.31792984,10.29244405
34.33341558,8.799601135,-4.545447693,-2.141596527,10.13313922
34.34335558,8.502319336,-4.647685089,-2.026036835,9.899254317
34.35329458,8.241411896,-4.783003693,-1.983076172,9.732963858
34.36323458,8.040080566,-4.992567902,-1.954335938,9.663749724
34.37317358,7.83725235,-5.220543823,-1.972298584,9.621151901
34.38311258,7.479645996,-5.427563324,-2.047442322,9.465493538
34.39305258,7.112459564,-5.58249115,-2.103126526,9.283018349
34.40299163,6.612948303,-5.69835022,-2.061513062,8.969510387
34.41293163,6.189179535,-5.751789093,-2.016905823,8.686594856
34.42287063,5.854625244,-5.786965942,-2.027683411,8.478037012
34.43280962,5.419929199,-5.73921524,-1.937421112,8.128211652
34.44274963,5.08522522,-5.664969635,-1.895657959,7.845056762
34.45268862,4.772675171,-5.58593399,-1.829345856,7.571498735
34.46262863,4.493805084,-5.487588501,-1.744172974,7.304111928
34.47256762,4.209546204,-5.381010132,-1.634151764,7.024670901
34.48250763,4.044888611,-5.286107483,-1.547631683,6.833682757
34.49244662,3.965104523,-5.262007599,-1.478325806,6.752497689
34.50238563,4.034709778,-5.34373764,-1.474882965,6.856361624
34.51232562,4.147126007,-5.494025116,-1.501527557,7.045392189
34.52226463,4.317172394,-5.685626678,-1.530267792,7.301099076
34.53220463,4.476590881,-5.883515167,-1.543889465,7.552430822
34.54214363,4.710704041,-6.058950348,-1.568737793,7.833425186
34.55208263,5.051395569,-6.202950897,-1.638492737,8.165650952
34.56202263,5.367687836,-6.269712067,-1.703307953,8.427491921
34.57196163,5.649402008,-6.17570755,-1.730850677,8.546984899
34.58190163,5.869444427,-5.979615326,-1.718426514,8.553313219
34.59184063,6.074667664,-5.820795593,-1.786834259,8.600931649
34.60178063,6.412515106,-5.878276062,-2.091750183,8.947060874
34.61171963,6.871460724,-6.297105103,-2.5812323,9.67125976
34.62165862,7.280859375,-6.964267731,-3.082090759,10.5361863
34.63159863,7.52245697,-7.580386505,-3.428021393,11.21610222
34.64153762,7.692054291,-7.869285736,-3.478017426,11.54079557
34.65147763,7.936495972,-7.812254333,-3.30198349,11.61560937
34.66141663,8.276738434,-7.481741638,-3.048859863,11.56617497
34.67135663,8.650810547,-6.835236053,-2.673889618,11.3448958
34.68129563,9.050180054,-6.101911011,-2.282603302,11.15120419
34.69123463,9.576635284,-5.559289398,-2.0079245,11.25386168
34.70117463,10.06836273,-5.163512421,-1.905986481,11.47460557
34.71111363,10.46982788,-4.90380249,-1.951342163,11.72485868
34.72105363,10.92323502,-4.824916534,-2.126328278,12.12922729
34.73099263,11.28652954,-4.930447083,-2.441722412,12.55615649
34.74093263,11.46944916,-5.166206818,-2.928061066,12.91555258
34.75087163,11.4104718,-5.344486084,-3.432512054,13.05927017
34.76081063,11.33712433,-5.516328735,-3.88816452,13.19386578
34.77075063,11.12756012,-5.406606903,-4.070635071,13.02398028
34.78068963,10.79659836,-5.072950745,-4.293671265,12.6782088
