Time (s),Acceleration x (m/s^2),Acceleration y (m/s^2),Acceleration z (m/s^2),Absolute acceleration (m/s^2)
29.81771971,4.057163086,-10.147099,3.761228485,11.55729337
29.82765971,4.254303131,-10.29768585,4.046684875,11.85399036
29.83759871,4.702770538,-10.34094589,4.486320648,12.2138563
29.84753871,5.064418488,-10.1152153,4.816833344,12.29503146
29.85747771,4.860841827,-10.3421434,4.559368744,12.30347743
29.86741671,4.641098785,-11.39774826,3.724105682,12.85758245
29.87735671,5.041516113,-12.46981888,2.88195694,13.75568767
29.88729571,5.713019714,-12.83685562,2.270179138,14.23296068
29.89723571,6.3289888,-12.80093033,1.640588379,14.37398507
29.90717471,6.367159424,-12.20786362,1.184935913,13.81943292
29.91711471,5.716312866,-11.41122025,1.062191162,12.80704612
29.92705371,5.211412811,-10.99837875,1.218466187,12.23142749
29.93699371,4.87221817,-10.67100952,0.9496252441,11.76905868
29.94693271,4.259242859,-10.09635452,-0.07080276489,10.9582178
29.95687271,3.927682343,-9.754166107,-0.9547146606,10.55850014
29.9668125,4.147575073,-9.400900726,-1.072070618,10.33095585
29.9767525,4.794529724,-9.058113556,-1.711241455,10.39063443
29.9866915,5.64101944,-9.040450287,-1.49658783,10.76060485
29.9966305,6.386618958,-9.14193924,-1.09167984,11.20516486
30.0065705,6.729555817,-9.430988159,-0.3486250305,11.59103095
30.0165095,6.576424255,-9.528435516,0.6373745728,11.59511474
30.0264495,6.226452026,-9.244476013,1.21098175,11.21140127
30.0363885,5.926326141,-9.125323792,1.93532547,11.05162253
30.0463285,5.6269487,-8.911268921,2.15881073,10.7579612
30.0562675,5.31918869,-8.471184082,1.877395935,10.17739375
30.0662075,5.117557983,-8.185578003,1.886676636,9.836291765
30.0761465,4.824467468,-7.998167725,1.856439514,9.523263147
30.0860865,4.464915161,-7.76824585,1.624871063,9.106114262
30.0960255,3.997886353,-7.408693542,1.217268677,8.506090661
30.1059655,3.55944809,-6.902595978,0.8669970703,7.814549626
30.1159045,3.15693512,-6.706803131,0.8015830994,7.455869034
30.1258435,2.843936005,-6.625372467,0.6177653503,7.236377986
30.1357835,2.696941681,-6.274651794,0.5177732849,6.849294763
30.1457225,2.565514984,-6.116580505,0.70907547,6.670623077
30.1556625,2.697540436,-5.947282562,0.8647517395,6.587464599
30.1656015,2.924767914,-5.746549988,0.9879455566,6.523276825
30.1755415,3.045566711,-5.769152985,1.217568054,6.636344982
30.1854805,3.329975281,-5.683830414,1.81482605,6.832880588
30.1954205,3.252436523,-5.792504425,2.481240234,7.091403525
30.2053595,3.507805481,-5.57665329,2.740201721,7.135297238
30.2152995,3.836521912,-5.635930023,2.927761688,7.419864966
30.2252385,4.177512817,-5.736820221,3.040327606,7.720512388
30.2351785,4.216731262,-5.874084778,3.19196228,7.904069693
30.2451175,4.176165619,-6.154900818,3.350632324,8.157812227
30.2550565,4.297862549,-6.389463043,3.364852753,8.403516795
30.2649965,4.288731537,-6.619384918,3.149001617,8.492684268
30.2749355,4.144281921,-6.920858002,2.829715576,8.548721446
30.2848755,4.205953674,-7.223678284,2.705324249,8.785804092
30.2948145,4.361180878,-7.590116272,2.530338135,9.112210201
30.3047545,4.756808167,-8.067623291,2.279459839,9.638968132
30.3146935,5.004692688,-8.572223969,2.222877502,10.17207732
30.3246335,5.212011566,-9.110055542,2.350112915,10.75551985
30.3345725,4.991819458,-9.625733185,2.681224365,11.16968956
30.3445125,4.44395874,-10.1072818,3.258124695,11.51178923
30.3544515,3.940256195,-10.34094589,3.833827515,11.71149069
30.3643915,3.859573975,-10.18886215,4.109254761,11.64453511
30.3743305,4.124223633,-9.851014709,4.348457336,11.53086261
30.3842705,4.590653687,-9.676178284,4.476590881,11.60785912
30.3942095,5.323230286,-9.77721817,4.437971191,11.98442173
30.4041485,6.057154083,-10.31280441,4.394711151,12.74192044
30.4140885,6.321354675,-11.10720245,3.835773468,13.34326157
30.4240275,5.893694,-12.05368423,2.755619659,13.69745861
30.4339675,5.261558533,-12.49287094,1.917961578,13.69066832
30.4439065,5.401367798,-12.17313583,1.425934753,13.39377841
30.4538465,5.86330719,-11.52902527,-0.3450325012,12.9389274
30.4637855,5.476062469,-11.13339798,-2.320474548,12.62237747
30.4737255,4.819078674,-11.08714417,-1.567689972,12.19040347
30.4836645,4.720583496,-10.43405228,-0.6499484253,11.470649
30.4936045,4.799918518,-9.974507904,-0.1526824951,11.0703811
30.5035435,4.524042206,-9.479487305,-1.107546844,10.56192679
30.5134835,5.340893555,-9.135951691,-1.868564301,10.74626865
30.5234225,5.937702484,-8.970695343,-2.101629639,10.96113739
30.5333615,6.350993042,-9.175469513,-1.026864624,11.20619491
30.5433015,6.25055191,-9.907297668,-0.6984475708,11.73506605
30.5532405,5.716462555,-10.76695999,-0.01616638184,12.19039101
30.5631805,4.51416275,-10.89239914,1.172212372,11.84888628
30.5731195,3.609444122,-10.26999344,1.570084991,10.9984553
30.5830595,3.31725174,-9.534572754,1.442999268,10.19776856
30.5929985,2.841540985,-9.479187927,1.495240631,10.00825177
30.6029385,2.779569855,-9.236243134,1.467548218,9.75642832
30.6128775,2.850073242,-8.695567474,1.523980865,9.276762844
30.6228175,2.975961456,-8.175997925,1.544637909,8.836809092
30.6327565,3.20139267,-7.649842072,1.299148407,8.393854021
30.6426965,3.179987183,-7.100933533,0.9436376953,7.837475845
30.6526355,3.177592163,-6.64602951,0.8783734131,7.418782923
30.6625745,2.911295929,-6.228847046,1.248104553,6.987985724
30.6725145,2.803669739,-6.062991943,1.770817566,6.910588264
30.6824535,2.621797943,-5.953270111,1.965263214,6.795403518
30.6923935,2.273322601,-5.960006104,2.011666718,6.688532828
30.7023325,2.177372131,-6.084547119,2.218985596,6.832756407
30.7122725,2.053729248,-6.145021362,2.415227509,6.914652217
30.7222115,1.929786987,-6.329737244,2.60458374,7.111505315
30.7321515,2.014959869,-6.432124329,2.815944214,7.304918101
30.7420905,1.918710022,-6.693929901,2.907254333,7.546010431
30.7520305,1.614991608,-7.020401001,2.934497681,7.778528443
30.7619695,1.585353241,-7.285499725,3.034789124,8.049956284
30.7719095,1.686393127,-7.457641754,3.088677063,8.24622752
30.7818485,1.818867645,-7.581584015,3.02820282,8.364132233
30.7917875,1.992955627,-7.661218414,2.925815735,8.439581591
30.8017275,2.147584076,-7.622898102,2.701881409,8.367846556
30.8116665,2.347717896,-7.755821686,2.603835297,8.511433933
30.8216065,2.461181946,-7.97766037,2.554138641,8.730641772
30.8315455,2.463876343,-8.411158905,2.515518951,9.11844923
30.8414855,2.751128998,-8.856033783,2.462080078,9.594784179
30.8514245,3.384461975,-9.321266327,2.493664398,10.22540713
30.8613645,4.158951416,-9.502539368,2.666554871,10.71007218
30.8713035,4.674629059,-9.655670929,2.824476471,11.09332255
30.8812435,5.131928101,-9.838590546,3.024460602,11.50138739
30.8911825,5.394482117,-9.894873505,3.626658325,11.83898685
30.9011225,5.260361023,-10.14829651,4.160897369,12.16439012
30.9110615,4.611759796,-10.5717659,4.400399323,12.34479959
30.9210005,3.900888062,-11.22560623,4.28603714,12.63333991
30.9309405,3.793860626,-12.2199884,3.469934235,13.25752385
30.9408795,4.313879242,-13.1065947,2.457439728,14.01539827
30.9508195,5.250631256,-13.29699875,1.671873322,14.39355636
30.9607585,6.027216339,-12.73506729,1.14781311,14.13600901
30.97069808,6.044131165,-12.19289474,1.093925171,13.65265088
30.98063708,5.722001038,-11.69697601,1.703457642,13.13249069
30.99057708,5.768105164,-10.88042404,0.9199868774,12.34913116
31.00051608,5.913003845,-9.786947937,0.259410553,11.43744981
31.01045608,5.507497101,-8.704099731,-0.8678952026,10.33668799
31.02039508,4.672683105,-8.901838531,-1.121617584,10.11606261
31.03033508,4.562362518,-8.895551605,-1.641486511,10.13116321
31.04027408,4.844076691,-8.975635071,-2.340682526,10.46450661
31.05021308,5.421276398,-9.399703217,-2.066752167,11.04609084
31.06015308,6.284830627,-9.759405212,-0.7828720093,11.63434462
31.07009208,6.469546509,-9.739346924,0.09145980835,11.69265904
31.08003208,6.192023621,-9.558822327,0.8421487427,11.42022133
31.08997108,5.842799835,-9.614805908,1.601220245,11.36427335
31.09991108,5.61647049,-9.597891083,2.083666992,11.31397022
31.10985008,5.490133209,-9.126521301,2.192041626,10.87382178
31.11979008,5.304519196,-8.613088989,2.0570224,10.32252716
31.12972908,5.00918335,-8.255482635,2.112856293,9.884789987
31.13966908,4.732259216,-8.054001617,1.845661926,9.521958165
31.14960808,4.285139008,-7.846832428,1.356628876,9.042988299
31.15954708,3.70329895,-7.574848022,1.111289062,8.504569893
31.16948708,3.035687256,-7.233408051,0.8409512329,7.889536622
31.17942608,2.526146851,-7.028184814,0.818946991,7.513153391
31.18936608,2.239193573,-6.841822357,0.7068301392,7.233542
31.19930508,2.24428299,-6.539750519,0.6225553894,6.942097536
31.20924508,2.277064819,-6.242768097,0.8205935669,6.695562075
31.21918408,2.229613495,-6.09263031,0.9163943481,6.552182769
31.22912408,2.181862793,-5.962101746,1.345252533,6.489752449
31.23906308,2.57180191,-5.724545746,1.808838501,6.53119329
31.24900308,3.082390137,-5.592220917,1.965412903,6.68108611
31.25894208,3.370690613,-5.517077179,2.15761322,6.815789801
31.26888208,3.579805756,-5.456902313,2.545157318,7.005042318
31.27882108,3.843257904,-5.458099823,2.75666748,7.222236537
31.28876108,3.998634796,-5.576204224,2.88075943,7.441902221
31.29870008,4.233945465,-5.736071777,3.046315155,7.752989724
31.30863908,4.391417999,-5.926326141,2.979104919,7.954933042
31.31857908,4.52359314,-6.144721985,2.942580872,8.177975627
31.32851808,4.710254974,-6.280339966,2.755769348,8.320062302
31.33845808,4.653972015,-6.546187134,2.659519501,8.460795795
31.34839708,4.558919678,-7.004683685,2.621348877,8.759041734
31.35833708,4.884941711,-7.420968018,2.556084595,9.244835872
31.36827608,4.996459808,-7.977959747,2.551444244,9.753067214
31.37821608,4.951104126,-8.687334595,2.50279541,10.30762821
31.38815508,4.595892792,-9.314081268,2.552641754,10.69534106
31.39809508,4.010460205,-9.774074707,2.92057663,10.96111743
31.40803408,3.534300385,-10.15578094,3.426973572,11.28606724
31.41797308,3.3920961,-10.12434631,3.96779892,11.39087936
31.42791308,3.515439606,-9.858648834,4.394411774,11.35174556
31.43785208,4.20640274,-9.284442902,4.447850647,11.12106467
31.44779208,5.151687012,-8.907077637,4.198918304,11.1133625
31.45773108,5.830824738,-9.270372162,3.93965744,11.63869485
31.46767108,6.032156067,-10.27283752,3.714226227,12.47852452
31.47761008,5.909710693,-11.55941208,2.790497131,13.27898951
31.48755008,5.607339478,-12.24289078,1.807191925,13.58663215
31.49748908,5.459147644,-12.10862,0.6390211487,13.29771857
31.50742908,5.379962311,-11.85953796,-0.6625222778,13.03961544
31.51736808,4.514761505,-12.10966782,-1.532064056,13.01438997
31.52730708,3.943998413,-12.18047058,-2.173330536,12.98623705
31.53724708,4.664300537,-11.59698395,-1.460662537,12.58488265
31.54718608,5.763913879,-11.11738129,-0.5725593567,12.53581645
31.55712608,5.589825897,-11.49878815,-0.2921923828,12.78880991
31.56706508,5.015769653,-11.56659714,-1.20753891,12.66500157
31.57700508,5.594615936,-11.14612152,-2.620600433,12.7437553
31.58694408,5.937552795,-11.61075531,-1.785786438,13.16256834
31.59688408,6.162235565,-12.01207077,-0.9204359436,13.53182152
31.60682308,5.817951508,-12.18645813,0.4776567078,13.51245638
31.61676308,4.766537933,-11.49714157,1.51170639,12.53751987
31.62670208,3.986060944,-10.39842636,1.790726166,11.27930197
31.63664208,3.502865753,-9.506131897,2.039209442,10.33416602
31.64658108,3.009042664,-8.839418335,1.837578735,9.516635428
31.65652008,2.902464294,-8.73942627,1.757195892,9.374945755
31.66646008,3.034340057,-8.067323914,1.551074524,8.757554846
31.67639908,3.199446716,-7.464228058,1.538800049,8.265534791
31.68633908,3.136427765,-6.851552124,1.414708099,7.6669645
31.69627808,3.077001343,-6.434968414,1.17475708,7.228887186
31.70621808,2.934347992,-6.219566345,1.008303223,6.950545234
31.71615708,2.526146851,-6.071673889,1.096020813,6.66692608
31.72609708,2.214195557,-6.045478363,1.260379028,6.560413546
31.73603608,2.259700928,-6.143973541,1.387913818,6.691858032
31.74597608,2.279908905,-6.182892609,1.499731293,6.758353318
31.75591508,2.184407501,-6.19322113,1.582359467,6.75510811
31.76585508,2.374362488,-6.189329224,1.992356873,6.922057452
31.77579408,2.272424469,-6.160738678,2.323917389,6.965572917
31.78573308,2.171534271,-6.261928253,2.504292297,7.085110193
31.79567308,1.963017883,-6.561605072,2.75666748,7.382907011
31.80561208,1.884730682,-6.840475159,2.955304413,7.686230176
31.81555208,1.970502319,-7.106472015,2.917882233,7.930880192
31.82549108,2.197729797,-7.35046463,2.937641144,8.215173889
31.83543108,2.22901474,-7.608078918,2.980901184,8.469778239
31.84537008,2.165696411,-7.747588806,3.003354492,8.586938422
31.85531008,2.142794037,-7.835007019,3.026705933,8.668324525
31.86524908,2.258802795,-7.928562469,2.930007019,8.749241912
31.87518908,2.538720703,-8.10983551,2.652334442,8.902213927
31.88512808,3.061583405,-8.402926025,2.333048401,9.242595608
31.89506708,3.585793304,-8.809779968,2.156266022,9.752928784
31.90500708,3.75359436,-9.307045898,2.114053802,10.25572023
31.91494608,3.666774902,-9.832004242,2.326013031,10.74820367
31.92488608,3.5208284,-10.32897079,2.720592499,11.24657698
31.93482508,3.528761902,-10.79165863,2.815944214,11.69793137
31.94476508,3.614084473,-11.05660767,3.180585938,12.059283
31.95470408,3.559597778,-10.95047836,3.63309494,12.0740669
31.96464471,3.225642242,-10.87787933,3.687731323,11.93031387
31.97458371,3.021466827,-11.28398483,3.5898349,12.22065833
31.98452371,3.299738159,-11.94306427,3.066373444,12.76431362
31.99446271,3.749852142,-12.38614288,2.331102448,13.14959943
32.00440271,4.273463287,-11.97285233,2.001188507,12.86920498
32.01434171,4.67328186,-11.0694809,1.725611572,12.13880991
32.02428071,5.347928925,-10.4948259,0.8238867188,11.80764599
32.03422071,5.968837738,-10.12015503,0.03248245239,11.74928155
32.04415971,6.482419739,-9.314380646,-0.2140548706,11.35012211
32.05409971,6.693780212,-8.526868286,-0.6623725891,10.86061295
32.06403871,6.1710672,-8.96515686,-0.1927990723,10.88546184
32.07397871,5.415588226,-9.594298553,-0.3363505554,11.02235421
32.08391771,5.120701447,-9.874515839,-0.746048584,11.14828394
32.09385771,5.286706238,-10.09740234,-0.7134164429,11.41997198
32.10379671,5.488935699,-10.30337402,-0.3385958862,11.67915145
32.11373671,5.610333252,-9.931098175,0.1630110168,11.40741525
32.12367571,5.569019165,-9.63097229,1.175505524,11.18710932
32.13361571,5.377567291,-9.49879715,2.019151154,11.10055623
32.14355471,5.17997818,-9.309889984,2.241139526,10.88709933
32.15349371,5.128784637,-9.218729553,2.257754974,10.78827437
32.16343371,4.767436066,-8.676407318,2.225122833,10.14690407
32.17337271,4.331991577,-8.214916992,2.101779327,9.522000239
32.18331271,4.150419159,-7.992778931,1.75165741,9.174900431
32.19325171,3.950285339,-7.644303589,1.446142731,8.725334402
32.20319171,3.728746033,-7.325765991,1.243015137,8.313572094
32.21313071,3.511697388,-7.028484192,0.8982820129,7.90812994
32.22307071,3.341950378,-6.721921692,0.7649093628,7.545723948
32.23300971,3.284170532,-6.564449158,0.809815979,7.384684878
32.24294871,3.280278625,-6.390061798,0.8478369141,7.232699709
32.25288871,3.228636017,-6.195167084,1.064286804,7.066604002
32.26282771,3.170407104,-5.909561005,1.378633118,6.846533557
32.27276771,3.049009552,-5.850284271,1.806144104,6.839915338
32.28270671,3.25049057,-5.99787735,2.082020416,7.132673458
32.29264671,3.344944153,-6.055657196,2.374661865,7.314277438
32.30258571,3.167113953,-6.070476379,2.648592224,7.341412332
32.31252571,3.229983215,-6.191724243,2.818039856,7.530709748
32.32246471,3.332519989,-6.274951172,2.92641449,7.684048637
32.33240471,3.39913147,-6.387816467,2.863694916,7.781969066
32.34234371,3.584595795,-6.471043396,2.832709351,7.921361746
32.35228371,3.640429688,-6.589297485,2.741399231,8.011668952
32.36222271,3.467090149,-6.709647217,2.76370285,8.042271652
32.37216171,3.288062439,-6.781497803,2.771336975,8.029967352
32.38210171,3.418291626,-6.91756485,2.719694366,8.181329876
32.39204071,3.696413269,-7.236401825,2.723436584,8.570069385
32.40198071,3.946243744,-7.560926971,2.767894135,8.966699186
32.41191971,4.223616943,-8.048463135,2.657573547,9.469920595
32.42185971,4.484374695,-8.740474091,2.661166077,10.17778505
32.43179871,4.425097961,-9.549841003,2.778372345,10.88578468
32.44173871,4.071682892,-10.10264145,2.96727951,11.28922998
32.45167771,3.799099731,-10.32298325,3.439098358,11.5249529
32.46161771,3.9362146,-10.24200165,4.080963593,11.7066924
32.47155671,4.230203247,-9.98663269,4.595144348,11.77891351
32.48149571,4.795128479,-9.591903534,4.753515015,11.73003732
32.49143571,5.710624695,-9.544452209,4.569697266,12.02455552
32.50137471,6.171366577,-10.31490005,4.605772247,12.87229842
32.51131471,6.051016846,-11.57497971,4.526886292,13.82344601
32.52125371,5.807772675,-12.84134628,3.626658325,14.55276772
32.53119371,5.628445587,-13.66343674,2.526595917,14.99175074
32.54113271,5.677693176,-13.3984877,1.696721649,14.65041081
32.55107271,6.166127472,-12.59810211,0.580941925,14.03819071
32.56101171,6.189179535,-11.4808255,-1.229992218,13.10069381
32.57095171,6.062542877,-11.05047043,-1.277593231,12.66884238
32.58089071,5.912854156,-10.47431854,-0.9219328308,12.06329778
32.59082971,5.597460022,-10.01193008,0.3739224243,11.47650298
32.60076971,4.831652527,-9.710007935,0.102387085,10.8461792
32.61070871,4.917274475,-9.292376404,-1.154249725,10.57639541
32.62064871,5.714815979,-8.996292114,-2.059866486,10.85520352
32.63058771,5.941295013,-9.291777649,-1.779050446,11.171443
32.64052771,5.731880493,-9.989177399,-1.172212372,11.57636389
32.65046671,5.60239975,-10.39677979,-0.5083428955,11.82109662
32.66040671,4.827610931,-10.08797195,0.9451345825,11.22347027
32.67034571,4.036955109,-9.340576172,1.909279633,10.35319847
32.68028571,3.683839417,-8.826545105,2.332449646,9.844739341
32.69022471,3.392994232,-8.616831207,2.314487,9.545629366
32.70016371,3.168012085,-8.863667908,1.931134186,9.608859901
32.71010371,3.051254883,-8.742420044,1.722468109,9.418437289
32.72004271,3.240162048,-8.347241821,1.478774872,9.075344139
32.72998271,3.432661743,-7.960296478,1.200054474,8.751549429
32.73992171,3.641776886,-7.40076004,0.9508227539,8.302882148
32.74986171,3.672014008,-6.94331131,0.8845106506,7.904151941
32.75980071,3.403322754,-6.578968964,1.172511749,7.499348118
32.76974071,3.087778931,-6.363267517,1.517095184,7.233749375
32.77967971,2.781216431,-6.174060974,1.614542542,6.961389327
32.78961971,2.702330475,-5.986950073,1.777104492,6.804723474
32.79955871,2.585573273,-5.954018555,2.227068787,6.862606027
32.80949771,2.255060577,-5.934858398,2.411335602,6.791346096
32.81943771,2.038460999,-6.037544861,2.482288055,6.838788283
32.82937671,1.834435272,-6.141279144,2.583178253,6.910374243
32.83931671,1.692829742,-6.336173859,2.661315765,7.07780851
32.84925571,1.681154022,-6.676865387,2.797532501,7.43189063
32.85919571,1.556463318,-7.107370148,2.712958374,7.765142086
32.86913471,1.595532074,-7.414531403,2.605481873,8.019322559
32.87907471,1.763931885,-7.684420166,2.566413116,8.291456161
32.88901371,2.023192749,-7.789052582,2.570005646,8.447933359
32.89895371,2.276615753,-7.816894684,2.747835846,8.592870511
32.90889271,2.30161377,-7.855664063,2.870131531,8.674476285
32.91883271,2.313588867,-8.051606598,2.924618225,8.873243714
32.92877171,2.250719604,-8.43870163,2.864443359,9.191434039
32.93871071,2.427651672,-8.918154602,2.730771332,9.637639037
32.94865071,2.80471756,-9.418563995,2.791544952,10.21609082
32.95858971,3.258274384,-9.786498871,2.779869232,10.68267687
32.96852958,3.786974945,-9.9878302,2.899171143,11.06811297
32.97846858,4.08246048,-10.09560608,3.138074341,11.33292796
32.98840858,4.268224182,-10.10907806,3.742367706,11.59381357
32.99834758,4.55517746,-10.10084518,4.329596558,11.89630705
33.00828758,4.531077576,-10.03483246,4.619094543,11.94004024
33.01822658,4.133803711,-10.50844757,4.26732605,12.07169727
33.02816558,4.072281647,-11.61943726,3.672463074,12.84841566
33.03810558,4.64873291,-12.5597818,3.036884766,13.73249816
33.04804458,5.694009247,-12.7932962,2.161355438,14.1690376
33.05798458,6.572232971,-12.6579776,1.179098053,14.31114654
33.06792358,6.603817291,-12.36458771,0.7658074951,14.03851463
33.07786358,5.949378204,-11.95698532,0.4396357727,13.36255509
33.08780258,5.744304657,-11.26153152,0.7646099854,12.66506047
33.09774258,5.742059326,-10.22059616,0.6098318481,11.73898318
33.10768158,5.387895813,-9.51870575,-0.3134481812,10.94227719
33.11762158,4.762795715,-9.083261261,-0.1118174744,10.25682023
33.12756058,4.569098511,-8.548423462,-0.7191046143,9.719532722
33.13749958,5.172194366,-8.1391745,-1.825903015,9.814870245
33.14743958,5.86210968,-7.994874573,-1.553619232,10.03474375
33.15737858,6.558461609,-8.61533432,-1.31980545,10.90776286
33.16731858,6.877897339,-9.05646698,-0.4960684204,11.38293239
33.17725758,6.739884338,-8.952732697,0.3577560425,11.21184432
33.18719758,6.408174133,-8.880582733,1.237177277,11.02089166
33.19713658,6.092779999,-8.993148651,2.012115784,11.04750201
33.20707658,5.770649872,-8.979377289,2.107168121,10.8797874
33.21701558,5.555846558,-8.788075104,2.042053528,10.59564428
33.22695558,5.251679077,-8.367449799,2.136656799,10.10740578
33.23689458,4.711003418,-8.146209869,1.938468933,9.607910816
33.24683458,4.199966125,-7.973618774,1.742376709,9.17900803
33.25677358,3.830534363,-7.622898102,1.198557587,8.614993283
33.26671258,3.492088165,-7.153174896,0.8469387817,8.004991952
33.27665258,3.198698273,-6.76548111,0.6523434448,7.51192101
33.28659158,2.939587097,-6.475833435,0.4757107544,7.127684877
33.29653158,2.695145416,-6.193370819,0.4722679138,6.770870542
33.30647058,2.462379456,-5.994434509,0.6080355835,6.508937313
33.31641058,2.562670898,-5.769452362,0.8566685486,6.370851097
33.32634958,2.628983002,-5.764362946,1.428928528,6.494710812
33.33628958,2.60458374,-5.646108856,1.79371994,6.471462964
33.34622858,2.788401489,-5.689668274,2.206860809,6.709526255
33.35616758,3.183280334,-5.782924347,2.335593109,7.002177009
33.36610758,3.339705048,-5.696553955,2.476450195,7.052457893
33.37604658,3.564238129,-6.032305756,2.569855957,7.463019885
33.38598658,3.927532654,-6.415209503,2.845133514,8.042089929
33.39592558,4.2520578,-6.689139862,2.895279236,8.438437621
33.40586558,4.506528625,-7.051087189,2.844085693,8.838294758
33.41580458,4.67103653,-7.368427277,2.715952148,9.13721505
33.42574458,4.715045013,-7.705526276,2.595602417,9.399145523
33.43568358,4.697082367,-7.888595581,2.423161011,9.495484837
33.44562358,4.645739136,-8.011040955,2.302212524,9.542528585
33.45556258,4.69319046,-8.25263855,2.761906586,9.88737618
33.46550258,4.865781555,-8.450077972,3.243904266,10.27631076
33.47544158,5.009333038,-8.645571442,3.446433105,10.5696369
33.48538058,4.949607239,-8.905281372,3.592678986,10.80323981
33.49532058,4.655917969,-9.203610992,3.676804047,10.95001897
33.50525958,4.345613251,-9.465117188,3.809877319,11.08999383
33.51519958,4.086801453,-9.683063965,3.952231293,11.22870456
33.52513858,4.11748764,-9.726473694,4.248315582,11.38447101
33.53507858,4.388424225,-9.532477112,4.700375519,11.49869197
33.54501758,4.734953613,-9.240284729,4.911137238,11.48572664
33.55495758,5.161416779,-9.2658815,4.43931839,11.49801422
33.56489658,5.649402008,-9.822424164,3.844156036,11.96550438
33.57483558,5.902375946,-10.84030746,3.377426605,12.79676983
33.58477558,5.785918121,-11.9692598,2.08276886,13.4565209
33.59471458,5.45375885,-12.63073425,1.090332642,13.80100571
33.60465458,5.43265274,-12.06700653,1.104403381,13.27953573
33.61459358,6.059549103,-11.22934845,0.9044192505,12.7919653
33.62453358,6.314319305,-10.76067307,-0.4501139832,12.48460315
33.63447258,5.768254852,-10.5889801,-1.639989624,12.16917539
33.64441258,5.270240479,-10.1948497,-1.09632019,11.52876026
33.65435158,4.943769379,-9.662107544,0.9066645813,10.89124504
33.66429158,4.686753845,-9.491163025,1.568588104,10.70085538
33.67423058,4.038901062,-9.63800766,0.3474275208,10.4558414
33.68416958,5.040617981,-9.235345001,-2.392175446,10.78989946
33.69410958,5.613027649,-9.292675781,-1.803898773,11.00517848
33.70404858,5.658682709,-9.936636658,-1.02267334,11.48056178
33.71398858,5.813161469,-10.38764877,-0.7078779602,11.9246461
33.72392758,5.845943298,-10.47132477,0.3206332397,11.99693716
33.73386758,5.026547241,-9.959838409,1.295406189,11.23132385
33.74380658,4.355941772,-9.289382629,1.642534332,10.39061006
33.75374658,4.096381531,-8.542884979,1.777703247,9.639577493
33.76368558,3.829037476,-8.181835785,1.90493866,9.232158799
33.77362558,3.587589569,-8.14965271,2.141746216,9.158313986
33.78356458,3.429967346,-7.636070709,1.868264923,8.576984651
33.79350358,3.416794739,-7.208559723,1.536255341,8.12390916
33.80344358,3.254532166,-6.914720764,1.416504364,7.772504582
33.81338258,2.999761963,-6.652915192,1.226998444,7.40036334
33.82332258,2.76145752,-6.610403595,1.044527893,7.239759792
33.83326158,2.376308441,-6.612648926,1.018931122,7.100154101
33.84320158,2.076631622,-6.613097992,1.090182953,7.016691729
33.85314058,2.077230377,-6.650520172,1.349743195,7.096908573
33.86308058,2.203567657,-6.701863403,1.569635925,7.22733979
33.87301958,2.212249603,-6.700516205,1.673669586,7.252043547
33.88295858,2.181413727,-6.693480835,1.714384918,7.245713711
33.89289858,2.177372131,-6.694378967,1.86392395,7.282161193
33.90283758,2.245630188,-6.725214844,2.040556641,7.378024196
33.91277758,2.364932098,-6.784042511,2.222129059,7.520238971
33.92271658,2.381846924,-6.919660492,2.486928406,7.729146718
33.93265658,2.493215332,-7.004983063,2.780318298,7.938266829
33.94259558,2.510429535,-7.126679993,3.027753754,8.139970329
33.95253558,2.426154785,-7.330855408,3.230881348,8.37055926
33.96247458,2.387235718,-7.59385849,3.395688629,8.654263828
33.97241371,2.437980194,-7.694748688,3.544628906,8.815741539
33.98235271,2.388582916,-7.850874023,3.570674744,8.94937257
33.99229171,2.494113464,-8.145461426,3.486549683,9.204627776
34.00223171,2.86549118,-8.682394867,3.188818817,9.683159907
34.01217071,3.339106293,-9.244925079,2.834655304,10.23003134
34.02211071,3.547023926,-9.647887115,2.6502388,10.61540721
34.03204971,3.643423462,-10.00205063,2.630629578,10.96520694
34.04198971,3.789669342,-10.27358597,2.486629028,11.22904654
34.05192871,3.988156586,-10.583741,2.742596741,11.63798966
34.06186871,4.01929184,-10.60379929,3.233276367,11.79191851
34.07180771,4.120481415,-10.56937088,3.329526215,11.8226779
34.08174771,4.144581299,-11.0375972,3.010389862,12.16834225
34.09168671,4.69558548,-12.1828656,2.407443695,13.2765403
34.10162571,5.715115356,-13.23966797,1.601070557,14.50912742
34.11156571,6.464457092,-13.58619736,1.190474396,15.09275301
34.12150471,6.659800873,-12.58582764,1.669328613,14.33675915
34.13144471,6.05056778,-11.06379272,2.396815796,12.83594975
34.14138371,5.392835541,-10.1577269,2.637066193,11.79899186
34.15132371,5.332361298,-10.39677979,1.357826385,11.76311181
34.16126271,4.848717041,-9.792187042,-0.7906558228,10.95546077
34.17120271,4.284689941,-9.091793518,-1.970652008,10.24220419
34.18114171,4.712649994,-8.955726471,-2.379751282,10.39602437
34.19108071,6.369255066,-8.512049103,-2.763403473,10.98447945
34.20102071,7.148983612,-8.745413818,-2.189646606,11.50585859
34.21095971,7.637268219,-9.244326324,-1.166075134,12.04762077
34.22089971,7.695796509,-9.497300262,-0.3629951477,12.22929931
34.23083871,7.248376923,-9.656569061,0.4252656555,12.08176911
34.24077871,6.636449432,-9.559421082,1.202299805,11.69916738
34.25071771,5.896538086,-9.45778244,1.32220047,11.2235032
34.26065771,5.05588623,-9.417665863,1.437161407,10.785168
34.27059671,4.276756439,-9.053622894,1.547781372,10.13184881
34.28053671,3.941753082,-8.450676727,1.20289856,9.402038048
34.29047571,3.767216034,-8.068222046,1.050814819,8.966177302
34.30041471,3.658691711,-7.756121063,1.341660004,8.68006282
34.31035471,3.509452057,-7.321724396,1.333576813,8.228142499
34.32029371,3.379522247,-6.876699829,1.265019379,7.765979989
34.33023371,3.454965363,-6.449937286,1.144819336,7.406017011
34.34017271,3.606600037,-6.193370819,1.099763031,7.250854064
34.35011271,3.715872803,-6.069727936,1.124012604,7.205047691
34.36005171,3.815266113,-6.070027313,1.131047974,7.258151047
34.36999171,3.932023315,-5.976471863,1.334624634,7.277379074
34.37993071,4.192930756,-5.699847107,1.412163391,7.215478557
34.38987071,4.278852081,-5.631139984,1.713786163,7.277044432
34.39980971,4.196672974,-5.667664032,1.929337921,7.311417403
34.40974871,4.04144577,-5.680387573,2.01376236,7.256398951
34.41968871,3.889661407,-5.955515442,2.417173462,7.512679787
34.42962771,3.626658325,-6.163433075,2.731370087,7.655125109
34.43956771,3.335064697,-6.20848938,2.816542969,7.589526415
34.44950671,3.113974457,-6.411167908,2.889141998,7.690712083
34.45944671,3.09601181,-6.728507996,3.007396088,7.993906442
34.46938571,3.171754303,-6.833140411,2.951861572,8.091064206
34.47932571,3.331921234,-6.9022966,2.680775299,8.119726207
34.48926471,3.60854599,-6.947053528,2.501897278,8.218433359
34.49920371,3.877835999,-7.149732056,2.409090271,8.482923814
34.50914371,4.199816437,-7.42186615,2.286195831,8.828887055
34.51908271,4.586462402,-7.700586548,1.859133911,9.153745105
34.52902271,4.868925018,-8.217910767,2.218386841,9.806208665
34.53896171,4.971162415,-8.816366272,2.816842346,10.50596834
34.54890171,5.098996582,-9.294322357,3.320095825,11.1088807
34.55884071,4.912334747,-9.672436066,3.86825592,11.51739797
34.56878071,4.473447418,-9.912536774,4.302053833,11.69520347
34.57871971,4.050127716,-9.870174866,4.411476288,11.54491271
34.58865971,4.17721344,-9.779762878,4.458777924,11.53141685
34.59859871,4.781057739,-9.769134979,4.408781891,11.73592217
34.60853771,5.502257996,-10.03722748,4.029470673,12.13496652
34.61847771,5.861211548,-10.79764618,3.422033844,12.75355948
34.62841671,5.99787735,-11.90504333,2.663710785,13.59411434
34.63835671,5.775290222,-12.61606476,2.149979095,14.04070786
34.64829571,5.075196075,-12.54765701,1.427880707,13.61029592
34.65823571,4.597539368,-12.19678665,0.9815089417,13.07143193
34.66817471,4.464915161,-11.87196213,0.09370513916,12.68415282
34.67811471,4.36671936,-11.4755864,-0.5427713013,12.29031821
34.68805371,4.383933563,-10.79674805,-0.9141490173,11.68864022
34.69799271,4.836143188,-10.45021866,-0.9536668396,11.55442908
34.70793271,4.866230621,-10.17179764,-1.118474121,11.33122465
34.71787171,4.698728943,-10.42537033,-1.722168732,11.56426675
34.72781171,4.893024902,-10.31265472,-1.104253693,11.46786451
34.73775071,5.898034973,-10.16670822,-1.178050232,11.81256005
34.74769071,6.008804626,-10.61622345,-0.5438191223,12.21088337
34.75762971,5.836063843,-10.96799194,-0.1639091492,12.42510984
34.76756971,4.953199768,-10.87234085,0.7949967957,11.9738884
34.77750871,4.15266449,-10.24275009,1.383423157,11.13877962
