Time (s),Acceleration x (m/s^2),Acceleration y (m/s^2),Acceleration z (m/s^2),Absolute acceleration (m/s^2)
14.91112525,-8.496331787,-0.1251397705,3.215313721,9.085238363
14.92106425,-7.91913208,-0.145796814,2.777174835,8.393247862
14.93100425,-7.525899811,-0.1954934692,2.343825989,7.884852942
14.94094325,-7.37276825,-0.2381547546,1.960323486,7.632646823
14.95088325,-7.400909729,-0.2561174011,1.653162231,7.587621914
14.96082225,-7.495363312,-0.2222877502,1.470541992,7.641490481
14.97076225,-7.563321991,-0.1507365417,1.332828369,7.681340541
14.98070125,-7.555089111,-0.1627116394,1.285676422,7.665429565
14.99064125,-7.519313507,-0.2957849121,1.334924011,7.642616466
15.00058025,-7.553592224,-0.5577401733,1.483115845,7.717995996
15.01052025,-7.526498566,-0.9168434143,1.73519165,7.778153545
15.02045925,-7.548053741,-1.243015137,2.066452789,7.923915007
15.03039925,-7.590715027,-1.390757904,2.512674866,8.115830034
15.04033825,-7.553292847,-1.324296112,3.030448151,8.245581181
15.05027825,-7.491022339,-1.184037781,3.581751709,8.387270501
15.06021725,-7.429500275,-0.9982740784,4.090393982,8.539633973
15.07015725,-7.44761261,-0.7658074951,4.540657654,8.7561959
15.08009625,-7.535479889,-0.4117936707,4.740192719,8.911927861
15.09003625,-7.820936279,-0.09999206543,4.445605316,8.996691021
15.09997525,-8.28886322,-0.08996292114,3.867357788,9.147119933
15.10991525,-8.652157745,-0.3809577942,3.350183258,9.285940467
15.11985425,-8.9102211,-0.8927435303,2.935844879,9.42381113
15.12979425,-9.22381897,-1.412911835,2.595901794,9.685755642
15.13973425,-9.612111511,-1.67202301,2.328857117,10.03054954
15.14967325,-10.1563797,-1.769021301,2.247875519,10.55151313
15.15961325,-10.81261505,-1.878294067,2.545007629,11.26577546
15.16955225,-11.4357692,-1.755848694,3.353326721,12.04593798
15.17949225,-11.73320068,-1.182091827,4.658462677,12.6793775
15.18943088,-11.70595734,-0.6020480347,6.238576813,13.27824309
15.19937087,-11.42918289,-0.2550695801,7.43473938,13.6369583
15.20930988,-11.38637192,-0.09295669556,7.501799927,13.63580245
15.21924987,-12.30950226,0.01871109009,6.670877838,14.00088594
15.22918888,-13.67825592,0.1776805115,5.695206757,14.81761234
15.23912887,-15.00389923,0.3436853027,4.635260925,15.70734718
15.24906788,-15.98720444,0.4047583008,3.483705597,16.36736814
15.25900787,-16.1801532,-0.09924362183,2.359243927,16.35155157
15.26894688,-15.45895294,-1.266366577,1.270108795,15.56265038
15.27888687,-13.66672989,-2.093546448,0.3311114502,13.83011487
15.28882588,-11.39714951,-1.91541687,-0.4481680298,11.56566873
15.29876587,-9.603279877,-0.8469387817,-0.9113049316,9.683530677
15.30870488,-8.044571228,0.1115180969,-1.096769257,8.119757714
15.31864487,-7.189698944,0.7005432129,-1.187929688,7.320772407
15.32858388,-7.29433136,1.087488556,-1.281485138,7.485459605
15.33852387,-8.195158081,1.255888367,-1.408870239,8.409684115
15.34846288,-9.242979126,1.165177002,-1.561852112,9.446146441
15.35840287,-10.04171814,1.040336609,-1.78084671,10.25133252
15.36834188,-10.43285477,0.8677455139,-1.969604187,10.65254812
15.37828187,-10.3541185,0.6905140686,-1.993404694,10.56684635
15.38822088,-9.969418488,0.6261479187,-1.892215118,10.16670272
15.39816087,-9.476792908,0.5945635986,-1.842219086,9.672480594
15.40809987,-9.235644379,0.4900808716,-1.877845001,9.437351758
15.41803987,-9.096433868,0.254021759,-1.799857178,9.2762666
15.42797887,-8.903335419,-0.08367599487,-1.490600281,9.027639362
15.43791887,-8.656947784,-0.4584965515,-1.036893768,8.730871246
15.44785787,-8.40936264,-0.8132588196,-0.5400769043,8.465840359
15.45779787,-8.174950104,-1.075064392,0.1847158813,8.247405204
15.46773788,-8.034392395,-1.279239807,1.166673889,8.218822519
15.47767687,-7.864346008,-1.327738953,1.903292084,8.199594479
15.48761688,-7.604785767,-1.238075409,2.698737946,8.163870637
15.49755587,-7.454198914,-1.139580231,3.780987396,8.435614396
15.50749588,-7.436086578,-0.9330097961,5.354215851,9.210511292
15.51743487,-7.068002014,-0.5206173706,7.50030304,10.31902324
15.52737488,-6.857389984,0.1562750244,5.886958008,9.039053815
15.53731387,-7.829169159,0.7482939148,3.235671387,8.504434304
15.54725388,-8.327782288,1.05306015,1.994003448,8.627684699
15.55719287,-8.319998474,1.332229614,1.478026428,8.554634561
15.56713288,-7.964936829,1.477727051,1.404379578,8.221689481
15.57707187,-7.433092804,1.262175293,1.769320679,7.744317321
15.58701188,-7.285350037,0.6978488159,2.380050659,7.695970326
15.59695087,-7.454049225,0.1158590698,3.01532959,8.041671823
15.60689088,-7.807464294,-0.4568499756,3.583098907,8.602546622
15.61682987,-8.248147888,-1.012793884,4.065695343,9.251355234
15.62676988,-8.770711212,-1.422641602,4.424199829,9.925866633
15.63670887,-9.170529785,-1.488504639,4.597689056,10.36595424
15.64664888,-9.380842438,-0.9080117798,4.44276123,10.41934823
15.65658787,-9.376950531,0.02769241333,3.852538605,10.13755502
15.66652788,-9.163793793,0.5926176453,3.247796173,9.740353809
15.67646688,-9.020691376,0.7162605286,2.95799881,9.520276204
15.68640688,-9.2658815,0.5245092773,3.01996994,9.759707393
15.69634588,-9.852511597,0.4272116089,3.253484344,10.38458737
15.70628587,-10.60948746,0.7092251587,3.653153229,11.24320919
15.71622488,-11.20360199,1.159189453,4.275409241,12.04755336
15.72616487,-11.37694153,1.328936462,4.990172882,12.49410645
15.73610388,-11.27724884,1.101559296,5.541925507,12.61359238
15.74604387,-11.14417557,0.7756869507,5.632187805,12.51063063
15.75598288,-11.38846756,0.3481759644,5.211861877,12.52924276
15.76592287,-12.24827957,-0.2424957275,4.511168976,13.05487657
15.77586287,-13.31541046,-1.003363495,3.412154388,13.78222375
15.78580187,-14.52818848,-1.615740051,1.661095734,14.71183589
15.79574187,-15.504608,-1.675465851,0.01392105103,15.59487893
15.80568087,-15.17439468,-1.004710693,-0.7515870667,15.22618077
15.81562087,-12.87113434,-0.1323248291,-0.9157955933,12.90435161
15.82555987,-10.29154861,0.1384620667,-0.980760498,10.33910227
15.83549987,-8.645272064,-0.0940045166,-1.029109955,8.706815331
15.84543887,-7.948920135,-0.6581813049,-1.093775482,8.05076883
15.85537887,-8.268206177,-1.422042847,-1.324445801,8.493503159
15.86531787,-9.240434418,-2.161654816,-1.715732117,9.643760494
15.87525787,-10.28990204,-2.627037048,-2.139500885,10.83332228
15.88519687,-11.0919342,-2.728975067,-2.621797943,11.71973267
15.89513687,-11.61419815,-2.483784943,-3.052452393,12.26279951
15.90507587,-11.73005722,-1.97274765,-2.919528809,12.24784161
15.91501587,-11.24042542,-1.306183777,-2.110910339,11.51126501
15.92495487,-10.71591614,-0.6572831726,-1.184037781,10.80114926
15.93489487,-10.44797333,-0.01945953369,-0.4140390015,10.45619212
15.94483387,-10.25023453,0.5703140259,0.2215393066,10.26847825
15.95477387,-9.838740234,0.9886940002,0.6780899048,9.911515078
15.96471287,-9.339378662,1.214873657,1.018332367,9.472956909
15.97465288,-8.813971252,1.275647278,1.307081909,9.001212604
15.98459187,-8.407566376,1.183888092,1.555265808,8.631779371
15.99453188,-8.067623291,1.034648438,1.759590912,8.321850944
16.00447087,-7.607180786,0.8562194824,1.908231812,7.889465125
16.01441088,-7.231611786,0.6691085815,2.027084656,7.54009201
16.02434987,-6.967710571,0.4415817261,2.050735474,7.276640778
16.03428988,-6.871460724,0.1766326904,2.031425629,7.167625944
16.04422887,-6.959477692,-0.1016386414,2.015259247,7.246097569
16.05416888,-7.085814972,-0.4333488464,2.099234619,7.402928544
16.06410787,-7.11530365,-0.8650511169,2.277663574,7.520878328
16.07404788,-7.12353653,-1.325643311,2.52973938,7.674743266
16.08398687,-7.263495483,-1.63340332,2.830913086,7.964950844
16.09392688,-7.456593933,-1.777254181,3.18148407,8.299473862
16.10386587,-7.605983276,-1.816921692,3.554508362,8.589919425
16.11380588,-7.666158142,-1.802701263,3.881877594,8.780016296
16.12374587,-7.708819427,-1.699865112,4.157005463,8.92166648
16.13368488,-7.780670013,-1.557660828,4.356540527,9.052324479
16.14362487,-7.851173401,-1.341809692,4.475243683,9.136147057
16.15356388,-7.998766479,-0.8976832581,4.458328857,9.201238864
16.16350387,-8.104895782,-0.3947291565,4.347259827,9.205640377
16.17344288,-8.333470459,-0.1234931946,4.148173828,9.309636221
16.18338287,-8.628057861,-0.08681945801,3.913761292,9.474621234
16.193322,-8.872948608,-0.4180805969,3.656596069,9.605972268
16.203262,-9.289981384,-1.038240967,3.368894348,9.936354842
16.213201,-9.79592926,-1.534159698,2.995720367,10.35800254
16.223141,-10.20832169,-1.934427338,2.654579773,10.72374163
16.23308,-10.53015244,-2.456391907,2.476899261,11.09292574
16.24302,-10.98385895,-2.936593323,2.834056549,11.71753448
16.252959,-11.41900406,-2.680475922,3.86361557,12.34933723
16.262899,-11.24835892,-1.78204422,5.420527954,12.61282614
16.272838,-10.86231171,-0.8767268372,7.17727478,13.04882136
16.282778,-10.89763824,-0.2644999695,8.301886139,13.70218205
16.292717,-11.88408691,0.1038839722,8.237220612,14.46008704
16.302657,-13.70415207,0.5245092773,7.316335602,15.5437338
16.312596,-15.30447418,1.059945831,5.934858398,16.44910208
16.322536,-15.96789459,1.275647278,4.277953949,16.58016356
16.332475,-15.29160095,0.9069639587,2.814746704,15.57492993
16.342415,-13.94095963,-0.3653901672,1.72471344,14.0519928
16.352354,-12.51532425,-1.625918884,0.9455836487,12.65587143
16.362294,-10.676548,-2.07333847,0.369282074,10.88226902
16.372233,-9.012458496,-2.086062012,0.002245330811,9.250733371
16.382173,-7.976313171,-1.787433014,-0.26210495,8.178336481
16.392112,-7.475005646,-1.320553894,-0.4745132446,7.605572616
16.402052,-7.456144867,-0.808768158,-0.7235952759,7.534705856
16.411991,-7.8418927,-0.4147874451,-1.035097504,7.920780049
16.421931,-8.671766968,-0.1410067749,-1.411864014,8.787080587
16.43187,-9.564660187,0.03652404785,-1.837279358,9.739592082
16.44181,-10.09156448,0.2421963501,-2.106868744,10.31199441
16.451749,-10.09036697,0.4900808716,-2.166145477,10.33188614
16.461689,-9.734856262,0.6710545349,-2.101180573,9.981618127
16.471628,-9.465865631,0.6740483093,-1.979034576,9.693994591
16.481568,-9.427695007,0.3879931641,-1.803749084,9.606533329
16.491507,-9.476792908,-0.08307723999,-1.532213745,9.600217946
16.501447,-9.498348083,-0.6221063232,-1.190474396,9.59285473
16.511387,-9.301357727,-1.143771515,-0.8258326721,9.407734501
16.521326,-8.926088104,-1.563498688,-0.426612854,9.072021578
16.531266,-8.528215485,-1.843566284,0.1273851013,8.72613448
16.541205,-8.293204193,-2.019749908,0.6851252747,8.563061492
16.551145,-8.138426056,-2.12483139,1.389261017,8.525194032
16.561084,-7.96358963,-2.037562866,2.671943665,8.643477609
16.571024,-7.923473053,-1.728006592,4.251608734,9.156615577
16.580963,-7.865244141,-1.290017395,5.714815979,9.807412092
16.590903,-7.189549255,-0.7667056274,8.311765594,11.01648326
16.600842,-6.463409271,-0.09819580078,8.610843658,10.7671691
16.610782,-7.719597015,0.1309776306,5.220543823,9.32005424
16.620721,-8.924890594,0.3999682617,3.320395203,9.530932328
16.630661,-8.769364014,0.7979905701,2.29218338,9.099046038
16.6406,-8.143665161,1.045276337,1.797611847,8.404956468
16.65054,-7.504793701,0.9114546204,1.848805389,7.78272185
16.660479,-7.003186798,0.5523513794,2.410287781,7.4269243
16.670419,-6.827751617,0.1383123779,3.149001617,7.520208351
16.680358,-7.055877228,-0.2085163879,3.676953735,7.959200419
16.690298,-7.5552388,-0.5001100159,4.003724213,8.56513578
16.700237,-7.993527374,-0.6442602539,4.250411224,9.076207729
16.710177,-8.268655243,-0.5306465149,4.35384613,9.359926355
16.720116,-8.408165131,-0.1215472412,4.239034882,9.41708189
16.730056,-8.361162872,0.2847079468,3.970942383,9.260587811
16.739995,-8.399034119,0.3011737061,3.570525055,9.1314363
16.749935,-8.710386658,0.1914518738,3.027454376,9.223500938
16.759874,-9.221723328,0.1880090332,2.633323975,9.59218034
16.769814,-10.00699036,0.505947876,2.747686157,10.38968808
16.779753,-10.83027832,1.016536102,3.420087891,11.40286259
16.789693,-11.24252106,1.284628601,4.428391113,12.15134553
16.799632,-11.35658386,0.979712677,5.603896637,12.70179088
16.809572,-11.17022141,0.2384541321,6.356980591,12.85464542
16.819511,-10.8968898,-0.7439529419,6.723119202,12.8255996
16.829451,-11.1039093,-1.511257324,6.98073349,13.20270202
16.83939,-12.04290665,-1.851350098,6.967411194,14.03580836
16.84933,-13.10000839,-2.195933533,6.174959106,14.64795084
16.859269,-14.06624908,-2.449506226,4.528981934,14.97902271
16.869209,-15.00180359,-2.102228394,2.523153076,15.35707578
16.879149,-14.87786133,-1.248403931,1.060993652,14.96779802
16.889088,-12.87981628,-0.7006929016,0.4680766296,12.90735193
16.899028,-10.64002396,-1.033301239,0.2453398132,10.69289544
16.908967,-9.380692749,-1.358125763,-0.07514373779,9.478794682
16.918907,-8.637937317,-1.328637085,-0.4546046448,8.751337211
16.928846,-8.127648468,-1.350791016,-0.8144563293,8.279290133
16.938786,-8.458161163,-1.422342224,-1.263372803,8.669467025
16.948725,-9.56540863,-1.239871674,-1.692530365,9.792802616
16.958665,-10.46234344,-0.8554710388,-1.929038544,10.67303381
16.968604,-10.94014984,-0.6273454285,-1.997146912,11.13862813
16.978544,-11.09417953,-0.5261558533,-1.849254456,11.25954713
16.988483,-11.05930206,-0.5255570984,-1.489103394,11.17147266
16.998423,-10.91260712,-0.5944139099,-0.9940827942,10.97390188
17.008362,-10.65229843,-0.6800358582,-0.4924758911,10.68533776
17.018302,-10.4138443,-0.6786886597,0.0462538147,10.43603904
17.028241,-10.21266266,-0.5234614563,0.7780819702,10.25562782
17.038181,-10.09440857,-0.3112028503,1.695224762,10.24049406
17.04812,-9.826914825,-0.1362167358,2.453398132,10.12946062
17.05806,-9.343420258,-0.03173400879,2.798280945,9.753506313
17.067999,-8.746012573,0.03697311401,2.882406006,9.208820083
17.077939,-8.298592987,0.1992356873,2.812651062,8.764550554
17.087878,-7.870932312,0.3390449524,2.62329483,8.303505447
17.097818,-7.412585449,0.3547622681,2.383044434,7.794304336
17.107757,-7.057523804,0.1719923401,2.046544189,7.350276643
17.117697,-7.030879211,-0.09250762939,1.717528381,7.238212755
17.127636,-7.199279022,-0.3365002441,1.53041748,7.367837438
17.137576,-7.317233734,-0.577199707,1.490300903,7.48973069
17.147515,-7.3084021,-0.8560697937,1.532213745,7.516200882
17.157455,-7.389982452,-1.144220581,1.591490479,7.645516551
17.167394,-7.544610901,-1.505269775,1.748813324,7.889571521
17.177334,-7.657775574,-1.872755585,2.030826874,8.140822932
17.187273,-7.746690674,-2.065554657,2.389481049,8.365844376
17.19721267,-7.730823669,-2.114802246,2.889890442,8.519946591
17.20715167,-7.716154175,-2.039059753,3.459755402,8.69866124
17.21709167,-7.773185577,-1.81602356,4.049379272,8.950856276
17.22703067,-7.827073517,-1.576521606,4.700375519,9.265097422
17.23697067,-7.825127563,-1.274749146,5.311704254,9.543155078
17.24690967,-7.727979584,-0.8890013123,5.714516602,9.652341258
17.25684967,-7.775730286,-0.5116360474,5.648503876,9.624414214
17.26678867,-8.082891541,-0.1948947144,5.047653351,9.531522646
17.27672867,-8.302484894,-0.06661148071,4.378544769,9.386551379
17.28666767,-8.526269531,-0.1580712891,3.764072571,9.321507441
17.29660767,-8.978778534,-0.4077520752,3.187770996,9.536593188
17.30654767,-9.580377502,-0.5990542603,2.694546661,9.970109368
17.31648667,-10.12479538,-0.7491920471,2.369123383,10.42523457
17.32642667,-10.64062271,-1.157393188,2.242786102,10.9358356
17.33636567,-11.13249985,-1.610500946,2.448009338,11.5116904
17.34630567,-11.70685547,-1.656156006,3.338507538,12.2857214
17.35624467,-11.89516388,-1.148112488,4.868625641,12.90413118
17.36618467,-11.38517441,-0.3511697388,6.716682587,13.22343909
17.37612367,-10.48539551,0.4138893127,8.441695404,13.46762951
17.38606367,-10.08123596,1.00980011,9.007069702,13.55648625
17.39600267,-10.70034851,1.290765839,8.635542297,13.81072502
17.40594267,-11.986474,1.133442993,7.980055389,14.44442924
17.41588167,-13.61314133,0.4489164734,6.778054962,15.21384803
17.42582167,-14.9883316,-0.4135899353,5.140310669,15.85067616
17.43576067,-15.59861252,-1.391506348,3.519331512,16.05112758
17.44570067,-14.76454697,-2.436932373,2.279609528,15.13694507
17.45563967,-12.49496658,-3.043620758,1.49883316,12.94736723
17.46557967,-10.07240433,-2.952610016,0.9017248535,10.53491066
17.47551867,-8.345894623,-2.433190155,0.4188290405,8.70343548
17.48545867,-7.327262878,-1.714833984,0.1038839722,7.525970287
17.49539767,-6.976542206,-1.024469604,-0.2128573608,7.05457209
17.50533767,-7.173682251,-0.3282673645,-0.6375242615,7.209432272
17.51527667,-7.824229431,0.3399430847,-1.057251434,7.902651965
17.52521667,-8.78852417,0.8509803772,-1.504521332,8.956891711
17.53515567,-9.805659027,1.149160309,-1.955982513,10.06466025
17.54509567,-10.50201096,1.219064941,-2.306703186,10.8212399
17.55503467,-10.84434906,1.0086026,-2.568508759,11.18992507
17.56497467,-11.06918152,0.6661148071,-2.736459503,11.42185182
17.57491367,-11.07591751,0.4002676392,-2.852767639,11.44440676
17.58485367,-10.89224945,0.1426533508,-2.798131256,11.24682118
17.59479267,-10.63388672,-0.2784210205,-2.465822296,10.91958537
17.60473267,-10.31460068,-0.7640112305,-1.793121185,10.4971417
17.61467167,-9.84278183,-1.190175018,-1.090332642,9.974251651
17.62461167,-9.357790375,-1.586550751,-0.4739144897,9.503156261
17.63455067,-9.07637558,-1.910327454,0.1296304321,9.276138674
17.64449067,-8.822802887,-2.225871277,0.7723937988,9.131973823
17.65442967,-8.358318787,-2.267484741,2.002236328,8.888865524
17.66436967,-7.903714142,-1.867067413,3.542084198,8.860078918
17.67430867,-7.456294556,-1.367256775,5.33445694,9.269420178
17.68424867,-6.346053314,-0.79215271,8.545729065,10.67377083
17.69418767,-4.401596832,0.03981719971,10.86306015,11.72099466
17.70412767,-5.414390717,0.6884184265,6.467600555,8.462824807
17.71406667,-7.208709412,0.9065148926,3.300486603,7.980004539
17.72400667,-7.68516861,1.28477829,1.681303711,7.971151359
17.73394567,-7.74594223,1.783690796,0.7993377686,7.988749261
17.74388567,-7.51661911,2.276915131,0.5044509888,7.870093783
17.75382467,-6.978637848,2.571053467,0.7448510742,7.474389959
17.76376467,-6.708000641,2.583028564,1.469344482,7.33677602
17.77370467,-6.930737457,2.081271973,2.47944397,7.649474304
17.78364367,-7.406148834,1.332079926,3.365900574,8.243467969
17.79358367,-7.910300446,0.6378236389,4.033212891,8.90204911
17.80352267,-8.394842834,-0.1083746338,4.656367035,9.6003586
17.81346267,-8.82250351,-0.9629475403,5.325625305,10.35017493
17.82340167,-9.105115814,-1.590592346,5.88321579,10.95652071
17.83334167,-9.211095428,-1.676663361,6.024372253,11.13321787
17.84328067,-9.184750214,-1.087937622,5.382806396,10.7013013
17.85322067,-9.253756714,-0.5023553467,4.309687958,10.22045911
17.86315967,-9.225465546,-0.2796185303,3.412304077,9.840285574
17.87309967,-9.427994385,-0.1785786438,2.911595306,9.868959199
17.88303867,-9.926457825,0.08352630615,2.943029938,10.35388656
17.89297867,-10.41833496,0.4604425049,3.756438446,11.08442784
17.90291767,-10.79360458,0.6465055847,4.957840118,11.89537927
17.91285767,-10.99568436,0.7360194397,5.830076294,12.46742109
17.92279667,-11.24955643,0.7328759766,6.310726776,12.91955492
17.93273667,-11.31916168,0.7978408813,6.352489929,13.0043877
17.94267567,-11.33398087,0.8638536072,6.187532959,12.94182867
17.95261567,-11.47603546,0.6728507996,6.236331482,13.07837713
17.96255467,-11.91731781,0.1803749084,6.212530975,13.44063019
17.97249467,-12.80437317,-0.4793032837,5.466183014,13.93057288
17.98243367,-13.69621857,-1.063837738,3.950584717,14.29423917
17.99237367,-14.4043959,-1.48835495,2.437381439,14.68477613
18.00231267,-13.59128677,-1.397643585,1.481020203,13.74299475
18.01225267,-11.34924911,-1.041833496,1.039139099,11.44424233
18.02219167,-9.777966614,-0.8689430237,0.6804849243,9.840058578
18.03213167,-8.683742065,-0.730480957,0.2724334717,8.718669548
18.04207067,-7.917635193,-0.6298901367,-0.1561253357,7.944185531
18.05201067,-7.746540985,-0.6271957397,-0.5680686951,7.792623035
18.06194967,-8.292306061,-0.6864724731,-0.8764274597,8.366702418
18.07188967,-9.328002319,-0.6788383484,-1.081051941,9.414941427
18.08182867,-10.36504578,-0.6065386963,-1.194066925,10.45121328
18.09176867,-11.16198853,-0.6176156616,-1.214723969,11.24486511
18.10170767,-11.55611893,-0.7183561707,-1.082099762,11.62888043
18.11164767,-11.41645935,-0.8352630615,-0.789458313,11.47416458
18.12158667,-11.0163414,-0.892893219,-0.4436773682,11.06136907
18.13152667,-10.50530411,-0.8813671875,0.03652404785,10.54227473
18.14146567,-10.12763947,-0.9042695618,0.7210505676,10.19346352
18.15140567,-10.03872437,-0.8445437622,1.505120087,10.18600155
18.16134467,-10.09366013,-0.6429130554,2.166145477,10.34347612
18.17128467,-9.7900914,-0.2574645996,2.681523743,10.1539523
18.18122367,-9.074878693,0.1866618347,3.196752319,9.623278616
18.19116379,-8.375682678,0.5051994324,3.625610504,9.140696818
18.20110279,-7.802973633,0.6809339905,3.935765533,8.765860993
18.21104279,-7.323221283,0.8475375366,4.091292114,8.431284659
18.22098179,-6.871460724,0.9087602234,3.960613861,7.983062055
18.23092179,-6.679110718,0.8894503784,3.488196259,7.587434026
18.24086079,-6.840475159,0.6542893982,2.874322815,7.448619111
18.25080079,-7.171287231,0.2884501648,2.44202179,7.581163135
18.26074079,-7.455097046,-0.1353186035,2.193837891,7.772368222
18.27067979,-7.621401215,-0.6331832886,2.145338745,7.94286824
18.28061979,-7.706424408,-1.172362061,2.258952484,8.115804106
18.29055879,-7.727380829,-1.572330322,2.533780975,8.282794405
18.30049879,-7.585924988,-1.851649475,2.973865814,8.355760982
18.31043779,-7.360643463,-2.021097107,3.577410736,8.429814546
18.32037779,-7.170688477,-2.064955902,4.286486206,8.605624911
18.33031679,-7.047344971,-1.897154846,4.997208252,8.845131879
18.34025679,-6.921606445,-1.594184875,5.40346344,8.924543593
18.35019579,-7.089706879,-1.189875641,5.222639465,8.885702597
18.36013579,-7.652087402,-0.6857240295,4.714595947,9.013993233
18.37007479,-8.118816833,-0.1106199646,4.222419434,9.151844045
18.38001479,-8.310717773,0.3514691162,3.83786911,9.160829643
18.38995379,-8.459358673,0.6111790466,3.543730774,9.191970234
18.39989379,-8.715176697,0.6185137939,3.331322479,9.350645626
18.40983279,-9.218280487,0.3826043701,3.134930878,9.744273849
18.41977279,-9.931098175,0.01990859985,2.97431488,10.36695019
18.42971179,-10.56607773,-0.4857398987,2.9077034,10.96962538
18.43965179,-10.95107712,-1.280137939,3.192111969,11.47843291
18.44959079,-11.14357681,-2.128872986,3.962859192,12.01730658
18.45953079,-11.2167746,-2.699636078,5.225782928,12.66542042
18.46946979,-10.82548828,-2.613265686,6.762187958,13.02871982
18.47940979,-9.908195801,-1.815125427,8.033643951,12.8843494
18.48934879,-9.36302948,-0.9237290955,8.757688293,12.85366488
18.49928879,-9.897268524,-0.06421646118,8.901539154,13.31155315
18.50922779,-11.24925705,0.7473957825,8.323740692,14.01388753
18.51916779,-12.84194504,1.135688324,7.26154953,14.79646721
18.52910679,-14.08795395,1.132095795,5.990093536,15.35035205
18.53904679,-14.64554443,0.8192463684,4.636009369,15.38361854
18.54898579,-14.39242081,0.06391708374,3.356170807,14.77869225
18.55892579,-13.44728622,-0.9562115479,2.379601593,13.68964393
18.56886479,-12.08556793,-1.857187958,1.695374451,12.34440739
18.57880479,-10.75902649,-2.489323425,1.016236725,11.08991069
18.58874379,-9.543105011,-2.802771606,0.4385879517,9.955839559
18.59868379,-8.524922333,-2.644850006,-0.01347198486,8.925789255
18.60862279,-7.834408264,-1.995650024,-0.37676651,8.093363014
18.61856279,-7.359296265,-1.054557037,-0.7141648865,7.468692224
18.62850179,-7.046147461,-0.1041833496,-1.136736145,7.138012137
18.63844179,-7.003785553,0.6703060913,-1.644629974,7.225450165
18.64838079,-7.547754364,1.328786774,-2.193688202,7.971608254
18.65832079,-8.580456848,1.80075531,-2.627186737,9.152544431
18.66825979,-9.608968048,2.022743683,-3.030448151,10.27654489
18.67819979,-10.45411057,2.111359406,-3.326981506,11.1720666
18.68813879,-10.95197525,2.05582489,-3.519181824,11.6857528
18.69807879,-11.19566849,1.738335114,-3.500620422,11.85829436
18.70801779,-11.07247467,1.084045715,-3.154240723,11.56391305
18.71795779,-10.42896286,0.3839515686,-2.47704895,10.72597113
18.72789679,-9.631421356,-0.220790863,-1.678160248,9.779020798
18.73783679,-9.168134766,-0.7131170654,-1.053359528,9.255960097
18.74777579,-8.86456604,-1.217568054,-0.5281018066,8.96336402
18.75771579,-8.741372223,-1.739832001,0.2841091919,8.917360695
18.76765479,-8.674161987,-2.221081238,1.208137665,9.035147186
18.77759479,-8.699309692,-2.449057159,2.05821991,9.268880153
18.78753379,-8.841364288,-2.396965485,3.075803833,9.663112088
18.79747379,-8.95348114,-1.932182007,4.313280487,10.12435383
18.80741379,-8.593479767,-1.163680115,5.538782043,10.28980818
18.81735279,-7.993377686,-0.4555027771,6.493796082,10.30878059
18.82729279,-7.183861084,0.1751358032,7.264243927,10.21801216
18.83723179,-5.784570923,1.102158051,7.989635468,9.925234911
18.84717179,-5.721402283,1.764081573,6.564000092,8.884397846
18.85711079,-7.362589417,1.902843018,4.067641296,8.624050103
18.86705079,-8.24560318,2.126178589,2.593357086,8.90146663
18.87698979,-8.284971313,2.182012482,1.958527222,8.788501409
18.88692979,-8.064779205,2.009720764,2.037263489,8.557457783
18.89686879,-7.84428772,1.325792999,2.834206238,8.445312422
18.90680879,-7.397167511,0.4439767456,3.870201874,8.360243123
18.91674779,-7.094646606,-0.4195774841,4.725822601,8.534837725
18.92668779,-7.129224701,-1.052910461,5.373525696,8.98939618
18.93662679,-7.416926422,-1.363364868,5.901178436,9.575670642
18.94656679,-7.744595032,-0.9496252441,6.195316772,9.963056269
18.95650579,-8.203690338,0.136665802,5.929170227,10.12295768
18.96644579,-8.760682068,0.9789642334,4.820425873,10.04711037
18.97638479,-9.05182663,1.358874207,3.410358124,9.767939751
18.98632479,-9.175319824,1.500928802,2.236798553,9.562559747
18.99626379,-9.36183197,1.632056122,1.569935303,9.631832737
19.00620379,-9.831255798,1.780247955,1.721120911,10.13830018
19.01614279,-10.46758255,1.472937012,3.040177917,10.99920496
19.02608279,-10.66846481,0.8123606873,4.921465759,11.77696466
19.03602179,-10.82878143,0.3311114502,6.61684021,12.69467276
19.04596179,-10.99089432,0.4080514526,7.491621094,13.30754111
19.05590079,-11.29925308,0.5083428955,7.575746155,13.61335603
19.06584079,-11.98123489,0.3929328918,7.354206848,14.06373863
19.07577979,-13.08818298,0.3857478333,6.823560333,14.76517222
19.08571979,-14.13645309,0.2579136658,5.585784302,15.2021976
19.09565879,-14.8503186,-0.1968406677,3.811523895,15.33291959
19.10559879,-15.33441193,-0.5680686951,2.447260895,15.53885379
19.11553779,-15.00285141,-0.3463796997,1.557960205,15.08750375
19.12547779,-13.48021774,0.3951782227,0.9412426758,13.51881555
19.13541679,-11.61794037,0.7849676514,0.5593867493,11.65785684
19.14535679,-9.770033112,0.4176315308,0.2375559998,9.781840111
19.15529579,-8.119415588,-0.3294648743,-0.09744735718,8.126681524
19.16523579,-6.991511078,-1.064885559,-0.366587677,7.081637871
19.17517479,-6.804549866,-1.751807098,-0.6382727051,7.055361014
19.18511479,-7.528893585,-2.324366455,-0.9812095642,7.940383507
19.1950535,-8.588540039,-2.631976776,-1.337019653,9.0817368
19.2049935,-9.524094543,-2.469265137,-1.733844452,9.99058876
19.2149325,-10.39782761,-1.772314453,-1.985471191,10.73303374
19.2248725,-10.92398346,-0.7512876892,-1.682950287,11.07836493
19.2348115,-10.87638245,0.1862127686,-1.031504974,10.92677321
19.2447515,-10.56996964,0.8175997925,-0.1889071655,10.60322656
19.2546905,-10.36459671,1.210382996,0.7295828247,10.46050587
19.2646305,-10.17419266,1.499731293,1.568288727,10.40302455
19.2745695,-10.06402176,1.618883514,2.294877777,10.44853013
19.2845095,-10.00235001,1.472487946,2.946921844,10.5308867
19.2944485,-9.774224396,1.112486572,3.433859253,10.41942792
19.3043885,-9.365125122,0.7231462097,3.706592102,10.0978876
19.3143275,-8.859776001,0.3418890381,3.684737549,9.601552463
19.3242675,-8.408763885,0.09520202637,3.370241547,9.059519943
19.3342065,-8.069269867,0.0592767334,2.914888458,8.579813788
19.3441465,-7.684120789,0.1681004333,2.465073853,8.07158963
19.3540855,-7.328310699,0.1869612122,2.14354248,7.637661067
19.3640255,-7.087760925,0.1440005493,1.943708038,7.350856551
19.3739655,-6.997498627,0.09056167603,1.82410675,7.231912187
19.3839045,-7.05333252,-0.05598358154,1.678010559,7.25040366
19.3938445,-7.135811005,-0.3823049927,1.489253082,7.299577422
19.4037835,-7.386240234,-0.7896080017,1.419498138,7.562737637
19.4137235,-7.625143433,-1.217118988,1.533261566,7.872425422
19.4236625,-7.64295639,-1.528920593,1.944157104,8.033189118
19.4336025,-7.617808685,-1.67561554,2.578687592,8.215127893
19.4435415,-7.53188736,-1.652862854,3.281326447,8.380237828
19.4534815,-7.490722961,-1.554217987,4.018244019,8.641343011
19.4634205,-7.557783508,-1.280736694,4.778962097,9.033208553
19.4733605,-7.65238678,-0.7559280396,5.495821381,9.451693143
19.4832995,-7.56930954,0.0722996521,6.01539093,9.668743568
19.4932395,-7.329807587,0.9023236084,5.73457489,9.350166647
19.5031785,-7.692802734,1.174158325,4.771926727,9.12847996
19.5131185,-8.342900848,0.7146139526,4.009412384,9.283859937
19.5230575,-8.961564331,-0.3064128113,3.429667969,9.600320122
19.5329975,-9.73156311,-1.254840546,2.956501923,10.24787046
19.5429365,-10.40621017,-1.773062897,2.620899811,10.87667587
19.5528765,-10.85213287,-2.054777069,2.439028015,11.31104568
19.5628155,-11.18324432,-2.234702911,2.584076385,11.69342984
19.5727555,-11.42184814,-1.841620331,3.223696289,12.01009568
19.5826945,-11.20554794,-0.7291337585,4.374652863,12.05128742
19.5926345,-10.62206131,0.4095483398,5.982459412,12.1977759
19.6025735,-10.26744873,1.296753387,7.938292236,13.04295045
19.6125135,-10.58733353,1.823957062,9.10331955,14.08150835
19.6224525,-12.18825439,1.91197403,8.483009491,14.97232914
19.6323925,-14.42520264,1.833686829,6.764882355,16.03784623
19.6423315,-15.6466626,1.644779663,4.988376617,16.50476452
19.6522715,-15.4290152,0.9895921326,3.472179565,15.84581438
19.6622105,-14.3353894,-0.1806742859,2.375709686,14.53203458
19.6721505,-13.01244049,-1.429676971,1.507215729,13.17722592
19.6820895,-11.5896492,-1.991907806,0.6532415771,11.77770733
19.6920295,-10.10817993,-1.718426514,-0.05972579956,10.25338278
19.7019685,-8.730744324,-0.9654922485,-0.5776487732,8.80293984
19.7119085,-7.819289703,-0.1922003174,-1.005608826,7.886030785
19.7218475,-7.69444931,0.4656816101,-1.403481445,7.835251733
19.7317875,-8.232131195,0.8937913513,-1.643731842,8.442079208
19.7417265,-9.277706909,0.9906399536,-1.827549591,9.50774161
19.7516665,-10.41623932,0.8584648132,-2.016606445,10.64432736
19.7616055,-11.15166,0.6364764404,-2.152374115,11.37529505
19.7715455,-11.36107452,0.5147795105,-2.163600769,11.57670854
19.7814845,-11.03071152,0.5328918457,-2.061962128,11.23442291
19.7914245,-10.22059616,0.5640270996,-1.933229828,10.41710565
19.8013635,-9.409432983,0.5249583435,-1.728755035,9.581315374
19.8113035,-9.021140442,0.3209326172,-1.42638382,9.138848036
19.8212425,-8.976383514,-0.06107299805,-1.085542603,9.04199058
19.8311825,-8.870703278,-0.4552033997,-0.719254303,8.911448453
19.8411215,-8.758586426,-0.7493417358,-0.2522254944,8.794200755
19.8510615,-8.67146759,-1.054107971,0.2514770508,8.738920671
19.8610005,-8.43166626,-1.25783432,1.016985168,8.585417982
19.8709405,-8.197702789,-1.325194244,1.925595703,8.524458318
