Time (s),Acceleration x (m/s^2),Acceleration y (m/s^2),Acceleration z (m/s^2),Absolute acceleration (m/s^2)
0.005286999978,-1.601669312,-9.353000336,1.494641876,9.606139402
0.01522599999,-1.372645569,-9.246272278,1.888772278,9.536517583
0.02516399999,-1.541793823,-9.383237457,2.33544342,9.791658151
0.03510299997,-2.228565674,-9.736353149,2.582878876,10.31670204
0.04504199998,-3.93845993,-10.10368927,1.607806549,10.96271159
0.05498099999,-5.377866669,-10.12359787,0.286204834,11.46693494
0.06491999998,-6.265520782,-9.83110611,-0.1553768921,11.65896822
0.07485799998,-6.948849792,-9.469009094,0.0940045166,11.74553036
0.08479699999,-7.522157593,-9.245074768,0.5243595886,11.93018086
0.094736,-7.979306946,-9.081315308,0.8937913513,12.12181876
0.104675,-8.117469635,-8.923693085,1.490450592,12.15512462
0.114614,-7.8418927,-8.936716003,2.428250427,12.13493198
0.124552,-6.905290375,-9.336983643,3.194506989,12.04438349
0.134491,-5.852080536,-10.07569748,3.6190242,12.20097793
0.14443,-5.197192383,-11.08055786,3.38745575,12.69899317
0.154369,-5.264402618,-12.06805435,2.767145691,13.45395726
0.164308,-5.720803528,-12.74195297,2.888543243,14.26284125
0.174247,-5.934858398,-12.75288025,3.718716888,14.54947951
0.184185,-6.020031281,-11.90698929,4.03560791,13.93927192
0.194124,-6.108647003,-10.83297272,1.769320679,12.56182159
0.204063,-5.875881042,-9.836644592,-0.4466711426,11.46669394
0.214002,-5.55210434,-9.303902435,0.5619314575,10.84915804
0.223941,-4.800666962,-9.55612793,2.872825928,11.07335148
0.233879,-3.61094101,-10.18257523,2.598296814,11.1119251
0.243818,-2.703378296,-10.83551743,0.4209246826,11.17559259
0.253757,-2.065105591,-11.15824631,-1.825753326,11.49367204
0.263696,-2.01016983,-11.24042542,-3.376528473,11.90751405
0.273635,-2.496059418,-11.57198593,-3.996539154,12.49453866
0.283574,-3.313210144,-12.31833389,-3.683240662,13.27723515
0.293512,-3.991898804,-12.81230667,-2.932402039,13.73642748
0.303451,-4.372706909,-12.90571243,-2.06286026,13.78163167
0.31339,-4.443359985,-12.65513351,-1.057251434,13.4541307
0.323329,-4.393962708,-11.97689392,-0.1197509766,12.75802636
0.333268,-4.596790924,-11.02936432,0.9503736877,11.9866832
0.343206,-4.175866241,-10.25068359,1.060993652,11.11935612
0.353145,-3.777694244,-9.852960663,-0.1981878662,10.55419756
0.3630847083,-3.707340546,-9.625882874,-1.109792175,10.37466306
0.3730237083,-3.751798096,-9.510622559,-1.355880432,10.31340594
0.3829627083,-3.714076538,-9.216933289,-0.8527766418,9.973637841
0.3929017083,-3.695664825,-8.6036586,-0.3752696228,9.371323658
0.4028397083,-3.762875061,-8.066126404,0.1636097717,8.902156595
0.4127787083,-3.411106567,-7.697443085,0.5233117676,8.435646582
0.4227177083,-2.736609192,-7.329957275,0.2742297363,7.828953026
0.4326567083,-1.945055237,-7.085216217,-0.03727249146,7.347442954
0.4425957083,-1.369951172,-6.996899872,-0.2273771667,7.133377489
0.4525337083,-1.132544861,-7.030579834,-0.1913021851,7.123784611
0.4624727083,-1.115630035,-7.05557785,-0.01766326904,7.143257042
0.4724117083,-1.178050232,-7.040758667,0.1094224548,7.139471845
0.4823507083,-1.25199646,-7.029981079,-0.07259902954,7.140966302
0.4922897083,-1.091829529,-7.059619446,-0.3109034729,7.150313239
0.5022277083,-0.5712121582,-7.093898163,-0.3254232788,7.124294687
0.5121667083,0.2415975952,-7.118447113,-0.2237846375,7.126060501
0.5221057083,0.9398954773,-7.151827698,-0.1041833496,7.214076316
0.5320447083,1.44509491,-7.176825714,0.1821711731,7.32313546
0.5419837083,1.850751343,-7.220085754,0.7499404907,7.491150083
0.5519227083,1.953587494,-7.281757507,1.536554718,7.694250899
0.5618607083,1.303339691,-7.23580307,2.211950226,7.677777297
0.5717997083,0.043409729,-7.041207733,2.539469147,7.485278505
0.5817387083,-1.309177551,-6.872209167,2.978506165,7.603466556
0.5916777083,-2.591261444,-6.927294617,3.370540924,8.127889806
0.6016167083,-3.931125183,-7.165299683,3.44822937,8.870487615
0.6115547083,-5.605393524,-7.391329651,3.450474701,9.897371683
0.6214937083,-7.414531403,-7.588619385,3.998634796,11.3380554
0.6314327083,-8.902586975,-7.884853363,4.939578094,12.87735995
0.6413717083,-9.779912567,-8.075856171,5.458698578,13.80809664
0.6513107083,-10.82009949,-8.179740143,6.021528168,14.84053581
0.6612497083,-12.16190918,-8.33332077,6.674769745,16.18359729
0.6711877083,-13.63095428,-8.685837708,6.820716248,17.54334237
0.6811267083,-14.26668228,-8.981023865,5.267546082,17.66193802
0.6910657083,-13.6957695,-8.866212616,2.691403198,16.5356427
0.7010047083,-12.02030365,-8.23153244,0.6798861694,14.58451478
0.7109437083,-9.579329681,-7.290439453,0.2022294617,12.0397243
0.7208817083,-8.126600647,-6.531667328,0.7979905701,10.45662972
0.7308207083,-7.676187286,-6.443949738,1.369352417,10.11550619
0.7407597083,-7.24164093,-7.567363586,1.734293518,10.61669106
0.7506987083,-6.454877014,-9.400002594,1.591789856,11.51343915
0.7606377083,-5.124144287,-10.95901062,0.9044192505,12.13155978
0.7705767083,-3.363804932,-11.40208923,0.8707392883,11.91977388
0.7805147083,-1.560953979,-10.42566971,0.2712359619,10.54536558
0.7904537083,-0.1582209778,-9.197324066,0.3598516846,9.205720889
0.8003927083,0.07484436035,-8.85289032,0.1435514832,8.854370431
0.8103317083,-0.2406994629,-9.775122528,0.2878514099,9.78232156
0.8202707083,-0.56866745,-11.13115265,1.105151825,11.200326
0.8302087083,-1.310225372,-11.93707672,1.077309723,12.0569933
0.8401477083,-1.900148621,-11.62722107,0.05688171387,11.78159879
0.8500867083,-2.090253296,-10.45650558,-0.8970845032,10.70104801
0.8600257083,-2.147883453,-9.331744537,-1.165027313,9.646354134
0.8699647083,-2.073488159,-8.495134277,-1.128203888,8.817000825
0.8799037083,-1.940414886,-7.962691498,-1.151106262,8.276153179
0.8898417083,-1.848805389,-7.786208496,-1.369801483,8.119081242
0.8997807083,-1.929038544,-7.989485779,-1.686393127,8.390291681
0.9097197083,-2.098336487,-8.42223587,-2.119891663,8.934820296
0.9196587083,-2.378703461,-8.961564331,-2.433639221,9.585951454
0.9295977083,-2.937192078,-9.455387421,-2.545007629,10.2229405
0.9395367083,-3.585344238,-9.71404953,-2.446213074,10.63961512
0.9494747083,-4.021088104,-9.711504822,-2.216291199,10.74217958
0.9594137083,-4.187092896,-9.455836487,-1.785936127,10.49448228
0.9693527083,-4.446503448,-8.829089813,-0.1285826111,9.886392332
0.9792917083,-4.692891083,-8.283474426,1.230291595,9.599624612
0.9892307083,-4.626279602,-8.318052521,0.9258247375,9.562929056
0.9991687083,-4.454137573,-8.588989105,0.4128414917,9.684033946
1.009107708,-4.185146942,-8.817114716,0.07708969116,9.760272007
1.019046708,-3.83906662,-8.990304565,-0.02559677124,9.775718075
1.028985708,-3.465892639,-9.027277679,0.09610015869,9.670232124
1.038924708,-3.088527374,-8.934919739,0.2794688416,9.457795457
1.048863708,-2.716550903,-8.758287048,0.5180726624,9.184532656
1.058801708,-2.489024048,-8.538843384,0.6580316162,8.918525251
1.068740708,-2.502645721,-8.350984039,0.5077441406,8.732695697
1.078679708,-2.661465454,-8.168513489,0.2139051819,8.593821409
1.088618708,-2.755320282,-8.104596405,0.04445755005,8.560271562
1.098557708,-2.683769073,-8.180338898,0.02245330811,8.609359156
1.108495708,-2.451452179,-8.588839417,0.144150238,8.933003952
1.118434708,-2.437082062,-9.265282745,0.3571572876,9.587095215
1.128373708,-2.828069,-9.780960388,0.6457571411,10.20206659
1.138312708,-3.532055054,-9.960736542,0.9624984741,10.61216701
1.148251708,-3.889960785,-9.908195801,1.194366302,10.71123941
1.158190708,-3.850892029,-9.448352051,0.9782157898,10.24976254
1.168128708,-3.939208374,-9.055568848,0.3773652649,9.88246398
1.178067708,-4.019740906,-8.716074829,-0.3100053406,9.603352575
1.188006708,-3.948489075,-8.557554474,-0.9574090576,9.473063741
1.197945708,-4.01569931,-8.786877594,-1.034798126,9.716268109
1.207884708,-4.120481415,-9.108408966,-0.7072792053,10.02206191
1.217823708,-4.111051025,-9.250613251,-0.5131329346,10.13597018
1.227761708,-4.01809433,-9.079069977,-0.4550537109,9.938896698
1.237700708,-3.982169037,-8.745862885,-0.4331991577,9.619534778
1.247639708,-4.199666748,-8.539142761,-0.5590873718,9.532404659
1.257578708,-4.687651978,-8.536448364,-0.7846682739,9.770401017
1.267517708,-5.287454681,-8.647218018,-1.024020538,10.18725549
1.277455708,-5.68427948,-8.794212341,-1.209335175,10.54095325
1.287394708,-6.069578247,-8.911119232,-1.206491089,10.84912194
1.297333708,-6.442153473,-8.964109039,-1.041534119,11.08789365
1.307272708,-6.698570251,-8.878936157,-0.7843688965,11.14995898
1.317211708,-6.762487335,-8.772956543,-0.4411326599,11.08560325
1.327150708,-6.468648376,-8.872050476,-0.03532653809,10.97988795
1.337088708,-5.846691742,-9.248667297,0.4020639038,10.94912355
1.347027708,-5.039869537,-9.64968338,0.9017248535,10.92381719
1.356966333,-4.269721069,-10.09156448,1.475631409,11.05656727
1.366905333,-3.787274323,-10.66666855,2.059567108,11.50491553
1.376844333,-3.713477783,-11.36107452,2.354304199,12.18222803
1.386783333,-4.17137558,-11.99395844,2.185455322,12.88532608
1.396721333,-4.864284668,-12.39901611,1.877695312,13.4507474
1.406660333,-5.695655823,-12.39602234,1.885179749,13.77155648
1.416599333,-6.735094299,-11.94980026,1.923200684,13.85127873
1.426538333,-7.680528259,-11.34625534,1.983674927,13.84424035
1.436477333,-8.313112793,-10.61607376,2.323318634,13.68234906
1.446415333,-8.329428864,-9.621242523,2.040257263,12.88838014
1.456354333,-7.822582855,-8.621022491,1.791474609,11.77812432
1.466293333,-7.213349762,-8.231682129,3.143313446,11.38742398
1.476232333,-6.102210388,-8.452323303,4.667294312,11.42201283
1.486171333,-4.451293488,-8.900191956,3.78053833,10.64518204
1.496110333,-2.965932312,-9.608818359,0.8608598328,10.09292943
1.506048333,-2.109413452,-10.28062134,-2.4325914,10.77303584
1.515987333,-2.072440338,-10.72474777,-4.303700409,11.74040293
1.525926333,-2.449805603,-11.05121887,-4.248465271,12.09051046
1.535865333,-2.939886475,-11.61464722,-2.586172028,12.25688575
1.545804333,-3.745361481,-12.09559708,-0.7140151978,12.68231126
1.555743333,-4.249213715,-12.09095673,0.2775228882,12.81889507
1.565681333,-4.404291229,-11.90399551,0.2951861572,12.69606338
1.575620333,-4.017794952,-11.74293045,-0.6480024719,12.42815349
1.585559333,-3.497626648,-11.83947968,-1.895358582,12.48995818
1.595498333,-3.207829285,-11.99201248,-2.578088837,12.67852807
1.605437333,-3.00125885,-11.93288544,-2.374961243,12.53163
1.615375333,-2.944227448,-11.55671768,-1.438358917,12.01228851
1.625314333,-2.807711334,-10.89180038,-0.832868042,11.2786625
1.635253333,-2.563868408,-9.960287476,-0.982407074,10.33178936
1.645192333,-2.246228943,-8.985215149,-1.37369339,9.363048076
1.655131333,-1.907034302,-8.170309753,-1.506616974,8.524120834
1.665070333,-1.829794922,-7.71675293,-0.7997868347,7.970952529
1.675008333,-1.625320129,-7.558681641,0.2525248718,7.73557383
1.684947333,-1.169667664,-7.558232574,0.4032614136,7.658826402
1.694886333,-0.9033714294,-7.604187012,0.0470022583,7.657803162
1.704825333,-0.992585907,-7.644453278,0.206869812,7.711399861
1.714764333,-1.106499023,-7.604037323,0.4146377563,7.695300395
1.724703333,-1.0683284,-7.478897552,0.4734654236,7.569636958
1.734641333,-0.9171427917,-7.368876343,0.3314108276,7.43312334
1.744580333,-0.3915856934,-7.349716187,0.1707948303,7.362121858
1.754519333,0.5921685791,-7.357949066,0.1101708984,7.382561596
1.764458333,1.748364258,-7.182813263,0.3773652649,7.402161069
1.774397333,2.571951599,-6.948849792,0.549357605,7.429888441
1.784336333,3.025957489,-6.754553833,0.839304657,7.448815242
1.794274333,3.159030762,-6.583309937,1.202150116,7.400311478
1.804213333,2.96727951,-6.433471527,1.603764954,7.264046091
1.814152333,2.098635864,-6.175108795,2.11195816,6.855407238
1.824091333,0.2564167786,-5.923332367,2.579585724,6.465746546
1.834030333,-2.308948517,-5.9826091,3.139870605,7.140143018
1.843968333,-5.022206268,-6.399043121,3.814367981,8.984414937
1.853907333,-7.584128723,-6.944209442,4.664899292,11.29169335
1.863846333,-9.455237732,-7.746091919,5.248834991,13.30239562
1.873785333,-10.80108902,-8.419840851,5.416486359,14.7273748
1.883724333,-11.82436111,-8.730295258,4.876409454,15.48589488
1.893663333,-12.6340274,-8.647517395,3.8273909,15.78122703
1.903601333,-13.6706218,-8.368796997,4.051325226,16.5328733
1.913540333,-14.83654724,-8.010741577,4.716990967,17.50842992
1.923479333,-15.27723083,-7.519463196,4.086801453,17.51108377
1.933418333,-14.69583984,-6.615193634,2.757565613,16.35031081
1.943357333,-12.58208542,-5.645959167,1.968556366,13.93057582
1.953296333,-9.507030029,-5.538782043,1.076561279,11.05534761
1.963234333,-6.938371582,-6.9421138,-0.4984634399,9.827635017
1.973173333,-4.524042206,-9.738748169,-0.9452842712,10.77978368
1.983112333,-2.513872375,-12.66636017,0.7141648865,12.93314601
1.993051333,-1.252146149,-14.12522644,1.763033752,14.28979286
2.002990333,-0.5173242188,-14.91513382,3.79580658,15.39925286
2.012928333,-1.521885223,-15.38440796,3.719016266,15.90054165
2.022867333,-3.037633209,-13.99858978,-1.416055298,14.39419828
2.032806333,-2.917283478,-11.50253036,-4.408033447,12.65896941
2.042745333,-1.874102783,-9.524992676,-3.248993683,10.23687973
2.052684333,-0.396076355,-8.204139404,-0.4385879517,8.225395993
2.062623333,1.793121185,-7.247778168,2.606230316,7.908097648
2.072561333,1.619033203,-7.108118591,1.678309937,7.480865101
2.082500333,-0.5114863586,-7.653434601,-1.512604523,7.818225625
2.092439333,-1.67322052,-8.226742401,-2.94976593,8.898318745
2.102378333,-2.133213959,-8.921298065,-3.645818481,9.870772683
2.112317333,-2.438279572,-9.601333923,-3.946992188,10.66346884
2.122256333,-3.06802002,-9.535171509,-3.530558167,10.62059714
2.132194333,-3.728596344,-10.19499939,-3.814667358,11.50617792
2.142133333,-3.909420319,-10.29499146,-3.533551941,11.56531044
2.152072333,-3.85777771,-9.882898407,-3.16980835,11.07257038
2.162011333,-3.713178406,-9.37006485,-2.779420166,10.45518941
2.171950333,-3.712429962,-8.982670441,-2.243983612,9.975267762
2.181889333,-3.826642456,-8.633746033,-0.5463638306,9.459560057
2.191827333,-4.082610168,-8.232580261,5.473368073,10.69583291
2.201766333,-3.799099731,-8.783584442,4.117787018,10.41828606
2.211705333,-3.393143921,-9.438622284,1.387913818,10.12557757
2.221644333,-2.978206787,-9.696685638,0.5394781494,10.15807387
2.231583333,-2.85381546,-9.629625092,0.4912783813,10.0556102
2.241522333,-2.507286072,-9.217082977,0.5725593567,9.569165391
2.251460333,-2.175575867,-8.673563232,0.4540058899,8.953767411
2.261399333,-2.116897888,-8.27254715,0.04400848389,8.539217163
2.271338333,-2.181713104,-8.018525391,-0.4544549561,8.322448607
2.281277333,-2.394720154,-7.986042938,-0.8794212341,8.383611879
2.291216333,-2.75786499,-8.229885864,-1.163979492,8.757379111
2.301154333,-3.136427765,-8.509354706,-1.149160309,9.141491456
2.311093333,-3.424129486,-8.570278015,-0.9175918579,9.274497443
2.321032333,-3.629352722,-8.492290192,-0.6728507996,9.259801406
2.330971333,-3.758384399,-8.434061279,-0.5066963196,9.247463659
2.340910333,-3.808380432,-8.412057037,-0.4331991577,9.244140124
2.350849333,-3.90223526,-8.458460541,-0.462538147,9.326678738
2.360787708,-3.847898254,-8.458011475,-0.6301895142,9.313507283
2.370726708,-3.563938751,-8.419242096,-0.5559439087,9.159387017
2.380665708,-3.173550568,-8.416248322,-0.1972897339,8.996865135
2.390604708,-2.794987793,-8.463100891,0.2915936279,8.917458175
2.400543708,-2.512674866,-8.556656342,0.8502319336,8.958392549
2.410482708,-2.221679993,-8.632099457,1.367107086,9.017648519
2.420420708,-2.096091156,-8.756041718,1.492396545,9.126286876
2.430359708,-2.375110931,-9.032816162,1.065634003,9.400451882
2.440298708,-2.90066803,-9.270072784,0.2591111755,9.716751672
2.450237708,-3.47277832,-9.545649719,-0.5801934814,10.17429321
2.460176708,-4.16434021,-9.823322296,-1.382824402,10.75879146
2.470115708,-5.143005066,-10.0197139,-1.764231262,11.39989823
2.480053708,-6.032006378,-10.0581839,-1.489702148,11.82249452
2.489992708,-6.652316437,-9.908644867,-0.6042933655,11.949884
2.499931708,-7.062164154,-9.707762604,0.4453239441,12.01304003
2.509870708,-6.960525513,-9.525441742,1.247505798,11.86335646
2.519809708,-6.297853546,-9.498348083,1.972897339,11.56606673
2.529748708,-5.467380524,-9.692644043,2.693798218,11.44972258
2.539686708,-4.688250732,-10.27298721,4.119732971,12.02023964
2.549625708,-4.147275696,-11.2432695,5.534291382,13.19997674
2.559564708,-4.456981659,-12.2982756,5.602100372,14.23010179
2.569503708,-5.344037018,-12.91155029,5.193599854,14.9077276
2.579442708,-6.537505188,-12.52729935,3.782783661,14.62811181
2.589381708,-7.385042725,-11.23518631,1.608405304,13.54087276
2.599319708,-7.62783783,-9.785301361,0.1228944397,12.40770469
2.609258708,-7.984546051,-8.851543121,-0.3962260437,11.9272707
2.619197708,-8.498577118,-8.568930817,-0.2038760376,12.07037505
2.629136708,-8.902736664,-8.617280273,0.5080435181,12.40057852
2.639075708,-8.652008057,-8.825497284,0.5854325867,12.3729292
2.649013708,-7.84309021,-9.19807251,-0.2489323425,12.09051567
2.658952708,-6.971752167,-9.807904358,-1.127156067,12.08597522
2.668891708,-5.874384155,-10.58224411,-1.468745728,12.19218986
2.678830708,-4.834047546,-11.50372787,-1.39240448,12.55557888
2.688769708,-4.031566315,-12.38868759,-1.380130005,13.10106355
2.698708708,-3.280578003,-13.01169205,-1.228944397,13.47503715
2.708647708,-2.637066193,-13.32499054,-0.589025116,13.59619217
2.718585708,-2.479743347,-13.33367249,0.3519181824,13.56686388
2.728524708,-2.929408264,-13.0428273,0.559536438,13.37945656
2.738463708,-3.193608856,-12.6168132,-0.09789642334,13.01509495
2.748402708,-3.293900299,-12.05293579,-0.7481442261,12.51729844
2.758341708,-3.130140839,-11.39250916,-0.9077124023,11.84951427
2.768280708,-2.860701141,-10.62011536,-1.215622101,11.0656314
2.778218708,-2.592458954,-10.03602997,-1.402583313,10.4599226
2.788157708,-2.565814362,-9.601633301,-1.321152649,10.02597675
2.798096708,-2.496658173,-9.098230133,-0.9580078125,9.483083494
2.808035708,-2.186203766,-8.540040894,-0.6559359741,8.839798492
2.817974708,-1.920805664,-8.014184418,-0.6146218872,8.264042978
2.827912708,-1.747915192,-7.674241333,-0.5968089294,7.893374972
2.837851708,-1.73638916,-7.434889069,-0.6231541443,7.660348808
2.847790708,-1.61124939,-7.383545837,-0.3770658875,7.566706841
2.857729708,-1.387315063,-7.410340118,-0.03951782227,7.539187318
2.867668708,-1.149309998,-7.36917572,0.1112187195,7.459090687
2.877607708,-0.9918374634,-7.353757782,-0.02589614868,7.420388513
2.887545708,-0.9743238831,-7.383994904,-0.2421963501,7.451935778
2.897484708,-1.059197388,-7.34702179,-0.4538562012,7.43684165
2.907423708,-0.9608518982,-7.214996338,-0.5231620789,7.297472651
2.917362708,-0.5486091614,-6.997049561,-0.4589456177,7.033513037
2.927301708,-0.01392105103,-6.737489319,-0.4382885742,6.751744441
2.937240708,0.5689668274,-6.518045654,-0.4846920776,6.560759774
2.947178708,1.046324158,-6.300547943,-0.4767585754,6.404607511
2.957117708,1.563798065,-6.114784241,-0.204175415,6.314882287
2.967056708,2.036664734,-6.042933655,0.4447251892,6.392404156
2.976995708,2.06166275,-6.155649261,1.206491089,6.602885117
2.986934708,1.52697464,-6.233637085,2.111509094,6.756356526
2.996873708,0.2805166626,-6.154302063,3.046015778,6.872578526
3.006811708,-1.202150116,-6.247707825,3.625760193,7.322919837
3.016750708,-3.142265625,-6.709796906,4.228856049,8.531027561
3.026689708,-5.730533295,-7.342381439,4.939877472,10.5428633
3.036628708,-8.488697662,-8.114176483,6.309978333,13.33092925
3.046567708,-11.16288666,-8.876840515,7.788004761,16.24996475
3.056506708,-12.70288422,-9.52214859,7.341483307,17.49091073
3.066444708,-13.5842514,-9.870174866,6.632856903,18.05400312
3.076383708,-14.53866669,-9.523495789,6.723418579,18.63529336
3.086322708,-14.975159,-8.530909882,5.901178436,18.21690746
3.096261708,-14.37370972,-7.494764557,3.337160339,16.55027691
3.106200708,-13.33966003,-6.5267276,0.3739224243,14.85545425
3.116139708,-12.05009171,-5.503754883,-1.441951447,13.32573645
3.126077708,-10.49093399,-4.630620575,-0.7179071045,11.48989702
3.136016708,-9.245374146,-5.338797913,-0.04505630493,10.67622294
3.145955708,-8.313262482,-7.846083984,-1.450184326,11.52277751
3.155894708,-7.252717896,-10.56697586,-2.434836731,13.04573975
3.165833708,-6.008804626,-12.65273849,-1.296004944,14.06688143
3.175772708,-4.681365051,-14.36008804,4.631518707,15.79804649
3.185710708,-4.43692337,-16.11294296,9.35719162,19.15385744
3.195649708,-3.887865143,-16.99011887,4.542004852,18.01136981
3.205588708,-2.05118454,-14.49211349,-2.390379181,14.83046271
3.215527708,-0.9024732971,-11.21093674,-4.653522949,12.17188713
3.225466708,-0.2221380615,-9.502090302,-3.009940796,9.969895135
3.235405708,0.260458374,-8.383915558,-1.409468994,8.505555919
3.245343708,0.7635621643,-7.53413269,-0.9406439209,7.630923506
3.255282708,1.23912323,-6.947053528,-1.203048248,7.158512708
3.265221708,1.540895691,-6.684050446,-2.019300842,7.150417175
3.275160708,1.870360565,-6.88598053,-3.243305511,7.83798489
3.285099708,1.710043945,-7.604636078,-3.992048492,8.757350703
3.295038708,0.9047186279,-8.7615802,-4.063450012,9.700279862
3.304976708,0.09355545044,-9.780810699,-4.062851257,10.59149522
3.314915708,-0.6387217712,-10.23002655,-3.74191864,10.911616
3.324854708,-0.8201445007,-9.948162689,-3.586392059,10.60663877
3.334793708,-0.4830455017,-9.409133606,-3.742068329,10.13746534
3.344732708,-0.2192939758,-9.002129974,-3.859424286,9.797019432
3.354671708,-0.3863465881,-8.879235535,-3.669020233,9.615185741
3.364609958,-0.9473799133,-9.095236359,-3.338956604,9.734961958
3.374548958,-1.578317871,-9.397158508,-3.000809784,9.990121856
3.384487958,-2.092498627,-9.57364151,-2.47001358,10.10614315
3.394426958,-2.561174011,-9.66959198,-1.86272644,10.17498753
3.404365958,-3.303181,-9.735005951,0.9080117798,10.32016623
3.414304958,-5.138065338,-9.468560028,9.390272827,14.29092608
3.424242958,-5.285957794,-9.22381897,5.162763977,11.81838898
3.434181958,-5.021158447,-9.175319824,1.587598572,10.57917744
3.444120958,-4.411625977,-9.014404449,0.1930984497,10.03788914
3.454059958,-3.69746109,-8.641529846,0.3278182983,9.405037024
3.463998958,-3.278482361,-8.363108826,0.5487588501,8.999509548
3.473937958,-3.462749176,-8.231981506,0.09804611206,8.931168144
3.483875958,-4.087400208,-8.092022552,0.08681945801,9.066157238
3.493814958,-4.711153107,-7.932753754,0.2436932373,9.229460012
3.503753958,-5.066813507,-7.93200531,0.05658233643,9.41235937
3.513692958,-5.077142029,-8.126151581,-0.4409829712,9.591985023
3.523631958,-5.164111176,-8.226742401,-0.5258564758,9.727479622
3.533570958,-5.246589661,-8.176896057,0.001197509766,9.715365852
3.543508958,-4.927004242,-8.352780304,0.3112028503,9.702636591
3.553447958,-4.562362518,-8.724457397,0.1877096558,9.847159161
3.563386958,-4.257446594,-9.049581299,-0.1333726501,10.00192789
3.573325958,-3.889960785,-9.383686523,-0.3474275208,10.16395954
3.583264958,-3.585044861,-9.629924469,-0.1899549866,10.27735739
3.593203958,-3.292702789,-9.656569061,0.264200592,10.20593061
3.603141958,-3.121458893,-9.475894775,0.8822653198,10.01571163
3.613080958,-3.196752319,-9.321715393,1.333427124,9.944427141
3.623019958,-3.645519104,-9.395511932,1.118025055,10.13979458
3.632958958,-4.140390015,-9.586215363,0.6471043396,10.46217465
3.642897958,-4.531526642,-9.695637817,0.3802093506,10.70909359
3.652836958,-5.103786621,-9.71404953,0.1523831177,10.97427067
3.662774958,-5.875132599,-9.716743927,-0.2260299683,11.35708524
3.672713958,-6.596482544,-9.696835327,-0.4806504822,11.73768385
3.682652958,-7.169191589,-9.592202911,-0.2151026917,11.97722563
3.692591958,-7.484735413,-9.475894775,0.3240760803,12.07968838
3.702530958,-7.375163269,-9.544901276,0.6358776855,12.0790113
3.712469958,-6.954238586,-9.774523773,0.902024231,12.02981284
3.722407958,-6.495742035,-10.10443771,1.12910202,12.06520607
3.732346958,-6.129453735,-10.49452652,1.6708255,12.26771975
3.742285958,-5.83052536,-10.7708519,2.91937912,12.59083202
3.752224958,-5.81420929,-10.96035782,4.080514526,13.06082203
3.762163958,-6.166576538,-11.09941864,4.323010254,13.41313453
3.772102958,-6.316265259,-10.87443649,3.884422302,13.16196461
3.782040958,-6.225553894,-10.28855484,2.915786591,12.37391181
3.791979958,-5.931265869,-9.623637543,1.978136444,11.47638175
3.801918958,-5.376818848,-9.243577881,1.653012543,10.82064524
3.811857958,-4.643044739,-9.412726135,1.839075623,10.65549046
3.821796958,-3.949836273,-10.09246262,1.820514221,10.98968973
3.831735958,-3.476221161,-10.89838669,0.8729846191,11.47262168
3.841674958,-3.423530731,-11.40598114,-1.097218323,11.95913276
3.851612958,-3.582051086,-11.47588577,-2.56012619,12.29151294
3.861551958,-3.518134003,-11.73709259,-2.803819427,12.56972604
3.871490958,-3.652105408,-12.5066423,-2.203567657,13.21399584
3.881429958,-4.089046783,-13.44354401,-1.140478363,14.09786757
3.891368958,-4.508923645,-14.1351059,-0.2023791504,14.83821312
3.901307958,-4.729564819,-14.21608749,0.1178050232,14.98265013
3.911245958,-4.922064514,-13.71463028,0.3061134338,14.57434418
3.921184958,-4.839885406,-12.63327896,0.6560856628,13.54454416
3.931123958,-4.608167267,-11.34610565,1.164129181,12.301403
3.941062958,-4.071682892,-10.07599686,1.289568329,10.94382477
3.951001958,-3.394790497,-9.033414917,0.6227050781,9.670312776
3.960940958,-3.008743286,-8.45382019,-0.31943573,8.978956017
3.970878958,-2.723885651,-8.349487152,-0.6614744568,8.807442148
3.980817958,-2.696941681,-8.412356415,-0.3861968994,8.842532608
3.990756958,-2.669997711,-8.417745209,-0.1155596924,8.83179915
4.000695958,-2.422861633,-8.366252289,-0.1784289551,8.71184669
4.010634958,-2.21614151,-8.328081665,-0.2655477905,8.621991826
4.020573958,-2.36942276,-8.208031311,-0.0802331543,8.543557782
4.030511958,-2.317331085,-8.051007843,0.2227368164,8.380833034
4.040450958,-2.057471466,-7.922125854,0.4749623108,8.198710636
4.050389958,-1.685195618,-7.788304138,0.516126709,7.985233397
4.060328958,-1.067430267,-7.50030304,0.3743714905,7.585124064
4.070267958,-0.4848417664,-7.23580307,0.001646575928,7.252028704
4.080206958,-0.1942959595,-7.070097656,-0.3838018799,7.083172712
4.090144958,0.09340576172,-6.917714539,-0.6014492798,6.944439525
4.100083958,0.5384303284,-6.699169006,-0.7490423584,6.762383977
4.110022958,1.120120697,-6.439758453,-0.6435118103,6.568048931
4.119961958,1.688788147,-6.174659729,-0.3430865479,6.410626846
4.129900958,2.150727539,-5.941444702,0.01182540894,6.318744649
4.139839958,2.666255493,-5.688171387,0.3927832031,6.294322102
4.149777958,3.19555481,-5.434748383,0.9047186279,6.369189612
4.159716958,3.452121277,-5.301226044,1.579216003,6.520280827
4.169655958,2.987487488,-5.378764801,2.690205688,6.715161869
4.179594958,1.065783691,-5.500461731,3.902534637,6.827938981
4.189533958,-1.807640991,-5.719007263,5.264402618,7.980510319
4.199472958,-5.173092499,-6.366860046,7.32591568,10.99849232
4.209410958,-8.991801453,-7.556735687,9.739047546,15.25797479
4.219349958,-12.64315842,-9.107810211,10.73702225,18.92314214
4.229288958,-14.79673004,-10.37687119,9.844278717,20.57990522
4.239227958,-15.53574326,-10.7946524,9.104217682,20.99453783
4.249166958,-15.84095856,-10.3208876,8.915759583,20.90328821
4.259105958,-15.91924576,-9.320068817,8.728648682,20.40772834
4.269043958,-14.75167374,-8.11103302,6.295308838,17.97308121
4.278982958,-11.51675079,-6.499933319,2.915187836,13.54189802
4.288921958,-7.942782898,-5.076692963,0.1857637024,9.428420852
4.298860958,-6.085744629,-4.570296021,-1.20753891,7.705974541
4.308799958,-4.877307587,-5.373376007,-2.222877502,7.589629991
4.318738958,-4.055067444,-7.771239624,-3.037034454,9.276816024
4.328677958,-2.832260284,-10.31490005,-3.045267334,11.12171365
4.338615958,-0.9563612366,-11.74547516,0.6664141846,11.80317421
4.348554958,-0.01047821045,-11.81328415,6.040838013,13.2682145
4.358493958,-2.280208282,-11.60656403,6.01194809,13.26857936
4.36843225,-5.633085938,-12.67040176,1.270108795,13.92422042
4.37837125,-7.672594757,-14.3088945,0.0802331543,16.23636688
4.38831025,-7.471263428,-14.52369781,0.4757107544,16.33964125
4.39824825,-4.211641846,-12.70602768,-1.692979431,13.49248849
4.40818725,-1.114731903,-10.13796799,-2.59410553,10.52380186
4.41812625,-0.03382965088,-7.93440033,-1.429976349,8.062300255
4.42806525,0.4742138672,-6.849905548,-0.1895059204,6.868915293
4.43800425,1.233584747,-6.439608765,0.956660614,6.626121935
4.44794325,0.3037184143,-6.8041008,-0.5545967102,6.833418623
4.45788125,-1.096769257,-7.546257477,-2.513872375,8.029225307
4.46782025,-1.735341339,-8.427774353,-2.909499664,9.083170064
4.47775925,-2.328557739,-9.421408081,-3.204236755,10.22018809
4.48769825,-2.5613237,-10.12883698,-3.422183533,10.99386455
4.49763725,-2.616858215,-10.32328262,-3.267106018,11.13966305
4.50757625,-2.596051483,-9.928553467,-2.847528534,10.65007399
4.51751425,-2.672093353,-9.465416565,-2.514620819,10.15172456
4.52745325,-2.784359894,-9.242829437,-2.26299408,9.914822148
4.53739225,-2.951113129,-9.259145508,-1.909429321,9.903876239
4.54733125,-3.245700531,-9.356892242,-1.301693115,9.989014433
4.55727025,-3.557801514,-9.384285278,3.671415253,10.686536
4.56720925,-3.463198242,-9.521849213,5.187312927,11.38277514
4.57714825,-3.235222321,-9.595496063,0.282462616,10.13015268
4.58708625,-3.014581146,-9.541458435,-0.841999054,10.04171753
4.59702525,-2.878963165,-9.248068542,-0.7191046143,9.712482284
4.60696425,-2.708916779,-8.862171021,-0.3155438232,9.272317575
4.61690325,-2.544408875,-8.620872803,0.2128573608,8.991038464
4.62684225,-2.68421814,-8.532855835,0.2399510193,8.948308902
4.63678125,-3.094963989,-8.537496185,-0.2418969727,9.084390863
4.64671925,-3.463647308,-8.494685211,-0.7081773376,9.200980636
4.65665825,-3.679797821,-8.355474701,-0.9292675781,9.177058772
4.66659725,-3.883374481,-8.237220612,-0.9779164124,9.159078626
4.67653625,-4.112398224,-8.274193726,-0.7258406067,9.268276299
4.68647525,-4.356390839,-8.235574036,0.02065704346,9.316826045
4.69641425,-4.738097076,-8.161777496,0.5385800171,9.452737394
4.70635225,-5.031636658,-8.223000183,0.5366340637,9.655209764
4.71629125,-4.908742218,-8.165819092,-0.01451980591,9.527673506
4.72623025,-4.556973724,-8.181386719,0.03921844482,9.364968567
4.73616925,-4.226461029,-8.443641357,0.8970845032,9.484872841
4.74610825,-3.854783936,-8.753946075,1.351689148,9.660123945
4.75604725,-3.488944702,-9.054670715,1.493444366,9.817849712
4.76598525,-3.16157547,-9.1769664,1.758543091,9.864316781
4.77592425,-3.190764771,-9.120084686,1.894161072,9.846053558
4.78586325,-3.634591827,-9.192384338,1.487307129,9.996112748
4.79580225,-4.220623169,-9.395511932,0.4376898193,10.3092617
4.80574125,-4.830904083,-9.613009644,-0.6846762085,10.78036967
4.81568025,-5.443130951,-9.732161865,-1.342857513,11.23146987
4.82561925,-6.072272644,-9.760003967,-1.510808258,11.59364973
4.83555725,-6.572232971,-9.713750153,-1.444196777,11.81680552
4.84549625,-6.842421112,-9.526190186,-1.331032104,11.8041803
4.85543525,-6.86726944,-9.211394806,-1.024020538,11.53506835
4.86537425,-6.537954254,-8.89270752,-0.3936813354,11.04445915
4.87531325,-5.913752289,-8.898395691,0.2517764282,10.68724957
4.88525225,-5.249134369,-9.191486206,0.9484277344,10.62715133
4.89519025,-4.678071899,-9.692344666,1.788331146,10.90981348
4.90512925,-4.320315857,-10.40261765,2.730172577,11.59022973
4.91506825,-4.187541962,-11.21018829,3.623365173,12.50330374
4.92500725,-4.217779083,-11.87031555,4.698429565,13.44504712
4.93494625,-4.433181152,-12.09335175,5.801934814,14.12673703
4.94488525,-5.400319977,-11.75355835,4.270020447,13.62140464
4.95482325,-6.319109344,-10.87129303,1.336869965,12.64529068
4.96476225,-6.907685394,-9.887688446,0.2975811768,12.06528304
