Time (s),Acceleration x (m/s^2),Acceleration y (m/s^2),Acceleration z (m/s^2),Absolute acceleration (m/s^2)
19.88150992,0.4953199768,-0.3884422302,1.764231262,1.873163418
19.89144992,2.223027191,1.162033539,1.791923676,3.082719951
19.90138992,5.029840393,2.147284698,1.728605347,5.735695459
19.91132992,8.870852966,1.917362823,0.9412426758,9.124376709
19.92126992,12.96783325,0.9264234924,0.135617981,13.00159036
19.93120992,18.48371292,-0.5592370605,1.271605682,18.53584016
19.94114992,22.74744644,-1.172062683,2.429597626,22.90683294
19.95108992,27.09680191,-0.5816903687,1.910327454,27.17028503
19.96102992,30.42617844,0.08652008057,2.749632111,30.55029127
19.97096992,31.54989166,0.7788304138,3.343896332,31.7361605
19.98091092,28.5195932,0.9337582397,4.772076416,28.93115646
19.99085092,22.5277034,-0.5264552307,5.989045715,23.31615843
20.00079092,19.54650284,-0.8604107666,4.353097687,20.04384043
20.01073092,19.49950058,-0.01796264648,3.793112183,19.86500807
20.02067092,23.0638884,0.02993774414,2.936443634,23.250087
20.03061092,24.04524765,-0.4641847229,1.613943787,24.10382162
20.04055092,19.14743271,-0.3158432007,1.660946045,19.22193221
20.05049092,15.54696991,-2.244133301,10.3023262,18.78516257
20.06043092,14.26877792,-5.807922363,16.58431274,22.63557852
20.07037092,4.88973175,2.445614319,-11.16857483,12.43493344
20.08031192,-0.7631130981,6.752907257,-20.12040939,21.23711308
20.09025192,1.865271149,2.917582855,-11.72661438,12.22722417
20.10019192,1.444346466,1.276695099,-6.345753937,6.6320947
20.11013192,-0.7875123596,0.2260299683,-3.311563568,3.41141005
20.12007192,-1.460812225,-0.2659968567,-1.601070557,2.183610225
20.13001192,-1.932780762,-0.1336720276,-1.041833496,2.199756059
20.13995192,-2.262095947,-1.408271484,-0.2371069336,2.675168471
20.14989192,-1.866169281,-1.44734024,0.8544232178,2.511457862
20.15983192,-1.243613892,-0.4248165894,0.8336164856,1.556265109
20.16977192,-0.8704399109,-0.3189866638,0.2029779053,0.9490090412
20.17971292,-1.0086026,-0.725690918,1.187031555,1.718415091
20.18965292,-1.135388947,-0.5182223511,1.209035797,1.73765072
20.19959292,-1.097817078,-0.4209246826,1.367406464,1.80338026
20.20953292,-0.9475296021,-0.3811074829,1.115180969,1.512178513
20.21947292,-0.6698570251,-0.08816665649,1.656605072,1.789084167
20.22941292,0.4595443726,0.5378315735,2.490071869,2.588610002
20.23935292,3.106040955,1.40527771,3.171305237,4.656122073
20.24929292,6.809339905,2.139500885,3.381617889,7.898095563
20.25923292,11.37289993,2.367177429,2.9169841,11.97727757
20.26917292,15.68797668,1.680405579,2.060165863,15.91165167
20.27911392,19.55922638,0.200433197,1.275647278,19.60180568
20.28905392,23.87130936,-1.108744354,1.004710693,23.91815561
20.29899392,27.78881287,-2.184407501,0.9364526367,27.89026174
20.30893392,30.08653473,-1.366957397,1.814526672,30.17218341
20.31887392,30.26002396,-0.5905220032,1.834884338,30.32135496
20.32881392,27.55694504,-1.437311096,3.319796448,27.79338287
20.33875358,23.55561584,-2.298470306,3.714824982,23.9572521
20.34869358,20.43415695,-2.921923828,3.847898254,20.99758868
20.35863358,20.87573868,-1.628463593,3.668720856,21.25812484
20.36857358,22.58069321,-1.024020538,3.186274109,22.82736661
20.37851458,21.71534271,-0.01916015625,3.16980835,21.94548157
20.38845458,18.55765915,0.7156617737,4.06958725,19.01211259
20.39839458,15.21121811,0.3459306335,13.4715358,20.32198566
20.40833458,11.04508163,-1.912273407,22.07100311,24.75438944
20.41827458,4.191134491,2.812201996,-7.762557678,9.259124694
20.42821458,-0.9111552429,4.446802826,-21.02153549,21.50602738
20.43815458,0.9270222473,1.909878387,-11.59443924,11.78719759
20.44809458,1.543141022,0.5298980713,-6.526877289,6.727719028
20.45803458,-1.447639618,-0.4867877197,-3.583547974,3.895438207
20.46797458,-2.501298523,-0.1675016785,-2.366428986,3.447395721
20.47791558,-2.915337524,-0.3709286499,-1.857337646,3.476562106
20.48785558,-2.629731445,0.4933740234,-1.832639008,3.243065083
20.49779558,-1.238823853,-0.1954934692,-1.113833771,1.677357417
20.50773558,-0.1794767761,0.266894989,-0.3475772095,0.4735554507
20.51767558,0.3580554199,-0.2989283752,-0.1857637024,0.5020657431
20.52761558,0.6063890076,-0.2164498901,-0.2065704346,0.6761874946
20.53755558,0.6518943787,-0.3977229309,-0.08637039185,0.7685113241
20.54749558,0.2950364685,-0.9809101868,0.2447410583,1.053152172
20.55743558,0.01571731567,-1.491049347,0.3399430847,1.529390888
20.56737558,-0.200433197,-1.475332031,0.9301657104,1.755558691
20.57731658,0.00209564209,-0.8081694031,1.976340179,2.135196169
20.58725658,1.88263504,0.270637207,2.972518616,3.528941217
20.59719658,5.526058502,1.397942963,3.027304688,6.45415686
20.60713658,10.1192569,1.644031219,1.982028351,10.44177356
20.61707658,14.91917542,0.5905220032,0.9011260986,14.95802592
20.62701658,19.17377792,-1.796713715,1.708397369,19.33340533
20.63695658,24.05348053,-3.379372559,2.649939423,24.4338344
20.64689658,28.425439,-3.918850708,1.575623474,28.73752881
20.65683658,31.18629776,-2.763852539,0.752485199,31.31757147
20.66677658,31.70811264,-0.9361532593,0.7999365234,31.73201362
20.67671658,27.46294052,-0.5007087708,2.349364471,27.56779507
20.68665758,21.85290665,-1.367556152,4.636009369,22.38107061
20.69659758,18.76961838,-1.196761322,4.016298065,19.2317826
20.70653758,22.17788086,0.5128335571,3.852987671,22.51592573
20.71647758,26.63755692,0.7111711121,2.998414764,26.81521385
20.72641758,24.0817717,-0.2158511353,2.52390152,24.21463191
20.73635758,18.62501907,-1.245709534,7.319928131,20.05054801
20.74629758,15.69456299,-4.512067108,18.44045288,24.6318566
20.75623758,10.03109024,-4.192631378,5.373525696,12.12747738
20.76617758,-0.1104702759,8.481811981,-20.80209183,22.46509209
20.77611758,-0.756227417,2.674039307,-12.36803055,12.67637747
20.78605858,1.411864014,0.7478448486,-7.555987244,7.72305478
20.79599858,-0.2380050659,-0.342487793,-2.73571106,2.767319877
20.80593858,-1.807491302,-0.6569837952,-0.3983216858,1.964004247
20.81587858,-2.781216431,0.02709365845,-0.4739144897,2.821434714
20.82581858,-3.392545166,-0.5303471375,-0.4441264343,3.462351669
20.83575858,-2.70412674,-0.9066645813,0.8174501038,2.96691199
20.84569858,-1.353635101,-0.9728269958,1.222956848,2.067448622
20.85563858,-1.042432251,-1.236578522,1.214873657,2.02279743
20.86557858,-1.268911285,-0.6810836792,0.3158432007,1.474370291
20.87551858,-0.9919871521,-0.4132905579,-0.4664300537,1.171496731
20.88545958,-0.6653663635,-0.4076023865,-0.6586303711,1.021100421
20.89539958,-0.1606159973,-0.4047583008,-0.4617897034,0.6347255397
20.90533958,0.01496887207,-0.4195774841,0.1447489929,0.4440963896
20.91527958,0.3405418396,-0.07903564453,0.9372010803,1.000280582
20.92521958,1.546583862,0.7500901794,1.206640778,2.100128302
20.93515958,3.730841675,1.890269165,0.7764353943,4.253839329
20.94509958,6.811734924,2.490371246,0.3565585327,7.261460983
20.95503958,11.05271576,1.998194733,0.923429718,11.26978395
20.96497958,16.15006577,0.4694238281,0.9406439209,16.18424524
20.97491958,22.31559448,-1.425934753,0.0889151001,22.36128245
20.98486058,27.86739944,-3.54417984,0.9993218994,28.10963904
20.99480058,30.75459549,-3.974235535,2.680326233,31.12593518
21.00474058,32.00374786,-1.762584686,2.740052032,32.16915397
21.01468058,28.5752774,0.7222480774,2.315684509,28.67804937
21.02462058,22.37382339,0.8396040344,4.000880127,22.74422894
21.03456058,18.72411301,-0.9307644653,4.134252777,19.19767633
21.04450058,17.39263184,-1.187031555,4.126169586,17.91474146
21.05444058,17.88241333,0.01811233521,4.156556396,18.35913929
21.06438058,24.26184723,-0.8086184692,2.480791168,24.40175034
21.07432058,26.07562546,-1.606908417,1.751358032,26.18372878
21.08426158,20.072509,-1.15604599,5.069358215,20.73500549
21.09420158,16.83848419,-2.005379791,16.6127536,23.73899072
21.10414158,11.44744492,-3.622916107,14.32401306,18.69082305
21.11408158,1.782942352,8.048014069,-21.34336624,22.87987536
21.12402158,0.3064128113,3.688629456,-16.63790131,17.04463657
21.13396158,3.767964478,1.599423981,-9.273515625,10.13675517
21.14390158,2.192191315,-0.1935475159,-4.518653412,5.026071235
21.15384158,-0.3074606323,-0.3905378723,-1.8991008,1.963067935
21.16378158,-1.614243164,-0.5031037903,-0.7297325134,1.841576487
21.17372158,-2.852917328,0.1137634277,-0.4668791199,2.893104822
21.18366158,-2.815345459,-0.2002835083,-0.1413061523,2.825995571
21.19360258,-1.738185425,-0.2504292297,1.076710968,2.059929581
21.20354258,-1.159488831,1.014141083,0.3815565491,1.586972553
21.21348258,-0.9494755554,1.422342224,-0.4834945679,1.777168599
21.22342258,-0.6637197876,1.044228516,-0.113613739,1.242515686
21.23336258,-0.3673361206,0.4480183411,0.5138813782,0.7744225786
21.24330258,0.1660047913,-0.06661148071,0.4796026611,0.5118724379
21.25324258,0.3555107117,-0.4881349182,0.886456604,1.072599121
21.26318258,0.4052073669,-0.5533992004,1.305585022,1.474786742
21.27312258,1.184636536,0.006735992432,1.393901367,1.829308644
21.28306258,3.42951828,1.111738129,0.9758207703,3.734940893
21.29300358,6.385870514,2.262245636,0.3381468201,6.783173358
21.30294358,10.22388931,2.969824219,-0.4260140991,10.65501087
21.31288358,14.99461853,1.280587006,1.905687103,15.16938137
21.32282358,17.23755432,0.4162843323,2.060315552,17.36523745
21.33276367,22.17353989,-1.202748871,2.029329987,22.29866938
21.34270367,26.92166611,-2.441423035,1.477427673,27.07248502
21.35264367,29.51517288,-3.158132629,1.35617981,29.71461687
21.36258367,30.32618637,-2.765798492,1.195114746,30.47549049
21.37252367,27.47805908,-2.777623901,2.014361115,27.69145312
21.38246367,23.12630859,-3.437451782,2.965183868,23.56765876
21.39240467,19.0333699,-3.638633423,1.863624573,19.46745797
21.40234467,18.90044632,-1.454525299,2.029479675,19.0646611
21.41228467,23.0571524,-0.1140628052,2.305954742,23.17245595
21.42222467,23.89241547,0.382155304,2.682571564,24.04557651
21.43216467,19.7274765,0.9334588623,2.617157593,19.9222034
21.44210467,16.19691833,0.6595285034,10.19395157,19.14919815
21.45204467,12.31638794,-1.116528168,20.14196457,23.63554069
21.46198467,5.887556763,1.992207184,-6.244264984,8.810394956
21.47192467,0.07888595581,5.02549942,-20.25183609,20.8662103
21.48186467,3.626209259,2.970273285,-12.4124881,13.26807363
21.49180567,5.278473358,0.5746549988,-6.285130005,8.227719522
21.50174567,2.217189331,-0.100740509,-1.605561218,2.739325465
21.51168567,0.3011737061,0.8137078857,-0.2279759216,0.8971059834
21.52162567,-1.324445801,0.9220825195,-0.1528321838,1.621033784
21.53156567,-2.190694427,0.5926176453,1.056203613,2.503178743
21.54150567,-2.411485291,1.167572021,0.5532495117,2.735794355
21.55144567,-1.670077057,-0.02335144043,0.1199006653,1.674538395
21.56138567,-1.320104828,-0.5785469055,0.3236270142,1.477202668
21.57132567,-1.181343384,-0.159717865,-0.4927752686,1.289926142
21.58126567,-0.8289761353,-0.5417234802,0.16615448,1.004128016
21.59120667,-0.3077600098,-0.7140151978,0.6303392029,1.000930286
21.60114667,0.0005987548828,-0.8460406494,0.9342073059,1.260368371
21.61108667,0.1369651794,-0.8776249695,0.5733078003,1.057197655
21.62102667,-0.0715512085,-0.5914201355,0.426612854,0.7327317922
21.63096667,0.005388793945,-0.1469943237,0.8608598328,0.8733361449
21.64090667,1.878892822,0.6596781921,1.330583038,2.39496655
21.65084667,5.475014648,1.910626831,0.8794212341,5.865122505
21.66078667,10.18317398,2.90530838,-0.0477507019,10.58962366
21.67072667,14.99626511,2.467319183,0.1294807434,15.19843401
21.68066667,18.8050946,0.5854325867,1.568887482,18.87950535
21.69060767,22.31469635,-1.332978058,1.355431366,22.39552852
21.70054767,28.18324265,-2.682272186,0.265847168,28.31184248
21.71048767,31.89657074,-3.259920959,-0.2285746765,32.06353936
21.72042767,33.0184877,-2.603535919,-0.2188449097,33.12169716
21.73036767,29.91244675,-2.781216431,1.64627655,30.08653954
21.74030767,23.39589798,-3.966152344,3.315305786,23.96016818
21.75024767,18.66199219,-3.923790436,3.525319061,19.39314204
21.76018767,17.88076675,-1.932481384,3.067121887,18.24454825
21.77012767,23.02766373,-0.6050418091,2.940185852,23.2224905
21.78006767,23.70994492,0.503253479,2.513872375,23.848151
21.79000867,18.56514359,1.174457703,5.403014374,19.37102144
21.79994867,15.60968948,-0.7322772217,16.44270721,22.6839427
21.80988867,10.97532669,-3.346590729,16.0527681,19.73192411
21.81982867,1.122366028,6.881489868,-21.04294098,22.16799435
21.82976867,-0.1121168518,4.988975372,-15.69022202,16.46467468
21.83970867,3.825894012,1.464255066,-9.735005951,10.56181087
21.84964867,1.995650024,-0.2586621094,-4.157454529,4.618869263
21.85958867,-0.5507048035,-0.2017803955,-1.361119537,1.482105767
21.86952867,-2.406096497,-0.1526824951,-1.128503265,2.661978947
21.87946867,-3.442840576,-0.116308136,-0.2088157654,3.451127763
21.88940867,-3.597169647,0.9988728333,-0.4508624268,3.760406007
21.89934967,-2.083068237,0.2131567383,-0.7903564453,2.238140386
21.90928967,-0.9208850098,-0.5691165161,0.6719526672,1.274144104
21.91922967,-0.8081694031,-0.2966830444,-0.03278182983,0.8615296056
21.92916967,-0.4457730103,-0.8726852417,0.09669891357,0.9847049241
21.93910967,0.07050338745,-1.067280579,0.01706451416,1.069742847
21.94904967,0.4294569397,-1.242416382,0.1989363098,1.329513965
21.95898967,0.1392105103,-1.384920044,0.8641529846,1.638335581
21.96892967,-0.2820135498,-1.129700775,1.530567169,1.92312021
21.97886967,0.4328997803,-0.06077362061,1.822759552,1.874446061
21.98880967,2.837050323,1.611099701,1.748663635,3.701664665
21.99875067,7.085066528,2.674488373,1.09407486,7.651670116
22.00869067,12.73581573,2.136207733,0.6885681152,12.932073
22.01863067,17.18980362,0.4275109863,0.9894424438,17.22356265
22.02857067,24.25017151,-2.570305023,1.333277435,24.42242647
22.03851067,29.10263077,-3.687132568,-0.9253756714,29.34986174
22.04845067,33.08509918,-3.027903442,-1.359323273,33.25116159
22.05839067,33.13763992,-1.49419281,-0.9312135315,33.18437811
22.06833067,28.25060257,-0.6864724731,0.4149371338,28.26198795
22.07827067,22.50659729,-1.306782532,3.294648743,22.78397052
22.08821067,18.73399246,-2.715652771,3.184477844,19.1957845
22.09815167,17.20252716,-1.286424866,3.031346283,17.51487625
22.10809167,20.21306671,0.8818162537,3.359913025,20.50938033
22.11803167,24.287444,0.232616272,3.050057373,24.47931568
22.12797167,20.53893906,0.3207829285,4.359534302,20.99896327
22.13791167,16.47084869,-1.40527771,12.48493744,20.71562997
22.14785167,14.27117294,-5.249134369,20.99983063,25.92706453
22.15779167,3.82035553,4.223766632,-15.13936752,16.17515904
22.16773167,-2.036814423,6.908583527,-17.96369431,19.35384852
22.17767167,1.855691071,3.12759613,-10.6328389,11.23755801
22.18761167,0.6810836792,1.130149841,-4.722080383,4.90297428
22.19755267,-1.888323212,0.1648072815,-0.5396278381,1.970818154
22.20749267,-3.444636841,-0.5249583435,0.1215472412,3.486528067
22.21743267,-4.467160492,-0.7491920471,0.686023407,4.581205049
22.22737267,-4.094285889,-0.1546284485,-0.502205658,4.127868387
22.23731267,-1.905387726,-2.568957825,0.6282435608,3.259560808
22.24725267,-0.8213420105,-1.411864014,-0.4261637878,1.68806939
22.25719267,-0.2354603577,-1.13149704,-0.9598040771,1.502315212
22.26713267,0.1933978271,-0.9461824036,-0.492026825,1.083860811
22.27707267,0.5620811462,-0.6245013428,-0.4026626587,0.9317050814
22.28701267,0.7424560547,-0.3571572876,0.05718109131,0.8258765031
22.29695367,0.5098397827,-0.1802252197,0.7179071045,0.8987815889
22.30689367,0.822689209,0.3870950317,1.209933929,1.513472898
22.31683367,2.547402649,1.30932724,1.922601929,3.449637119
22.32677367,6.386169891,2.456541595,1.552571411,7.016283951
22.33671442,11.87675217,3.187621307,-0.8649014282,12.32745822
22.34665442,18.22969116,2.451003113,-1.520837402,18.45648944
22.35659442,24.10153061,-1.152154083,2.0968396,24.21999119
22.36653442,27.63493286,-2.300116882,2.373015289,27.83183884
22.37647442,30.90129044,-3.092718658,1.387165375,31.08663518
22.38641442,30.02171951,-2.753074951,0.8625064087,30.1600229
22.39635542,26.86882599,-1.441352692,1.646575928,26.95779145
22.40629542,23.18977661,-1.01324295,3.202739868,23.43181477
22.41623542,18.97259628,-2.672243042,3.308270416,19.44337794
22.42617542,16.05471405,-1.954635315,2.862347717,16.42459975
22.43611542,17.86924072,-0.03113525391,2.190245361,18.0029972
22.44605542,22.59416519,-0.05239105225,2.080822906,22.68984067
22.45599542,20.78547638,0.09654922485,1.817071381,20.864973
22.46593542,15.37602539,-0.03772155762,5.663622437,16.38597568
22.47587542,13.1039003,-1.388811951,15.25717255,20.15991855
22.48581542,8.441545715,-2.988235931,8.777746582,12.53946104
22.49575642,-2.149979095,6.743925934,-20.68084396,21.85864255
22.50569642,-1.93532547,4.289929047,-14.90720032,15.63245333
22.51563642,0.9848020935,1.888023834,-8.532855835,8.794549327
22.52557642,-1.280437317,0.2903961182,-3.706592102,3.932260754
22.53551642,-2.550546112,-0.2233355713,-1.106499023,2.789176283
22.54545642,-3.17205368,-0.2586621094,-0.4546046448,3.214886627
22.55539642,-3.562441864,1.005459137,-0.4721182251,3.731599621
22.56533642,-2.236499176,-0.8198451233,0.2305206299,2.393159909
22.57527642,-0.4146377563,-1.393302612,1.240021362,1.910724893
22.58521642,0.002245330811,-0.9550140381,0.2318678284,0.9827611837
22.59515742,0.2377056885,-0.9517208862,-0.3303630066,1.035092438
22.60509742,0.4550537109,-0.6355783081,-0.2311193848,0.8151379243
22.61503742,0.296383667,-0.4022135925,0.1442999268,0.5200399224
22.62497742,0.7979905701,-0.03876937866,0.3080593872,0.8562666645
22.63491742,2.242636414,0.6253994751,0.7018904114,2.431705726
22.64485742,4.841082916,1.466949463,1.257085876,5.212320925
22.65479742,8.818162537,2.147883453,1.393452301,9.182325586
22.66473742,13.49773132,2.078876953,0.830173645,13.68209299
22.67467742,18.52637421,0.839304657,0.7577243042,18.56084911
22.68461742,22.45585281,-0.674197998,0.9431886292,22.48576157
22.69455842,27.77803528,-2.814297638,1.700014801,27.97194247
22.70449842,27.83835983,-2.488874359,0.9190887451,27.96450425
22.71443842,28.3696051,-1.038540344,0.7716453552,28.39909323
22.72437842,26.59235092,-1.073717194,1.913021851,26.68268444
22.73431842,22.63802399,-1.869013367,3.897744598,23.04703352
22.74425842,19.87357269,-2.004481659,3.866759033,20.34523688
22.75419842,22.09076202,-0.7762857056,3.578458557,22.3921806
22.76413842,24.36872498,-0.6906637573,2.919678497,24.55272482
22.77407842,22.11590973,-0.528999939,2.059567108,22.21790091
22.78401842,18.26546677,-0.6201603699,5.624403992,19.12186694
22.79395942,15.33022064,-1.644480286,13.34400101,20.39074161
22.80389942,11.36766083,-1.758393402,12.27103226,16.81944983
22.81383942,2.144141235,5.016069031,-14.65063385,15.6332774
22.82377942,-0.8297245789,4.834646301,-14.46501984,15.27412998
22.83371942,1.594184875,2.12483139,-9.329948273,9.700735468
22.84365942,0.1670526123,-0.03083587646,-5.150040436,5.152841344
22.85359942,-1.936972046,-0.8722361755,-2.179767151,3.043688796
22.86353942,-2.745590515,-0.6541397095,-1.146914978,3.046568562
22.87347942,-3.212170258,-0.02544708252,-0.710123291,3.289826805
22.88341942,-3.056643677,1.294657745,-0.7171586609,3.396104502
22.89336042,-0.9806108093,1.351539459,-1.133742371,2.018323124
22.90330042,0.610430603,0.7447013855,-0.254021759,0.9958577854
22.91324042,0.7417076111,0.7144642639,-0.6864724731,1.237672744
22.92318042,0.8077203369,0.06256988525,-0.3791615295,0.8944778358
22.93312042,0.6918612671,-0.2505789185,-0.1823208618,0.7580914878
22.94306042,0.6198609924,-0.3011737061,-0.02230361938,0.6895148313
22.95300042,0.4070036316,-0.3799099731,0.5804928589,0.8043354419
22.96294042,0.8092172241,-0.05613327026,1.20514389,1.452706184
22.97288042,2.625540161,0.920735321,1.446891174,3.136033919
22.98282042,5.782175903,2.292632446,2.094145203,6.563167363
22.99276142,9.219328308,3.142115936,2.258952484,9.998588567
23.00270142,14.27027481,2.061213684,2.029329987,14.56047819
23.01264142,18.16188217,-1.573677521,2.561922455,18.40907036
23.02258142,20.84175934,-3.516786804,1.635498962,21.19956553
23.03252142,25.38720703,-4.649331665,1.606609039,25.85938434
23.04246142,29.00054306,-3.699556732,-0.3917353821,29.23818863
23.05240142,30.59996704,-1.606459351,-0.1839674377,30.6426588
23.06234142,27.74106216,-1.668729858,2.081122284,27.8690197
23.07228142,23.66428986,-3.187621307,4.20760025,24.2458954
23.08222142,21.45877625,-2.374212799,4.055965576,21.9674036
23.09216242,23.68674316,-1.410367126,3.700005798,24.01543212
23.10210242,24.35136108,-0.7753875732,3.726650391,24.64706749
23.11204242,20.15109558,0.3953279114,2.871329041,20.3584741
23.12198242,17.09520035,0.00419128418,6.638844452,18.33903346
23.13192242,14.51531525,-1.206640778,13.43725708,19.81691794
23.14186242,9.536967773,-0.2568658447,8.572822723,12.82626305
23.15180242,1.424587555,4.562961273,-15.0919162,15.83085594
23.16174242,0.05313949585,4.706662445,-13.33576813,14.14207222
23.17168242,2.9368927,2.318079529,-8.755143585,9.521101335
23.18162242,1.711391144,0.7384144592,-4.966671753,5.304898101
23.19156342,-0.3228785706,0.8129594421,-3.032992859,3.156611998
23.20150342,-1.682950287,0.892893219,-2.780767365,3.370793246
23.21144342,-2.215842133,0.7930508423,-2.211351471,3.22939024
23.22138342,-1.887574768,0.4707710266,-1.736987915,2.608005154
23.23132342,-0.9300160217,0.3659889221,-1.247805176,1.598716813
23.24126342,-0.3381468201,0.5760021973,-1.46141098,1.606811705
23.25120342,0.6063890076,-0.7951464844,-0.6836283875,1.211327095
23.26114342,0.2553689575,-1.658700714,0.8168513489,1.866479973
23.27108342,-0.2338137817,-1.390458527,0.4908293152,1.492969261
23.28102342,-0.3112028503,-1.479673004,0.6673123169,1.65275078
23.29096342,-0.2059716797,-1.203796692,1.152902527,1.679504404
23.30090442,0.01556762695,-0.5960604858,1.774410095,1.871913898
23.31084442,0.734223175,0.6054908752,1.825004883,2.058238493
23.32078442,3.068918152,2.10267746,1.734592896,4.104670953
23.33072442,6.698570251,2.993924103,1.411864014,7.471799311
23.34066392,10.77983322,2.819087677,1.577719116,11.25349978
23.35060392,14.03047348,2.590063934,1.688638458,14.3671193
23.36054392,19.20880508,1.076710968,2.480192413,19.39816625
23.37048392,22.68203247,0.2734812927,0.7042854309,22.69461185
23.38042392,28.3749939,-1.2753479,-0.4034111023,28.40650509
23.39036392,32.66806641,-2.898722076,-2.188299408,32.86934448
23.40030492,32.61133438,-3.682641907,-0.6533912659,32.82511084
23.41024492,25.58180237,-4.672084351,2.365830231,26.11233688
23.42018492,19.86474106,-4.123475189,3.490591278,20.586287
23.43012492,20.24270508,-2.312541046,3.304528198,20.64061195
23.44006492,25.25383438,-1.00396225,3.946243744,25.58001038
23.45000492,24.96119293,-1.184187469,3.461551666,25.22787729
23.45994492,20.26530807,-1.252445526,4.745731201,20.85121809
23.46988492,17.64515671,-2.020049286,11.59518768,21.21038736
23.47982492,15.01647308,-2.290836182,15.61627579,21.78555631
23.48976492,6.894662476,2.365081787,-10.49811905,12.78047284
23.49970592,2.769241333,4.94242218,-12.73671387,13.93987499
23.50964592,5.092110901,2.368674316,-8.218060455,9.953729406
23.51958592,5.283263397,0.07529342651,-4.826114044,7.156110535
23.52952592,3.56408844,0.1001417542,-2.027683411,4.101738021
23.53946592,2.105371857,0.5408253479,-1.404978333,2.588251693
23.54940592,0.7276368713,1.079255676,-1.620679779,2.07866572
23.55934592,-0.2877017212,1.040935364,-1.947450256,2.226854556
23.56928592,-0.6979985046,0.8138575745,-2.023492126,2.289997041
23.57922592,-0.9279203796,0.6036946106,-1.667083282,2.001162183
23.58916592,-0.7295828247,0.4914280701,-1.395398254,1.649523851
23.59910692,-0.3918850708,0.3718267822,-1.154249725,1.274410253
23.60904692,-0.373024292,0.08053253174,-0.6571334839,0.7599059328
23.61898692,-0.1413061523,-0.2549198914,-0.5472619629,0.6200380922
23.62892692,0.1842668152,-0.3867956543,-0.3155438232,0.532102473
23.63886692,0.2692900085,-0.4879852295,-0.1013392639,0.5664947831
23.64880692,0.1233435059,-0.4842430115,0.217048645,0.5448073319
23.65874692,0.02514770508,-0.3177891541,0.5887257385,0.6694926054
23.66868692,0.3836521912,0.1977388,0.8830137634,0.9828544873
23.67862692,1.647773438,1.077908478,1.360221405,2.393166576
23.68856692,3.867956543,1.765129395,1.942211151,4.674286443
23.69850792,6.528823242,1.915117493,2.417472839,7.220622055
23.70844792,9.344767456,1.53520752,2.620899811,9.826019375
23.71838792,12.14933533,1.309027863,2.845582581,12.54660285
23.72832792,15.7475528,1.276844788,2.70876709,16.02975891
23.73826792,20.76646591,1.169667664,2.055525513,20.90070367
23.74820792,26.43442932,0.4522096252,1.87335434,26.50458458
23.75814792,31.3994545,-1.047072601,1.835632782,31.47048858
23.76808792,32.66986267,-3.318299561,1.504521332,32.87239911
23.77802792,29.94672546,-4.982089691,2.635419617,30.47249613
23.78796792,25.44438812,-4.843927002,4.466412048,26.28363278
23.79790792,22.75567932,-2.703228607,5.548811188,23.57790686
23.80784892,24.87227783,-0.2140548706,4.195325775,25.2245274
23.81778892,25.18677383,0.2829116821,3.602109375,25.44462236
23.82772892,19.83555176,0.5559439087,3.669768677,20.1798263
23.83766892,16.30080231,-0.5614823914,11.77960419,20.11940588
23.84760892,13.35163513,-0.4710704041,17.11870148,21.71492593
23.85754892,8.095166016,3.854035492,-9.259295197,12.88874897
23.86748892,4.745431824,5.442681885,-12.84074753,14.73182631
23.87742892,6.245761871,3.326682129,-9.113947449,11.53864782
23.88736892,7.990383911,0.6313870239,-6.030958557,10.03081979
23.89730892,5.288203125,-1.148860931,-1.882784729,5.729734031
23.90724992,2.716550903,-1.055604858,-0.005239105225,2.914442979
23.91718992,0.8666976929,-0.9228309631,-0.0217048645,1.266196264
23.92712992,-0.6724017334,-1.044827271,0.1472937012,1.251192851
23.93706992,-1.820514221,-0.6923103333,-0.03203338623,1.947971192
23.94700992,-2.124681702,-0.07694000244,-0.2968327332,2.146695546
23.95694992,-2.246079254,0.8113128662,-1.401834869,2.769159003
23.96688992,-2.111209717,-0.7132667542,-0.2011816406,2.237505304
23.97682992,-2.571352844,-0.2823129272,-0.6843768311,2.675804119
23.98676992,-2.370769958,-0.2537223816,-0.3132984924,2.404803773
23.99670992,-1.925595703,-0.1595681763,0.04640350342,1.932752985
24.00665092,-1.773661652,0.0809815979,0.3234773254,1.804735785
24.01659092,-1.384620667,0.4263134766,0.2683918762,1.473415003
24.02653092,-0.7198530579,0.8220904541,0.5379812622,1.21796756
24.03647092,0.3706292725,1.647623749,1.311572571,2.138282648
24.04641092,2.538571014,3.019520874,1.790426788,4.332144641
24.05635092,5.645510101,4.165388031,1.542691956,7.183462969
24.06629092,8.702602844,3.816313934,1.571731567,9.631712643
24.07623092,10.71876022,2.05821991,1.118474121,10.9717398
24.08617092,15.12439865,-1.992207184,2.477647705,15.4549365
24.09611092,17.46433273,-3.809727631,1.580413513,17.94476663
24.10605092,23.20519455,-3.505859528,0.05269042969,23.46859351
24.11599192,28.86178162,-3.483705597,-0.5129832458,29.07579396
24.12593192,31.89492416,-3.653602295,0.1407073975,32.10381279
24.13587192,31.11459686,-3.151546326,1.134041748,31.29435145
24.14581192,28.04882217,-3.228336639,2.775079193,28.37004842
24.15575192,24.25181808,-3.841910706,4.238735504,24.91742035
24.16569192,21.94541428,-2.085912323,5.431006165,22.70348136
24.17563192,21.04383911,-0.8809181213,4.920717316,21.6294392
24.18557192,23.95648224,-2.420466614,4.188290405,24.43999747
24.19551192,23.69901764,-1.380279694,3.376977539,23.97816895
24.20545192,18.63983826,-0.8437953186,9.555828552,20.96352595
24.21539292,14.60991852,-2.236499176,20.8023912,25.51844681
24.22533292,9.319320374,1.852547607,1.732497253,9.658323436
24.23527292,3.735631714,4.963827667,-15.95726669,17.1239274
24.24521292,4.135300598,1.383123779,-10.32672546,11.20959416
24.25515292,7.37157074,-2.213896179,-5.318739624,9.355767347
24.26509292,4.207749939,-2.736160126,-0.8261320496,5.086671401
24.27503292,1.391057281,-0.9788145447,0.6033952332,1.804772584
24.28497292,-0.6078858948,0.6506968689,-0.1811233521,0.9087009106
24.29491292,-1.82889679,1.048569489,-1.003064117,2.334630391
24.30485292,-2.235151978,0.7548802185,-1.423839111,2.755551909
24.31479292,-1.623523865,-0.9386979675,-1.282682648,2.272060384
24.32473392,-0.9372010803,-0.9639953613,-1.380279694,1.926864021
24.33467392,-0.2627037048,-1.118923187,-1.262175293,1.70707024
24.34461371,0.3049159241,-0.9050180054,-0.7159611511,1.193579357
24.35455371,0.5474116516,-0.4492158508,-0.162412262,0.7265205708
24.36449371,0.4611909485,0.1182540894,0.1511856079,0.4995379952
24.37443371,0.1002914429,0.6358776855,0.1326242065,0.6572579286
24.38437371,-0.3222798157,1.364861755,-0.1731898499,1.413048695
24.39431371,-0.1416055298,0.6119274902,0.5426216125,0.8300274657
24.40425371,-0.07634124756,0.3305126953,0.3150947571,0.4629809216
24.41419371,1.073567505,0.6030958557,0.1538800049,1.240947563
24.42413371,3.848796387,0.6477030945,0.7954458618,3.983150392
24.43407471,6.582411804,-0.1812730408,1.415306854,6.735287564
24.44401471,9.216633911,-1.199156342,0.4471202087,9.305064915
24.45395471,12.60828094,-2.443818054,-0.09116043091,12.84325914
24.46389471,16.217276,-1.637295227,-0.2847079468,16.30220338
24.47383471,21.63705551,-0.6134243774,0.6406677246,21.65522837
24.48377471,24.75043121,0.4272116089,0.2661465454,24.75554865
24.49371471,28.83783142,0.04071533203,1.134041748,28.86014951
24.50365471,31.07208527,-1.381028137,2.14833252,31.17686729
24.51359471,28.7146376,-3.706292725,2.422711945,29.05402815
24.52353471,25.7272998,-5.247637482,3.312312012,26.46512923
24.53347571,23.02691528,-5.348527679,5.070705414,24.17762662
24.54341571,20.23671753,-4.135599976,5.753884735,21.44143449
24.55335571,22.08612167,-3.069965973,5.937253418,23.07536435
24.56329571,23.82445679,-2.947221222,5.467530212,24.62081925
24.57323571,19.03845932,-1.999990997,11.23473724,22.19644607
24.58317571,16.78998505,-4.370012512,14.50842957,22.61625822
24.59311571,9.633966064,1.306782532,-7.066056061,12.01874082
24.60305571,3.293301544,3.613336029,-9.564959564,10.74199627
24.61299571,5.783223724,2.165995789,-7.801177368,9.949652393
24.62293571,6.146667938,-0.07005432129,-4.299359436,7.501394931
24.63287571,3.827540588,0.3914360046,-1.385818176,4.089471985
24.64281671,2.132166138,0.6129753113,-1.535506897,2.698083135
24.65275671,0.4596940613,1.088237,-2.709365845,2.955713396
24.66269671,-1.003363495,1.084345093,-2.543660431,2.941555876
24.67263671,-1.557211761,0.4254153442,-2.537523193,3.007475792
24.68257671,-1.212628326,-0.9485774231,-2.049687653,2.563490991
24.69251671,-0.9081614685,-0.9113049316,-1.539249115,2.006121075
24.70245671,-0.6786886597,-0.9605525208,-0.713865509,1.375820994
24.71239671,-0.9931846619,-1.039288788,-0.5710624695,1.546819091
24.72233671,-0.9066645813,-1.154698792,-0.4354444885,1.531333362
24.73227671,-0.5551954651,-1.31052475,-0.0477507019,1.424077685
24.74221771,-0.1320254517,-1.195414124,0.2076182556,1.220471625
24.75215771,-0.0462538147,-1.11982132,0.5998027039,1.271181532
24.76209771,-0.1589694214,-1.356928253,1.065484314,1.732565261
24.77203771,-0.2960842896,-1.722468109,1.60062149,2.369926465
24.78197771,0.1724414062,-1.631607056,2.353106689,2.868621396
24.79191771,1.936972046,-0.6611750793,2.918331299,3.564501475
24.80185771,4.865931244,0.1121168518,3.11592041,5.779170967
24.81179771,8.037236481,0.1654060364,3.080593872,8.608982983
24.82173771,11.10450806,-0.6264472961,2.718496857,11.44957469
24.83167771,14.9127388,-0.9975256348,2.19623291,15.10656397
24.84161771,20.01083725,-0.5655239868,1.449286194,20.07121958
