Time (s),Acceleration x (m/s^2),Acceleration y (m/s^2),Acceleration z (m/s^2),Absolute acceleration (m/s^2)
29.82195196,-5.935157776,-7.972870331,0.4564009094,9.949927684
29.83189096,-5.708229675,-8.395142212,0.2689906311,10.15552336
29.84182996,-5.389841766,-8.805139618,0.217048645,10.3260829
29.85176896,-4.957540741,-8.955277405,0.4917274475,10.24773143
29.86170796,-4.531975708,-8.907676392,1.242715759,10.0712385
29.87164696,-4.145180054,-8.663384399,2.287842407,9.872738719
29.88158596,-3.92094635,-8.424481201,2.913391571,9.738252114
29.89152496,-4.093836823,-8.508606262,2.544109497,9.778976101
29.90146396,-4.790039062,-9.031618652,1.292562103,10.30462646
29.91140196,-5.934559021,-9.780960388,0.1284329224,11.44127055
29.92134196,-7.145840149,-10.22927811,-0.107177124,12.47848745
29.93127996,-7.994575195,-10.09366013,0.2007325745,12.87771334
29.94121896,-8.434959412,-9.59115509,0.4541555786,12.78065153
29.95115796,-8.615633698,-9.154064026,0.6393205261,12.58708715
29.96109696,-8.722661133,-8.819360046,0.8794212341,12.43540553
29.97103596,-8.777297516,-8.78388382,1.142873383,12.47011332
29.98097496,-8.984915771,-9.278155975,2.022144928,13.07294763
29.99091396,-9.345964966,-9.912237396,3.508404236,14.06799245
30.00085296,-9.585915985,-10.36399796,5.278024292,15.0718207
30.01079196,-9.538015594,-10.46758255,6.702611847,15.66745134
30.02073096,-9.052874451,-9.886341248,4.68390976,14.19976372
30.03066996,-8.302634583,-8.61533432,1.651815033,12.07833678
30.04060896,-7.76824585,-8.083190918,2.150278473,11.41522302
30.05054796,-7.223528595,-8.742120667,3.27503952,11.80380968
30.06048696,-6.70575531,-10.05069946,1.61469223,12.18978855
30.07042596,-5.830824738,-11.28338608,-0.8190966797,12.72730285
30.08036496,-5.423671417,-12.21370148,-2.302062836,13.5606124
30.09030396,-5.370831299,-12.77638138,-3.363206177,14.26158847
30.10024296,-5.199437714,-13.24879898,-3.611988831,14.68370833
30.11018196,-4.573289795,-14.01715118,-2.59994339,14.97181393
30.12012096,-4.226161652,-14.93204865,-1.359173584,15.57799319
30.13005996,-4.361929321,-15.47362244,-0.7009922791,16.09194857
30.13999896,-4.688400421,-15.24265274,-0.4221221924,15.95298556
30.14993796,-5.097649384,-14.71305405,0.2415975952,15.57300093
30.15987696,-5.368286591,-14.18824539,1.004111938,15.20306051
30.16981596,-5.035977631,-13.32993027,1.641336823,14.34371285
30.17975496,-4.147425385,-11.74143356,1.418899384,12.53298348
30.18969396,-3.447480927,-10.15129028,0.8063731384,10.75100259
30.19963296,-2.58707016,-9.030271454,0.4622387695,9.404913568
30.20957196,-2.130519562,-8.307274933,-0.237406311,8.579410945
30.21951096,-2.12842392,-7.73426651,-1.527124329,8.165854245
30.22944996,-1.901046753,-7.462880859,-2.068099365,7.974058218
30.23938896,-1.926044769,-7.440277863,-1.173709259,7.774636747
30.24932796,-2.032772827,-7.267686768,0.3116519165,7.553049929
30.25926696,-1.940564575,-6.899452515,0.7500901794,7.206307733
30.26920596,-1.789828033,-6.463409271,0.2885998535,6.712855851
30.27914496,-1.953587494,-6.025869141,0.1730401611,6.336998177
30.28908396,-2.538271637,-5.606740723,0.5387297058,6.178073659
30.29902296,-2.90650589,-5.426365814,0.522563324,6.177887573
30.30896196,-2.813698883,-5.625451813,-0.2342628479,6.294242495
30.31890096,-2.26763443,-5.893394623,-1.200353851,6.427683522
30.32883996,-1.251547394,-5.952671356,-1.844913483,6.356443417
30.33877896,-0.009729766846,-5.898484039,-1.847308502,6.180999703
30.34871796,1.150357819,-5.85163147,-1.617536316,6.179104927
30.35865696,2.191293182,-5.82229248,-1.32684082,6.360924626
30.36859596,3.045566711,-5.790558472,-0.9792636108,6.615512167
30.37853496,3.54882019,-5.724246368,-0.2767744446,6.740751095
30.38847346,3.692671051,-5.698200531,0.6044430542,6.81693921
30.39841246,3.848946075,-5.775888977,1.649270325,7.13409924
30.40835146,3.828438721,-6.036047974,2.838547211,7.690784644
30.41829046,2.487377472,-6.380781097,3.632945251,7.75239997
30.42822946,-1.019829254,-6.494993591,4.610412598,8.029999862
30.43816846,-4.809947662,-7.106172638,6.086044006,10.52013392
30.44810746,-9.047485657,-8.472830658,8.58839035,15.07999685
30.45804646,-14.29946411,-10.14739838,13.2552356,21.98057411
30.46798546,-17.78137344,-11.46480881,15.67136124,26.32889374
30.47792446,-17.49741394,-11.7754129,11.31392258,23.93375624
30.48786346,-17.34562958,-11.00361786,7.698490906,21.93666414
30.49780246,-17.54157211,-9.464518433,6.907086639,21.09482655
30.50774146,-16.02941666,-7.263794861,3.577560425,17.95839226
30.51767946,-13.87479721,-4.647984467,0.8048762512,14.65474609
30.52761846,-11.56659714,-2.649490356,0.4207749939,11.87362708
30.53755746,-10.30067963,-2.469115448,1.120719452,10.65159819
30.54749646,-9.343719635,-4.26029068,-2.814746704,10.64790929
30.55743546,-6.789431305,-7.941735077,-7.754474487,13.0115106
30.56737446,-4.212689667,-11.09792175,-8.07361084,14.35596787
30.57731346,-2.341131592,-12.34183502,-2.380649414,12.78551057
30.58725246,-0.1405577087,-12.50619324,13.07905197,18.09658051
30.59719146,-1.672472076,-12.43045074,10.95975906,16.65621768
30.60713046,-3.18268158,-13.44279556,-0.8357121277,13.83967591
30.61706946,-2.061812439,-14.19258636,-1.995200958,14.4796894
30.62700846,0.1974394226,-13.04357574,0.8726852417,13.0742277
30.63694746,0.8896000671,-10.85632416,-0.3519181824,10.89839479
30.64688646,-0.05448669434,-9.38174057,-1.815724182,9.555986565
30.65682546,0.07185058594,-8.684041443,-1.347198486,8.788212677
30.66676446,-0.04400848389,-8.545279999,-1.499282227,8.675920366
30.67670346,-0.4260140991,-8.897048492,-1.947599945,9.117680924
30.68664246,-0.7860154724,-9.477391663,-2.717299347,9.890525203
30.69658146,-1.207389221,-10.07704468,-3.636088715,10.78080513
30.70652046,-1.517095184,-10.32193542,-4.132007446,11.2212929
30.71645946,-1.671124878,-9.996512146,-4.186045074,10.96566855
30.72639846,-1.873953094,-9.362879791,-3.86361557,10.3006186
30.73633746,-1.820813599,-8.552764435,-3.503913574,9.420326532
30.74627646,-1.799258423,-7.931855621,-3.111130371,8.708088002
30.75621546,-2.093396759,-7.886499939,-2.810106354,8.629941425
30.76615446,-2.52734436,-8.432564392,-2.412982178,9.127874601
30.77609346,-3.039429474,-9.198820953,-1.971101074,9.886439091
30.78603246,-3.43071579,-9.651928711,-1.452429657,10.34596977
30.79597146,-3.74655899,-9.794582062,-0.8584648132,10.52176334
30.80591046,-4.117337952,-9.73515564,3.430566101,11.11280842
30.81584946,-3.772754517,-8.990154877,7.324418793,12.19441151
30.82578846,-3.678899689,-8.600964203,1.165177002,9.427010427
30.83572746,-4.074976044,-8.64931366,-1.041534119,9.617736213
30.84566646,-3.868106232,-8.33332077,-0.7934999084,9.221503293
30.85560546,-3.644920349,-7.74953476,0.07798782349,8.564275535
30.86554446,-3.890260162,-7.457042999,1.093326416,8.4815669
30.87548346,-4.545447693,-7.597750397,0.9136999512,8.90066028
30.88542246,-5.002746735,-7.787406006,0.1005908203,9.256418622
30.89536146,-4.899311829,-7.939489746,-0.5260061646,9.344272915
30.90530046,-4.928501129,-7.886799316,-0.8527766418,9.339108889
30.91523946,-5.136119385,-7.787855072,-0.9219328308,9.374453003
30.92517846,-5.398074646,-7.881260834,-0.5968089294,9.571293701
30.93511746,-6.130501556,-7.928113403,0.2044747925,10.02396336
30.94505646,-6.54079834,-7.872728577,0.9943821716,10.28351565
30.95499546,-6.232289886,-8.051905975,1.270258484,10.26100305
30.96493446,-5.566025391,-8.449329529,1.057251434,10.17298328
30.97487346,-4.773872681,-8.862620087,0.7795788574,10.09671424
30.98481246,-4.144581299,-8.933871918,0.8349636841,9.883763754
30.99475146,-3.83083374,-8.687184906,1.263821869,9.578085114
31.00469046,-4.041595459,-8.507259064,1.541793823,9.543850314
31.01462946,-4.604125671,-8.612340546,1.252744904,9.845798732
31.02456846,-5.171595612,-8.980574799,0.5153782654,10.37601752
31.03450746,-5.434449005,-9.298363953,-0.09280700684,10.7703956
31.04444646,-5.579796753,-9.401349792,-0.1193019104,10.9331488
31.05438546,-5.834716644,-9.454938354,0.1026864624,11.11082005
31.06432446,-6.337970123,-9.553134155,0.1369651794,11.46520811
31.07426346,-6.928941193,-9.599837036,0.0773890686,11.83947154
31.08420246,-7.504045258,-9.583670654,0.2294728088,12.1741569
31.09414146,-8.057294769,-9.583221588,0.5119354248,12.53077064
31.10408046,-8.539891205,-9.671687622,0.689765625,12.92079951
31.11401946,-9.11140274,-10.0143251,0.8616082764,13.56638257
31.12395846,-9.838590546,-10.49647247,1.3841716,14.453018
31.13389746,-10.26310776,-10.65364563,2.93105484,15.08053807
31.14383646,-10.03049149,-10.09635452,6.462810516,15.63058073
31.15377546,-9.543703766,-9.128167877,10.01866608,16.57647129
31.16371446,-8.738528137,-8.413853302,5.600453796,13.36113334
31.17365346,-6.917265472,-8.144413605,1.209335175,10.7537215
31.18359246,-5.467679901,-8.339907074,3.047662354,10.42774277
31.19353146,-4.766537933,-9.161099396,4.025279388,11.08370426
31.20347046,-4.482279053,-10.49512527,1.92948761,11.57416962
31.21340946,-5.268144836,-11.61374908,-1.528920593,12.84406929
31.22334846,-5.965245209,-12.06550964,-4.237987061,14.11103142
31.23328746,-5.81884964,-12.35530701,-4.734055481,14.45420021
31.24322646,-5.482948151,-13.20748489,-3.228336639,14.66023653
31.25316546,-5.559439087,-14.61710358,-0.9053173828,15.664823
31.26310446,-5.849535828,-15.4926329,0.2109114075,16.56149834
31.27304346,-5.433101807,-15.29010406,-0.0722996521,16.22686368
31.28298246,-4.559219055,-14.73700424,-0.03667373657,15.42618285
31.29292146,-3.935466156,-14.19887329,0.3751199341,14.73894879
31.30286046,-3.833827515,-13.37049591,0.8514294434,13.93532656
31.31279846,-3.772155762,-12.25007584,1.33971405,12.88752695
31.32273746,-3.015778656,-10.80752563,1.692380676,11.34732055
31.33267646,-2.647095337,-9.525890808,0.796942749,9.918912599
31.34261546,-2.572550354,-8.554411011,-0.1919009399,8.934919643
31.35255446,-2.354902954,-7.794291687,-0.9220825195,8.194314309
31.36249346,-2.168091431,-7.528594208,-1.168619843,7.921238763
31.37243246,-1.988464966,-7.4265065,-0.9819580078,7.750563415
31.38237146,-1.944456482,-7.281009064,-0.5941145325,7.559561897
31.39231108,-1.820813599,-7.040908356,0.1246907043,7.273602987
31.40225008,-1.809886322,-6.634952545,0.7372169495,6.916774726
31.41218908,-2.036065979,-6.304739227,1.024469604,6.704091241
31.42212808,-2.527793427,-6.0622435,1.088087311,6.657662492
31.43206708,-3.019520874,-5.915249176,0.662971344,6.674369643
31.44200608,-3.246748352,-5.87034256,-0.03427871704,6.70846269
31.45194508,-3.054847412,-5.939049683,-0.633482666,6.70862908
31.46188408,-1.855990448,-6.154900818,-0.7890092468,6.47688507
31.47182308,0.02005828857,-6.29036911,-0.6315367126,6.322023766
31.48176208,1.44150238,-6.438860321,-0.5313949585,6.619609652
31.49170108,2.545905762,-6.605314178,-0.4388873291,7.092561852
31.50164008,3.326831818,-6.62507309,-0.2507286072,7.417699658
31.51157908,3.491190033,-6.580765228,0.1401086426,7.450805948
31.52151808,3.235521698,-6.511010284,0.4589456177,7.285086593
31.53145708,2.831362152,-6.465205536,0.8464897156,7.108589107
31.54139608,2.058369598,-6.426735535,1.799857178,6.984217987
31.55133508,-0.09490264893,-6.24127121,2.728526001,6.812292343
31.56127408,-2.916235657,-6.129753113,4.039948883,7.899334821
31.57121308,-5.730682983,-6.5758255,5.854475555,10.5050984
31.58115208,-8.839118958,-7.426955566,7.684569855,13.86875289
31.59109108,-12.71860153,-8.458759918,10.84599564,18.73363461
31.60103008,-15.78243027,-9.092541962,13.06662781,22.41642672
31.61096908,-16.71334442,-9.072184296,12.17642899,22.58109458
31.62090808,-17.97581909,-8.736432495,10.47506699,22.56506931
31.63084708,-19.08561127,-8.118218079,7.809559937,22.16202267
31.64078608,-18.25483887,-7.01351532,2.68302063,19.73897512
31.65072508,-14.80137039,-5.876479797,-1.61588974,16.00701971
31.66066408,-10.50021469,-5.014871521,-2.1459375,11.83251844
31.67060308,-8.500074005,-4.450844421,-1.437610474,9.701958464
31.68054208,-7.42530899,-5.240901489,-2.884052582,9.535199071
31.69048108,-5.770051117,-7.7038797,-5.739664307,11.20656052
31.70042008,-4.195325775,-10.18990997,-6.155200195,12.6222626
31.71035908,-3.124302979,-11.98871933,-1.484762421,12.47778745
31.72029808,-0.8713380432,-13.56299561,14.00308044,19.51410622
31.73023708,-0.7300318909,-13.94440247,13.40492432,19.35642794
31.74017608,-1.562600555,-13.78663055,-0.1555265808,13.87577353
31.75011508,-0.2360591125,-12.45440094,-3.14166687,12.84670765
31.76005408,1.350491638,-10.25771896,-0.5792953491,10.36244224
31.76999308,1.301393738,-8.607849884,-0.296383667,8.710714584
31.77993208,-0.2412982178,-7.931406555,-1.814376984,8.139864778
31.78987108,-0.7635621643,-7.773185577,-2.193089447,8.112649538
31.79981008,-1.093176727,-8.010591888,-2.118394775,8.357763707
31.80974908,-1.581311646,-8.606652374,-2.175725555,9.017138865
31.81968808,-1.970801697,-9.410929871,-2.674188995,9.980027412
31.82962708,-2.116897888,-10.22882904,-3.47053299,11.00703409
31.83956608,-2.105970612,-10.63598236,-3.944297791,11.53762185
31.84950508,-2.391127625,-10.6473587,-3.9454953,11.60390761
31.85944408,-2.867287445,-10.28256729,-3.781286774,11.32478066
31.86938308,-2.808010712,-9.553134155,-3.403622131,10.5229245
31.87932208,-2.640808411,-8.925639038,-3.054548035,9.79648738
31.88926108,-2.752326508,-8.804391174,-2.750081177,9.625775378
31.89920008,-3.057841187,-9.132658539,-2.276765442,9.896439036
31.90913908,-3.398832092,-9.509724426,-1.601669312,10.22508009
31.91907808,-3.707190857,-9.740544434,-0.3478765869,10.42796663
31.92901708,-3.729195099,-9.672735443,5.530549164,11.74970983
31.93895608,-3.049608307,-9.358538818,3.954177246,10.60744443
31.94889508,-3.248394928,-9.220376129,-0.4578977966,9.786576315
31.95883408,-3.548670502,-8.956025848,-0.9406439209,9.679270237
31.96877308,-3.469485168,-8.43630661,-0.7403604126,9.151870306
31.97871208,-3.285817108,-7.842042389,-0.3423381042,8.509489895
31.98865108,-3.410507812,-7.507039032,0.07244934082,8.245753299
31.99859008,-3.750899963,-7.555538177,0.1960922241,8.437645397
32.00852908,-4.118086395,-7.816894684,-0.2146536255,8.837904403
32.01846808,-4.369563446,-8.066874847,-0.9078620911,9.219098008
32.02840708,-4.626129913,-8.291557617,-1.437460785,9.60298387
32.03834608,-4.748874664,-8.469986572,-1.568887482,9.836355577
32.04828508,-4.755011902,-8.32404007,-1.179696808,9.658750738
32.05822408,-4.945715332,-7.894134064,-0.296383667,9.320155366
32.06816308,-5.135670319,-7.676636353,0.6801855469,9.261128856
32.07810208,-5.121749268,-7.900570679,1.02611618,9.471232603
32.08804108,-4.871320038,-8.465196533,1.09048233,9.827434201
32.09798008,-4.440066833,-9.043743439,1.340312805,10.16365718
32.10791908,-3.909570007,-9.41571991,1.635199585,10.32542477
32.11785808,-3.617377625,-9.56540863,1.82186142,10.38757152
32.12779708,-3.855981445,-9.376651154,1.879042511,10.31120655
32.13773608,-4.533173218,-8.991202698,1.724264374,10.21589316
32.14767508,-5.708379364,-8.759634247,1.144220581,10.51789085
32.15761408,-7.06964859,-8.805438995,0.1448986816,11.29321401
32.16755308,-8.029302979,-9.017697601,-0.7237449646,12.09596557
32.17749208,-8.411607971,-9.072633362,-0.9565109253,12.40897812
32.18743108,-8.555758209,-8.824150085,-0.51717453,12.30179226
32.19737008,-8.65634903,-8.487949219,0.1151106262,12.12398082
32.20730908,-8.652008057,-8.176746368,0.6679110718,11.92319294
32.21724808,-8.526119843,-7.969128113,1.228944397,11.73507677
32.22718708,-8.357420654,-8.198600922,1.588646393,11.81470839
32.23712608,-8.236921234,-8.962761841,1.765129395,12.3001485
32.24706508,-8.105494537,-9.927206268,2.058668976,12.98023821
32.25700408,-8.116721191,-10.86335953,2.61865448,13.81126694
32.26694308,-8.388406219,-11.53501282,3.516936493,14.68981695
32.27688208,-8.686586151,-11.53022278,5.406157837,15.41523139
32.28682108,-8.959768066,-10.52910461,7.283254395,15.62642897
32.29676008,-9.332792358,-9.06230484,4.644391937,13.81291999
32.30669908,-8.726103973,-8.300089874,-1.146316223,12.0975379
32.31663808,-7.540120239,-7.911947021,-0.5719606018,10.94438019
32.32657708,-6.375541992,-8.350684662,2.231260071,10.74057687
32.33651608,-5.684429169,-9.886940002,2.403701477,11.65513185
32.34645508,-5.689967651,-11.07067841,-0.3023712158,12.45098713
32.35639408,-5.798641663,-11.61719193,-2.679278412,13.25752338
32.36633308,-5.264552307,-12.22193436,-3.18268158,13.68285981
32.37627208,-4.86054245,-13.13937653,-2.581082611,14.24535278
32.38621062,-4.648882599,-14.278358,-1.534309387,15.09429435
32.39614962,-4.457131348,-15.56867477,-0.3939807129,16.19891585
32.40608862,-4.115092621,-16.52548508,0.5450166321,17.03885816
32.41602762,-3.873195648,-16.82935318,0.9449848938,17.29513716
32.42596662,-3.899989929,-16.4919548,1.088835754,16.98175662
32.43590562,-3.713028717,-15.53304886,0.6979985046,15.98591227
32.44584462,-3.236868896,-13.99903885,0.7150630188,14.38616433
32.45578362,-2.659519501,-11.88079376,0.8759783936,12.2062952
32.46572262,-2.282004547,-9.786798248,0.5551954651,10.06465135
32.47566162,-1.9083815,-8.450527039,0.0383203125,8.663417087
32.48560062,-1.861977997,-7.745193787,-0.9017248535,8.016738524
32.49553963,-1.903890839,-7.521558838,-1.516646118,7.905622248
32.50547862,-2.232158203,-7.424410858,-1.05306015,7.82389561
32.51541762,-2.589165802,-7.292535095,-0.5116360474,7.755425141
32.52535662,-2.724484406,-7.039561157,-0.05358856201,7.548583198
32.53529562,-2.624941406,-6.82984726,0.1577719116,7.318607993
32.54523462,-2.500699768,-6.656507721,0.1380130005,7.11207719
32.55517362,-2.584974518,-6.483018494,-0.1053808594,6.980166701
32.56511262,-2.67359024,-6.275400238,-0.5037025452,6.839769673
32.57505162,-2.564616852,-6.073320465,-1.034498749,6.673280208
32.58499062,-2.50983078,-5.891897736,-1.597478027,6.600427677
32.59492962,-2.165696411,-5.937253418,-1.691183167,6.542271746
32.60486862,-0.8878038025,-6.089935913,-1.352138214,6.301094569
32.61480762,0.3433859253,-6.18154541,-0.9511221313,6.263709034
32.62474662,1.184786224,-6.31147522,-0.7607180786,6.466616568
32.63468562,1.992057495,-6.356980591,-0.6051914978,6.689226566
32.64462462,2.773731995,-6.180796967,-0.37676651,6.785115572
32.65456362,3.253634033,-5.945486298,0.135617981,6.778888845
32.66450262,3.400328979,-5.74864563,0.9126521301,6.741075408
32.67444162,3.217259674,-5.69011734,1.922003174,6.813390592
32.68438062,1.615740051,-5.580694885,2.759361877,6.431862039
32.69431962,-1.255888367,-5.405858459,3.539689178,6.582549715
32.70425862,-4.162993011,-5.748495941,4.731959839,8.530366951
32.71419762,-7.492369537,-6.892866211,7.166048126,12.44987758
32.72413662,-11.59458893,-8.58839035,11.87196213,18.68524621
32.73407562,-16.04932526,-10.11296997,15.25088562,24.34014205
32.74401462,-16.68699921,-10.55709641,11.92195816,23.06602075
32.75395362,-15.8855658,-10.07045837,8.728199615,20.73515857
32.76389262,-15.88526642,-9.104367371,8.4152005,20.15060282
32.77383162,-14.75466751,-7.781867523,6.609655151,17.9428319
32.78377062,-11.83199524,-6.168522491,2.834355927,13.64112732
32.79370962,-8.448431396,-4.515060883,0.7773335266,9.610723971
32.80364862,-6.644532623,-3.303779755,0.8848100281,7.473129414
32.81358762,-5.711672516,-2.744542694,0.7012916565,6.375541351
32.82352662,-5.050347748,-4.058360596,-2.37765564,6.901416481
32.83346562,-3.776197357,-6.96321991,-5.335654449,9.550670468
32.84340462,-2.253264313,-10.05848328,-6.705006866,12.29664194
32.85334362,-1.640887756,-12.44676682,-2.58467514,12.81776355
32.86328262,-3.075953522,-13.93137955,9.946216736,17.39172371
32.87322162,-7.802823944,-15.2683992,10.90781708,20.3221197
32.88316062,-10.3925885,-17.85247559,4.216731262,21.08311179
32.89309962,-8.505612488,-18.20708817,1.305734711,20.13823345
32.90303862,-4.229604492,-14.53672073,-1.945204926,15.26399771
32.91297762,-0.4918771362,-10.56877213,-4.593048706,11.53416593
32.92291662,0.8967851257,-7.996970215,-2.91473877,8.558706577
32.93285562,1.726659393,-6.578819275,-0.6816824341,6.835708204
32.94279462,2.381547546,-5.910608826,0.1983375549,6.375453175
32.95273362,1.542691956,-6.090384979,-1.153501282,6.387742392
32.96267262,0.4998106384,-6.864275665,-2.243534546,7.238890684
32.97261162,-0.170944519,-7.80911087,-2.414179688,8.175554916
32.98255062,-1.108894043,-8.889264679,-3.189417572,9.508998737
32.99248962,-1.990710297,-9.934541016,-3.897894287,10.85594826
33.00242862,-2.576442261,-10.49692154,-3.962559814,11.5119632
33.01236762,-2.498604126,-10.36295013,-3.873345337,11.34180595
33.02230662,-1.952988739,-9.811047821,-3.469934235,10.58826086
33.03224562,-1.462309113,-9.297615509,-2.888692932,9.845229756
33.04218462,-1.376387787,-9.087302856,-2.517015839,9.529369616
33.05212362,-1.800306244,-9.248068542,-2.27931015,9.693458057
33.06206262,-2.474953308,-9.620643768,-2.083666992,10.15006643
33.07200162,-3.071762238,-9.927505646,-1.908082123,10.56559837
33.08194062,-3.461252289,-9.959389343,-1.511856079,10.65154507
33.09187962,-3.686084747,-9.614057465,-0.05763015747,10.2966326
33.10181863,-4.465663605,-9.019344177,5.545218658,11.49087337
33.11175762,-4.471202087,-8.528215485,3.336262207,10.19081709
33.12169662,-4.377047882,-8.49603241,-0.1088237,9.557874108
33.13163562,-4.212689667,-8.595874786,-1.193168793,9.64673361
33.14157462,-3.963907013,-8.414601746,-1.469045105,9.416802794
33.15151362,-3.951632538,-8.107440491,-1.500330048,9.143138481
33.16145262,-4.216282196,-7.746091919,-0.9258247375,8.867701338
33.17139162,-4.527335358,-7.482190704,0.3209326172,8.751167975
33.18133062,-4.750072174,-7.430697784,0.896635437,8.864672037
33.19126962,-4.977149963,-7.631729736,0.6993457031,9.138074466
33.20120862,-5.209317169,-7.821535034,0.3516188049,9.404096525
33.21114762,-5.522465973,-8.055648193,0.01152603149,9.766843456
33.22108662,-6.143524475,-8.254734192,-0.04805007935,10.29008447
33.23102562,-6.495292969,-8.388855286,-0.01257385254,10.60951846
33.24096462,-6.307433624,-8.484506378,0.1272354126,10.57292562
33.25090362,-5.759572906,-8.535250854,0.4180805969,10.30524035
33.26084262,-5.200485535,-8.581804047,0.8792715454,10.07300992
33.27078162,-4.711003418,-8.591234436,1.435963898,9.90277005
33.28072062,-4.341122589,-8.436007233,1.897454224,9.675324072
33.29065962,-4.296964417,-8.235574036,1.897753601,9.481036421
33.30059862,-4.558320923,-8.279881897,1.31052475,9.542128116
33.31053762,-5.03253479,-8.617879028,0.4315525818,9.989018119
33.32047662,-5.54970932,-9.028624878,-0.1489402771,10.59893975
33.33041562,-6.176156616,-9.286089478,-0.2185455322,11.15455649
33.34035462,-6.950646057,-9.405690765,-0.04924758911,11.69533773
33.35029363,-7.653883667,-9.480235748,0.0002993774414,12.18428517
33.36023262,-8.048762512,-9.452842712,0.1645079041,12.41635519
33.37017162,-8.137677612,-9.394314423,0.3707789612,12.43432416
33.38011062,-7.945327606,-9.478738861,0.6653663635,12.38617913
33.39004896,-7.747888184,-9.818083191,1.181193695,12.56263298
33.39998796,-7.841593323,-10.2837648,1.85224823,13.0643495
33.40992696,-8.219707031,-10.737621,3.529660034,13.97564268
33.41986596,-8.801098022,-10.85632416,6.487209778,15.40788731
33.42980496,-9.444460144,-10.5186264,7.609276428,16.05429589
33.43974396,-9.208251343,-9.464069366,3.100203094,13.56361902
33.44968296,-7.88290741,-8.328381042,-0.03637435913,11.46749681
33.45962196,-7.871231689,-7.70028717,2.161804504,11.22159122
33.46956096,-7.944429474,-8.063282318,2.546654205,11.60241048
33.47949996,-7.202123108,-9.041498108,-0.264200592,11.56239885
33.48943896,-6.336473236,-9.929002533,-2.014361115,11.94962908
33.49937796,-5.468877411,-10.65065186,-2.856659546,12.3087574
33.50931696,-4.864584045,-11.31033005,-3.320544891,12.75201012
33.51925596,-4.554728394,-12.19963074,-3.021766205,13.36815664
33.52919496,-4.797074432,-13.44563965,-1.783990173,14.3867915
33.53913396,-5.139562225,-14.55183929,-0.5298980713,15.44188844
33.54907296,-4.83359848,-14.79029343,-0.3308120728,15.56360789
33.55901196,-4.295317841,-14.43388458,-0.3713777161,15.06402008
33.56895096,-4.105662231,-14.18046158,0.08472381592,14.76310032
33.57888996,-3.943100281,-13.94305527,0.5905220032,14.50191526
33.58882896,-3.564687195,-13.4595607,0.6146218872,13.9371636
33.59876796,-3.133134613,-12.56831406,0.3225791931,12.95697141
33.60870696,-2.813399506,-11.6095578,0.1924996948,11.94713795
33.61864596,-2.602039032,-10.70139633,-0.002395019531,11.01319646
33.62858496,-2.552641754,-9.979597321,0.2564167786,10.30408134
33.63852396,-2.195334778,-9.308093719,0.2559677124,9.566902474
33.64846296,-1.842518463,-8.823850708,-0.3532653809,9.021087076
33.65840196,-1.703307953,-8.339607697,-0.5310955811,8.528327915
33.66834096,-1.715133362,-7.949818268,0.03457809448,8.132803243
33.67827996,-1.911824341,-7.608827362,0.3634442139,7.853751832
33.68821896,-2.053280182,-7.3176828,0.09864486694,7.600932303
33.69815796,-2.088157654,-7.122189331,-0.346230011,7.4300645
33.70809696,-2.206112366,-6.800807648,-0.8598120117,7.201193868
33.71803596,-2.313139801,-6.356082458,-1.350791016,6.897465935
33.72797496,-2.209704895,-6.025569763,-1.612895966,6.617531269
33.73791396,-1.56903717,-5.705086212,-1.553020477,6.117332665
33.74785296,-0.2887495422,-5.583389282,-1.163979492,5.71073204
33.75779196,0.7351213074,-5.611381073,-0.8443940735,5.721975379
33.76773096,1.424288177,-5.673950958,-0.5008584595,5.871386164
33.77766996,2.076631622,-5.61991333,-0.04640350342,5.991492136
33.78760896,2.629282379,-5.559439087,0.3766168213,6.161357725
33.79754796,2.769840088,-5.467380524,0.6882687378,6.167493637
33.80748696,2.479893036,-5.342240753,1.012344818,5.976139872
33.81742596,1.490450592,-5.219046936,1.672921143,5.679661877
33.82736496,-0.4309538269,-5.147495728,2.57883728,5.773459551
33.83730396,-2.748135223,-5.209616547,3.260220337,6.732116191
33.84724296,-5.051545258,-5.662574615,3.943699036,8.551936789
33.85718196,-7.453300781,-6.572981415,5.349276123,11.28585541
33.86712096,-10.55365356,-7.744145966,8.525970154,15.62189385
33.87705996,-13.8908139,-8.988957367,12.23211319,20.57621585
33.88699896,-15.76087509,-9.832602997,11.20015915,21.69167652
33.89693796,-16.30229919,-10.25143204,7.936346283,20.82888404
33.90687696,-17.05643097,-9.917326813,6.902595978,20.90265628
33.91681596,-16.78818878,-8.611592102,5.507048035,19.65528883
33.92675496,-15.36105652,-6.834188232,3.543730774,17.18214812
33.93669396,-12.34123627,-4.828359375,2.538271637,13.49303486
33.94663296,-8.514144745,-3.584446106,1.782792664,9.408361404
33.95657196,-6.092779999,-3.315006409,1.002914429,7.008357365
33.96651096,-4.419709167,-4.335584106,-2.47824646,6.668794808
33.97644996,-3.377576294,-7.249125366,-4.702920227,9.27767745
33.98638896,-2.363734589,-10.760224,-3.541186066,11.57193417
33.99632796,-0.8309220886,-13.74337051,2.270628204,13.95444076
34.00626696,-1.383123779,-15.3812645,11.5896492,19.30845145
34.01620596,-5.610033875,-15.66836746,9.590406647,19.20797019
34.02614496,-8.805438995,-15.7116275,-0.2636018372,18.01278659
34.03608396,-7.628885651,-14.58402237,-3.414998474,16.80939676
34.04602296,-3.673810272,-12.13122299,-2.567011871,12.93263326
34.05596196,-0.8896000671,-9.56900116,-3.05394928,10.08383745
34.06590096,-0.2680924988,-7.794291687,-2.559377747,8.208122254
34.07583996,0.2368075562,-7.013066254,-1.663341064,7.211510216
34.08577896,0.3776646423,-6.853049011,-1.597927094,7.047005203
34.09571796,-0.1540296936,-7.233557739,-1.828298035,7.462623963
34.10565696,-0.8192463684,-7.913443909,-2.147584076,8.240502198
34.11559596,-1.269210663,-8.678203583,-2.574496307,9.140576807
34.12553496,-1.903591461,-9.553882599,-3.178490295,10.24710367
34.13547396,-2.529290314,-10.22628433,-3.555406494,11.1182335
34.14541296,-2.719694366,-10.47327072,-3.75359436,11.45319203
34.15535196,-2.530038757,-10.07075775,-3.784130859,11.05173761
34.16529096,-2.196681976,-9.203760681,-3.496129761,10.08749452
34.17522996,-1.92364975,-8.525970154,-3.018622742,9.246873995
34.18516896,-1.934726715,-8.373587036,-2.633024597,8.988489631
34.19510796,-2.304008789,-8.702752533,-2.323917389,9.297685205
34.20504696,-2.825524292,-9.205706635,-1.952539673,9.825529672
34.21498596,-3.165617065,-9.551936646,-1.513502655,10.17601668
34.22492496,-3.418591003,-9.696835327,-0.3953279114,10.2893957
34.23486396,-3.605402527,-9.604178009,6.307433624,12.04254465
34.24480296,-3.218606873,-9.131011963,4.538112946,10.69248702
34.25474196,-3.071313171,-8.788673859,-0.02409988403,9.309905133
34.26468096,-3.075055389,-8.66682724,-0.9918374634,9.249518993
34.27461996,-2.955903168,-8.308622131,-0.7625143433,8.851666136
34.28455896,-2.98135025,-7.897726593,-0.1730401611,8.443487286
34.29449796,-3.54657486,-7.827672272,0.2842588806,8.598339929
34.30443696,-4.276906128,-7.905809784,0.2091151428,8.990966773
34.31437596,-4.64993042,-7.885601807,-0.05688171387,9.15466025
34.32431496,-4.829856262,-8.000263367,-0.3673361206,9.352361267
34.33425396,-4.942122803,-8.089028778,-0.5999523926,9.498258116
34.34419296,-5.085674286,-8.036488037,-0.6084846497,9.529925314
34.35413196,-5.344635773,-8.028255157,-0.1410067749,9.645615342
34.36407096,-5.589825897,-8.138575745,0.359103241,9.879854445
34.37400996,-5.501958618,-8.260122986,0.5463638306,9.93980351
34.38394896,-5.150489502,-8.463100891,0.3848497009,9.914621934
34.39389137,-4.770579529,-8.698860626,0.1010398865,9.92163365
34.40383037,-4.482728119,-8.919950867,-0.03532653809,9.983066804
34.41376937,-4.263134766,-8.925938416,0.1345701599,9.892664138
34.42370837,-4.137695618,-8.677155762,0.6688092041,9.636434138
34.43364738,-4.185296631,-8.318501587,1.434017944,9.421814263
34.44358637,-4.514462128,-8.178392944,1.847308502,9.522553657
34.45352537,-4.981490936,-8.478668518,1.519639893,9.950496329
34.46346437,-5.47950531,-9.028924255,0.7747888184,10.58993623
34.47340337,-5.956563263,-9.474547577,0.309256897,11.19568388
34.48334337,-6.498735809,-9.710007935,0.2679428101,11.68715597
34.49328137,-7.070546722,-9.819430389,0.2221380615,12.10219771
34.50322037,-7.568561096,-9.879305878,0.1122665405,12.44573845
34.51316037,-7.971523132,-9.870773621,0.2107617188,12.6894355
34.52309937,-8.351582794,-9.777517548,0.5516029358,12.87062743
34.53303837,-8.698112183,-9.70821167,0.7822732544,13.0582725
34.54297737,-9.010961609,-9.808952179,0.7827223206,13.34262441
34.55291637,-9.352700958,-9.991572418,1.016985168,13.72365817
34.56285537,-9.583371277,-10.00220032,1.886377258,13.98010856
34.57279437,-9.563762054,-9.827214203,3.704346771,14.2042905
34.58273337,-9.353748779,-9.519304504,6.971602478,15.05699225
34.59267237,-9.324559479,-8.862620087,7.795638885,15.04212186
34.60261137,-9.063652039,-8.063731384,2.828218689,12.45682034
34.61255037,-7.953859863,-7.63008316,0.9857002258,11.06587822
34.62248937,-6.768175507,-7.895630951,2.566113739,10.71140175
34.63242837,-5.510041809,-9.075477448,3.212918701,11.0926867
34.64236737,-4.471052399,-10.58553726,2.112556915,11.68361269
34.65230637,-4.36911438,-11.92106003,-0.5316943359,12.70761707
34.66224537,-4.58436676,-12.33464996,-3.291355591,13.56440304
34.67218437,-4.41237442,-12.4244632,-4.482129364,13.92572502
34.68212337,-4.211941223,-13.04522232,-3.755091248,14.21333826
34.69206237,-4.264781342,-14.11669418,-1.830842743,14.86006056
34.70200138,-4.648134155,-15.01332962,-0.1236428833,15.71688598
34.71194037,-4.803960114,-15.19265671,0.4719685364,15.94106662
34.72187937,-4.697082367,-14.80376541,0.630788269,15.54387168
34.73181837,-4.079167328,-14.19587952,0.444276123,14.77700858
34.74175737,-3.62261673,-13.41764786,0.3965254211,13.90373541
34.75169637,-3.432961121,-12.21430023,0.5617817688,12.69999807
34.76163537,-3.382366333,-10.70962921,0.7908055115,11.25886021
34.77157437,-3.062631226,-9.499545593,-0.0245489502,9.981066033
34.78151337,-2.55428833,-8.660690002,-1.150058441,9.102448825
