Time (s),Acceleration x (m/s^2),Acceleration y (m/s^2),Acceleration z (m/s^2),Absolute acceleration (m/s^2)
19.88145325,7.76704834,-2.409090271,-2.775378571,8.592641157
19.89139225,7.614365845,-2.242187347,-2.468816071,8.312702575
19.90133225,7.457342377,-2.178120575,-2.242037659,8.08596917
19.91127125,7.254214783,-2.190544739,-2.006577301,7.838907502
19.92121125,7.119195557,-2.27811264,-1.921404419,7.717806522
19.93115025,7.066505127,-2.419269104,-1.886377258,7.703685927
19.94109025,7.098837891,-2.574047241,-1.83697998,7.77133927
19.95102925,7.181316376,-2.717748413,-1.822310486,7.891658687
19.96096925,7.282505951,-2.835553436,-1.880389709,8.038104358
19.97090825,7.445516968,-2.940485229,-2.027384033,8.257872748
19.98084825,7.666158142,-3.092119904,-2.217638397,8.558569169
19.99078725,7.936046906,-3.230282593,-2.423161011,8.904340256
20.00072725,8.197403412,-3.289709015,-2.624941406,9.214658186
20.01066625,8.430319061,-3.295247498,-2.7192453,9.451096791
20.02060625,8.738528137,-3.312012634,-2.750530243,9.741494665
20.03054525,9.015751648,-3.282374268,-2.784060516,9.990433002
20.04048525,9.228908386,-3.146157532,-2.799927521,10.14448872
20.05042425,9.552984467,-2.925366669,-2.841241608,10.38700805
20.06036425,9.948162689,-2.794389038,-2.964585114,10.75003795
20.07030325,10.28331573,-2.780767365,-2.983894958,11.06267955
20.08024325,10.83012863,-2.838846588,-3.067271576,11.60856972
20.09018225,11.45986908,-2.994073792,-3.190615082,12.26674781
20.10012225,12.10397964,-3.13702652,-3.304079132,12.93306605
20.11006125,12.70587799,-3.190315704,-3.443139954,13.5452081
20.12000125,13.26227097,-3.227438507,-3.546125793,14.10245364
20.12994025,13.80638947,-3.173999634,-3.657943268,14.63117264
20.13988025,14.27461578,-3.047362976,-3.740122375,15.06783303
20.14981925,14.66470459,-2.842738495,-3.803740082,15.41438164
20.15975925,15.09116776,-2.698588257,-3.943399658,15.82959645
20.16969825,15.68812637,-2.889141998,-4.208498383,16.49775467
20.17963825,16.35319336,-3.434757385,-4.494553528,17.30391582
20.18957725,16.82650909,-4.205354919,-4.697531433,17.96895155
20.19951725,16.60886169,-4.835694122,-4.672982483,17.9185655
20.20945625,15.67959412,-4.949307861,-4.349654846,17.00778696
20.21939625,14.33164719,-4.53287384,-3.91271347,15.53230128
20.22933525,13.05300613,-3.859723663,-3.472329254,14.04761568
20.23927525,12.21594681,-3.253933411,-3.034489746,13.00098331
20.24921425,11.63275955,-2.84453476,-2.652035065,12.2656334
20.25915425,11.12980545,-2.610870667,-2.415975952,11.68444071
20.26909325,10.79704742,-2.660417633,-2.33544342,11.36258558
20.27903325,10.58643539,-2.958447876,-2.405198364,11.25211124
20.28897225,10.45141617,-3.454665985,-2.601889343,11.31090824
20.29891125,10.28915359,-4.057462463,-2.809806976,11.41160368
20.30885125,10.00579285,-4.691693573,-2.991529083,11.44889188
20.31879025,9.678273926,-5.235662384,-3.178789673,11.45363918
20.32873025,9.401349792,-5.569468231,-3.268153839,11.4054892
20.33866925,9.15002243,-5.634732513,-3.265459442,11.23104387
20.34860925,9.05407196,-5.489534454,-3.254232788,11.07705911
20.35854825,9.198371887,-5.207969971,-3.169059906,11.03521351
20.36848825,9.502988434,-4.829856262,-2.992576904,11.0720286
20.37842725,9.763446808,-4.437372437,-2.795137482,11.08277769
20.38836746,9.86613327,-4.060755615,-2.584226074,10.97763847
20.39830646,9.870324554,-3.746109924,-2.463576965,10.84093436
20.40824646,9.80760498,-3.519032135,-2.428400116,10.69905742
20.41818546,9.74443634,-3.344944153,-2.382595367,10.5744717
20.42812546,9.637708282,-3.248544617,-2.318678284,10.43143001
20.43806446,9.54205719,-3.269351349,-2.274220734,10.33980627
20.44800446,9.322014771,-3.335813141,-2.109114075,10.12304158
20.45794346,9.148974609,-3.482957153,-2.039957886,9.999807754
20.46788346,8.960067444,-3.695215759,-1.960772552,9.888481031
20.47782246,8.850345612,-3.903881836,-1.908082123,9.859497361
20.48776246,8.780440979,-4.13619873,-1.860331421,9.882566302
20.49770146,8.693621521,-4.439168701,-1.842368774,9.933760447
20.50764146,8.561147003,-4.775219879,-1.894610138,9.984263142
20.51758046,8.272846527,-5.013374634,-1.908082123,9.859751126
20.52752046,8.013585663,-5.15423172,-1.864073639,9.708678094
20.53745946,7.788453827,-5.346432037,-1.857487335,9.62780389
20.54739946,7.530390472,-5.48773819,-1.783092041,9.486910368
20.55733846,7.291487274,-5.592520294,-1.783092041,9.360634975
20.56727846,6.912325745,-5.650000763,-1.640139313,9.077048683
20.57721746,6.503525848,-5.649402008,-1.53865036,8.750944888
20.58715746,6.093378754,-5.666915588,-1.495540009,8.454574906
20.59709646,5.792205048,-5.638025665,-1.465153198,8.214843067
20.60703646,5.693260803,-5.655389557,-1.551373901,8.173335341
20.61697546,5.697452087,-5.743556213,-1.883084106,8.306347213
20.62691446,5.611979828,-5.770051117,-2.441273346,8.411160623
20.63685446,5.547014923,-5.863606567,-3.040477295,8.625297602
20.64679346,5.396727448,-6.176306305,-3.578009491,8.948384135
20.65673346,5.158123627,-6.521787872,-4.024231567,9.237661831
20.66667246,4.876110077,-6.761140137,-4.274062042,9.367874453
20.67661246,4.568948822,-6.901548157,-4.178111572,9.271638291
20.68655146,4.412673798,-6.941964111,-3.713028717,9.024917618
20.69649146,4.490362244,-6.852150879,-3.00829422,8.727265257
20.70643046,4.823419647,-6.709347839,-2.331102448,8.585730263
20.71637046,5.44208313,-6.768474884,-1.918710022,8.894378517
20.72630946,6.109994202,-7.194788361,-1.876647491,9.623866921
20.73624946,6.571035461,-7.786358185,-1.914668427,10.3668624
20.74618846,6.717580719,-8.186775513,-1.822160797,10.74567141
20.75612846,6.650969238,-8.256979523,-1.55616394,10.71609765
20.76606746,6.571634216,-7.947572937,-1.125060425,10.37381573
20.77600746,6.607260132,-7.268135834,-0.6102809143,9.841449474
20.78594646,6.878496094,-6.293961639,-0.2174977112,9.326037041
20.79588646,7.313192139,-5.388045502,-0.07035369873,9.083983885
20.80582546,7.974067841,-4.809348907,-0.2944377136,9.316774571
20.81576546,8.810229034,-4.499942322,-0.7641609192,9.922376653
20.82570446,9.644893341,-4.463268585,-1.323847046,10.70968277
20.83564446,10.34438873,-4.672533417,-1.919608154,11.51190003
20.84558346,10.75573334,-5.136269073,-2.523452454,12.18338508
20.85552346,10.70992859,-5.741460571,-3.00709671,12.51836932
20.86546246,10.39677979,-6.35234024,-3.335064697,12.63201935
20.87540246,10.01088226,-6.711892548,-3.618575134,12.58417066
20.88534146,9.417366486,-6.769822083,-3.80044693,12.20494488
20.89528146,8.966054993,-6.452182617,-3.879482574,11.7077405
20.90522046,8.856183472,-5.781577148,-3.880380707,11.26569902
20.91516046,9.107510834,-4.914430389,-3.784579926,11.01913902
20.92509946,9.34776123,-4.040547638,-3.626658325,10.81014874
20.93503846,9.537117462,-3.229085083,-3.475472717,10.65187826
20.94497846,9.590556335,-2.524350586,-3.334166565,10.46268529
20.95491746,9.541308746,-2.008223877,-3.231330414,10.27185631
20.96485746,9.448202362,-1.735041962,-3.141367493,10.10678427
20.97479646,9.332792358,-1.667532349,-3.02116745,9.950333165
20.98473646,9.182504883,-1.756597137,-2.914888458,9.792885384
20.99467546,9.006321259,-2.004182281,-2.769690399,9.633366708
21.00461546,8.895102539,-2.285597076,-2.592758331,9.543018335
21.01455446,8.934470673,-2.520907745,-2.494712219,9.612665141
21.02449446,9.045839081,-2.682870941,-2.438578949,9.745340859
21.03443346,9.17352356,-2.75786499,-2.466421051,9.891541164
21.04437346,9.283395081,-2.78600647,-2.630928955,10.04315904
21.05431246,9.373058624,-2.778522034,-2.806214447,10.17100055
21.06425246,9.478140106,-2.689008179,-2.965932312,10.28895813
21.07419146,9.588760071,-2.561772766,-3.087479553,10.39420653
21.08413146,9.657467194,-2.39636673,-3.178639984,10.44571674
21.09407046,9.704619141,-2.172282715,-3.2434552,10.46032727
21.10401046,9.743538208,-1.914967804,-3.29375061,10.46195161
21.11394946,9.769733734,-1.690883789,-3.325484619,10.4578025
21.12388946,9.890382843,-1.574875031,-3.350482635,10.56056997
21.13382846,10.09695328,-1.598226471,-3.413202209,10.77741818
21.14376846,10.37687119,-1.767823792,-3.571273499,11.1156939
21.15370746,10.76531342,-2.105671234,-3.739822998,11.58930974
21.16364746,11.21901993,-2.605930939,-3.945345612,12.17468834
21.17358646,11.59997772,-3.170107727,-4.157753906,12.72383526
21.18352546,11.84801193,-3.521576843,-4.175566864,13.04654164
21.19346546,12.41652969,-3.771257629,-4.315525818,13.67539238
21.20340446,13.02725967,-3.891158295,-4.431534576,14.29996875
21.21334446,13.54428452,-3.742068329,-4.5984375,14.78500409
21.22328346,13.92494293,-3.463347931,-4.722828827,15.10642005
21.23322346,14.4057431,-3.355422363,-4.958438873,15.60033364
21.24316246,15.08068954,-3.583697662,-5.235363007,16.36090193
21.25310246,15.65564392,-4.047583008,-5.40106842,17.04856753
21.26304146,15.80114136,-4.384981384,-5.258864136,17.22091118
21.27298146,15.36614594,-4.394711151,-4.97056366,16.73733641
21.28292046,14.40664124,-4.051325226,-4.642745361,15.66906609
21.29286046,13.30358505,-3.453618164,-4.391417999,14.42904729
21.30279946,12.29094086,-2.739602966,-4.171674957,13.26557664
21.31273946,11.50163223,-2.17288147,-4.080514526,12.39594921
21.32267846,10.84434906,-1.820065155,-4.035009155,11.71297753
21.33261846,10.34169434,-1.741179199,-3.988755341,11.22018342
21.34255746,10.0980011,-2.056872711,-3.998634796,11.05393286
21.35249746,10.06776398,-2.685116272,-4.024381256,11.16984178
21.36243646,10.05219635,-3.432212677,-4.017944641,11.35652299
21.37237646,9.957593079,-4.19128418,-3.911965027,11.49016942
21.38231546,9.89068222,-4.921316071,-3.788322144,11.67888399
21.39225496,9.860445099,-5.600453796,-3.619622955,11.90357638
21.40219396,9.796078949,-6.142326965,-3.39793396,12.05144384
21.41213396,9.649384003,-6.408922577,-3.120860138,11.99686077
21.42207296,9.532626801,-6.456822968,-2.765499115,11.84101017
21.43201296,9.525591431,-6.336323547,-2.428549805,11.69545819
21.44195196,9.423952789,-5.974226532,-2.071542206,11.34872486
21.45189096,9.255253601,-5.379662933,-1.641187134,10.83023489
21.46183096,9.274563446,-4.789739685,-1.395847321,10.53126408
21.47176996,9.311087494,-4.343218231,-1.209335175,10.34516247
21.48170996,9.301806793,-3.995491333,-1.135987701,10.18715017
21.49164896,9.313482513,-3.676804047,-1.179247742,10.08218576
21.50158896,9.30330368,-3.454665985,-1.292262726,10.00780293
21.51152796,9.222471771,-3.329526215,-1.453028412,9.912165351
21.52146796,9.062604218,-3.322490845,-1.690135345,9.799300899
21.53140696,8.819958801,-3.395988007,-1.994302826,9.659278004
21.54134696,8.546627197,-3.561244354,-2.233954468,9.524591874
21.55128596,8.294401703,-3.789519653,-2.380948792,9.424779889
21.56122596,8.057294769,-4.03800293,-2.493514709,9.351100591
21.57116496,7.810907135,-4.308490448,-2.570155334,9.283267671
21.58110496,7.556286621,-4.56221283,-2.598296814,9.201217296
21.59104396,7.300019531,-4.785548401,-2.554587708,9.094925894
21.60098396,7.026089172,-5.003644867,-2.463127899,8.970473235
21.61092296,6.702462158,-5.16590744,-2.29682373,8.768409087
21.62086296,6.285579071,-5.262306976,-2.114652557,8.465939665
21.63080196,5.944438477,-5.285658417,-1.927391968,8.184703629
21.64074196,5.517975311,-5.22323822,-1.678609314,7.781259427
21.65068096,5.253175964,-5.132676544,-1.48251709,7.492535161
21.66062096,5.176685028,-5.235213318,-1.48595993,7.510898966
21.67055996,5.076692963,-5.403313751,-1.372346191,7.540022878
21.68049996,5.11097168,-5.648204498,-1.357527008,7.737384903
21.69043896,5.196893005,-6.072122955,-1.411265259,8.116036208
21.70037896,5.259163513,-6.492149506,-1.40991806,8.473173844
21.71031796,5.232369232,-6.803502045,-1.343605957,8.687381931
21.72025696,5.175936584,-7.026987305,-1.256038055,8.817397672
21.73019696,5.09690094,-7.097041626,-1.142873383,8.812068917
21.74013596,5.101241913,-7.004384308,-0.9686357117,8.719078147
21.75007596,5.362897797,-6.859335938,-0.8957373047,8.752914235
21.76001496,6.011798401,-6.784940643,-1.000818787,9.120240007
21.76995496,6.872508545,-6.944059753,-1.38072876,9.867003165
21.77989396,7.486980743,-7.325466614,-1.86631897,10.63957181
21.78983396,7.789202271,-7.694898376,-2.226919098,11.17328518
21.79977296,7.987240448,-7.944728851,-2.396666107,11.51775737
21.80971296,8.239166565,-7.896229706,-2.385589142,11.65870254
21.81965196,8.423583069,-7.413333893,-2.24772583,11.44406145
21.82959196,8.448730774,-6.466552734,-1.960772552,10.81859441
21.83953096,8.520281982,-5.303321686,-1.732048187,10.18432211
21.84947096,8.851094055,-4.229305115,-1.775757294,9.969062227
21.85940996,9.372908936,-3.374732208,-2.120939484,10.18521594
21.86934996,9.920170898,-2.819387054,-2.66430954,10.65163271
21.87928896,10.38809784,-2.570155334,-3.233426056,11.17914662
21.88922896,11.0375972,-2.761158142,-3.988306274,12.05649755
21.89916796,11.49369873,-3.44822937,-4.841981049,12.93986773
21.90910796,11.54998169,-4.334386597,-5.464237061,13.4924746
21.91904696,11.23279129,-5.170847168,-5.769003296,13.6453164
21.92898596,10.69406158,-5.74400528,-5.765261078,13.43855592
21.93892596,9.908644867,-6.059998169,-5.559738464,12.87693724
21.94886496,9.172775116,-6.095773773,-5.152136078,12.15906112
21.95880496,8.711883545,-5.885610809,-4.64529007,11.49417458
21.96874396,8.609795837,-5.410199432,-4.020189972,10.93438474
21.97868396,8.795409851,-4.696633301,-3.236868896,10.48307775
21.98862296,8.697064362,-3.943549347,-2.575993195,9.890715389
21.99856296,8.40936264,-3.221750336,-2.132315826,9.254394957
22.00850196,8.123606873,-2.605332184,-1.791474609,8.717231538
22.01844196,7.705226898,-2.124981079,-1.524878998,8.137033986
22.02838096,7.373367004,-1.903890839,-1.616039429,7.784788034
22.03832096,7.06261322,-1.8991008,-1.888772278,7.553446237
22.04825996,6.782695313,-1.979333954,-2.263892212,7.419428991
22.05819996,6.630761261,-2.060315552,-2.646646271,7.43078943
22.06813896,6.591393127,-2.17048645,-3.029849396,7.572150431
22.07807896,6.575226746,-2.287692719,-3.467239838,7.777460821
22.08801796,6.596183167,-2.341730347,-3.901337128,8.01334916
22.09795796,6.757996674,-2.407743073,-4.362228699,8.396236357
22.10789696,7.052434387,-2.537523193,-4.758005676,8.87775156
22.11783696,7.383845215,-2.632575531,-5.024002533,9.310865993
22.12777596,7.721992035,-2.696342926,-5.117857361,9.648413866
22.13771496,8.157137146,-2.750230865,-4.997956696,9.954005594
22.14765496,8.68793335,-2.694546661,-4.680466919,10.22973793
22.15759396,9.034013672,-2.508333893,-4.214934998,10.27963127
22.16753396,9.271120605,-2.32960556,-3.820954285,10.29467974
22.17747296,9.558672638,-2.20910614,-3.643124084,10.46521503
22.18741296,9.980944519,-2.142045593,-3.501967621,10.79219116
22.19735196,10.52730835,-2.20446579,-3.345542908,11.26394903
22.20729196,11.19342316,-2.519410858,-3.298241272,11.93811327
22.21723096,11.89231979,-3.054847412,-3.295247498,12.71290757
22.22717096,12.43748611,-3.581302643,-3.272943878,13.35024161
22.23710996,12.78820679,-3.933370514,-3.26216629,13.77139664
22.24704996,12.98190399,-4.145479431,-3.153641968,13.98786219
22.25698896,13.2830777,-4.13739624,-3.119962006,14.25806311
22.26692896,13.55790619,-3.9853125,-3.131038971,14.47421642
22.27686796,13.88512573,-3.810326385,-3.202590179,14.75031822
22.28680796,14.4018512,-3.719615021,-3.442541199,15.26761094
22.29674696,15.05464371,-3.748504944,-3.646716614,15.9371305
22.30668696,15.52376816,-3.736380157,-3.702849884,16.39082096
22.31662596,15.51164337,-3.439098358,-3.529809723,16.27568844
22.32656596,14.97635651,-2.845881958,-3.214116211,15.57950068
22.33650496,14.25171341,-2.22197937,-2.933749237,14.71921914
22.34644396,13.56119934,-1.729952545,-2.709216156,13.93695503
22.35638396,12.90631119,-1.44853775,-2.614612885,13.24791797
22.36632296,12.278367,-1.444496155,-2.663261719,12.64665285
22.37626296,11.83349213,-1.751807098,-2.792892151,12.28416096
22.38620196,11.65685944,-2.328108673,-2.991828461,12.25779342
22.3961425,11.56659714,-2.968027954,-3.193459167,12.36096844
22.4060815,11.38996445,-3.547323303,-3.454216919,12.41959771
22.4160215,11.10301117,-4.220174103,-3.801045685,12.47135417
22.4259605,10.76351715,-5.006189575,-4.156556396,12.57744794
22.4359005,10.41189835,-5.722001038,-4.390669556,12.66597419
22.4458395,10.2174527,-6.139183502,-4.413122864,12.71068712
22.4557795,10.33226395,-6.200705566,-4.272116089,12.78496788
22.4657185,10.54557037,-5.931265869,-3.840413818,12.6940044
22.4756585,10.63613205,-5.447022858,-3.287313995,12.39369986
22.4855975,10.57775345,-4.925657043,-2.648292847,11.96513353
22.4955375,10.57026901,-4.489464111,-2.135010223,11.68093077
22.5054765,10.56996964,-4.146676941,-1.704355774,11.48146403
22.5154165,10.26774811,-3.71272934,-1.265318756,10.99145313
22.5253555,9.894574127,-3.367696838,-1.106349335,10.51037526
22.5352945,9.616452484,-3.256627808,-1.115180969,10.21398119
22.5452345,9.455686798,-3.325783997,-1.235830078,10.09941226
22.5551735,9.294771423,-3.531755676,-1.437909851,10.04657448
22.5651135,9.006770325,-3.795357513,-1.735491028,9.926660035
22.5750525,8.66922226,-4.113146667,-2.071691895,9.816582776
22.5849925,8.347541199,-4.46850769,-2.33200058,9.751268212
22.5949315,8.115523682,-4.788392487,-2.530787201,9.756808448
22.6048715,7.911797333,-5.064867554,-2.657423859,9.76275176
22.6148105,7.587421875,-5.339845734,-2.74379425,9.675294831
22.6247505,7.189998322,-5.548362122,-2.773282928,9.495867327
22.6346895,6.787784729,-5.67724411,-2.769840088,9.272385687
22.6446295,6.384523315,-5.78606781,-2.726580048,9.037419843
22.6545685,5.978866882,-5.830375671,-2.693648529,8.774729173
22.6645085,5.619314575,-5.819747772,-2.623145142,8.504531196
22.6744475,5.26769577,-5.730832672,-2.542762299,8.188815662
22.6843875,5.003495178,-5.579347687,-2.371368713,7.860500886
22.6943265,4.838987274,-5.475763092,-2.212848358,7.635212973
22.7042665,4.777016144,-5.454806671,-2.032922516,7.530443082
22.7142055,4.850513306,-5.644761658,-2.014061737,7.710204808
22.7241445,4.91787323,-5.984704742,-2.010768585,8.002834389
22.7340845,5.053790588,-6.376440125,-2.057920532,8.392545793
22.7440235,5.32158371,-6.876999207,-2.167342987,8.961570559
22.7539635,5.60584259,-7.405849457,-2.238445129,9.554198759
22.7639025,5.785319366,-7.802823944,-2.248174896,9.970369704
22.7738425,5.830375671,-8.015681305,-2.166295166,10.14580021
22.7837815,5.893244934,-7.959697723,-1.97155014,10.09822428
22.7937215,6.027216339,-7.606432343,-1.79252243,9.869057019
22.8036605,6.286327515,-7.11650116,-1.692230988,9.645006381
22.8136005,6.713239746,-6.849755859,-1.844614105,9.76674687
22.8235395,7.168143768,-6.928791504,-2.289189606,10.22892105
22.8334795,7.501949615,-7.207062836,-2.867137756,10.79080542
22.8434185,7.711214447,-7.479047241,-3.362158356,11.25624647
22.8533585,7.820936279,-7.637717285,-3.68114502,11.53484279
22.8632975,7.868387604,-7.486831055,-3.754043427,11.49160584
22.8732375,7.918832703,-7.00064209,-3.608246613,11.16854264
22.8831765,8.009544067,-6.23543335,-3.374133453,10.69664442
22.8931165,8.133336639,-5.275329895,-3.050656128,10.16301005
22.9030555,8.510552216,-4.358636169,-2.828368378,9.971302621
22.9129945,8.994645538,-3.721560974,-2.748434601,10.11471983
22.9229345,9.462123413,-3.382516022,-2.767594757,10.42270478
22.9328735,9.86493576,-3.360212402,-2.874472504,10.8106696
22.9428135,10.09216324,-3.625460815,-3.015928345,11.13963863
22.9527525,10.07988876,-4.104464722,-3.169359283,11.33559114
22.9626925,9.806856537,-4.656516724,-3.303181,11.34762477
22.9726315,9.481433258,-5.215454407,-3.456761627,11.35991823
22.9825715,9.110354919,-5.566474457,-3.454965363,11.22145224
22.9925105,8.723259888,-5.643564148,-3.367247772,10.9216957
23.0024505,8.457263031,-5.539979553,-3.266507263,10.62481723
23.0123895,8.314459991,-5.138215027,-3.00245636,10.22478571
23.0223295,8.355474701,-4.540208588,-2.740201721,9.896269851
23.0322685,8.375682678,-3.950285339,-2.455493774,9.580514823
23.0422085,8.292156372,-3.435805206,-2.208956451,9.243597964
23.0521475,8.154143372,-2.980751495,-2.068099365,8.924795157
23.0620875,8.00340683,-2.670596466,-2.045196991,8.681557297
23.0720265,7.841293945,-2.505489807,-2.062560883,8.486314118
23.0819665,7.664511566,-2.469863892,-2.17752182,8.341856296
23.0919055,7.53652771,-2.53437973,-2.359543304,8.293960161
23.1018445,7.445067902,-2.660417633,-2.556383972,8.309148997
23.1117845,7.492219849,-2.781964874,-2.717748413,8.441495321
23.1217235,7.551945648,-2.87492157,-2.882855072,8.579505258
23.1316635,7.611222382,-2.950214996,-3.108585663,8.734860015
23.1416025,7.8020755,-3.001857605,-3.319197693,8.994476334
23.1515425,8.007747803,-3.056643677,-3.482508087,9.251754321
23.1614815,8.276139679,-3.065625,-3.629801788,9.542955813
23.1714215,8.563542023,-3.041525116,-3.748804321,9.83049647
23.1813605,8.901389465,-2.987786865,-3.828289032,10.1398916
23.1913005,9.239386597,-2.887345734,-3.871249695,10.42543065
23.2012395,9.549691315,-2.750081177,-3.845353546,10.65581037
23.2111795,9.764045563,-2.601889343,-3.75015152,10.77822111
23.2211185,10.08662476,-2.436632996,-3.640729065,10.99691263
23.2310585,10.27358597,-2.214944,-3.542533264,11.09063062
23.2409975,10.46219376,-1.924398193,-3.457360382,11.18544355
23.2509365,10.72025711,-1.691332855,-3.44239151,11.38571819
23.2608765,11.13833771,-1.653461609,-3.484454041,11.78719314
23.2708155,11.6453334,-1.843416595,-3.575015717,12.32041851
23.2807555,12.23375977,-2.197580109,-3.67875,12.96253979
23.2906945,12.70168671,-2.600542145,-3.754941559,13.4979721
23.3006345,13.1729068,-2.93344986,-3.822600861,14.0265063
23.3105735,13.51284988,-3.212170258,-3.944148102,14.43854058
23.3205135,13.58230545,-3.288212128,-3.930975494,14.51702203
23.3304525,13.47213455,-3.152743835,-3.836821289,14.35825201
23.3403925,13.41016342,-2.979404297,-3.800895996,14.25328535
23.3503315,13.63125366,-2.987487488,-3.921096039,14.49521135
23.3602715,14.12522644,-3.363206177,-4.107608185,15.08991792
23.3702105,14.538517,-4.063899078,-4.17017807,15.66123039
23.3801505,14.58042984,-4.717889099,-3.950435028,15.82571795
23.39008971,14.19558014,-5.000351715,-3.523223419,15.45739681
23.40002871,13.40881622,-4.83943634,-3.01532959,14.57081704
23.40996871,12.38030502,-4.345463562,-2.56596405,13.36933721
23.41990771,11.6016243,-3.77934082,-2.332449646,12.42261747
23.42984771,11.08744354,-3.315006409,-2.264041901,11.79180044
23.43978671,10.58463913,-2.881058807,-2.235301666,11.1951623
23.44972671,10.35830978,-2.630180511,-2.339485016,10.94009238
23.45966571,10.29768585,-2.722987518,-2.494562531,10.93982802
23.46960571,10.51877609,-3.117866364,-2.716401215,11.30241464
23.47954471,10.66427353,-3.679049377,-2.91114624,11.6506183
23.48948471,10.7204068,-4.290827179,-3.036286011,11.93973838
23.49942371,10.74794952,-4.948110352,-3.143313446,12.24265635
23.50936371,10.69660629,-5.609285431,-3.211721191,12.49786471
23.51930271,10.48449738,-6.215075684,-3.244203644,12.61256153
23.52924271,10.2041304,-6.606960754,-3.195105743,12.56920476
23.53918171,9.950857086,-6.658303986,-3.119512939,12.37270907
23.54912171,9.767638092,-6.441405029,-2.92057663,12.05936236
23.55906071,9.79592926,-5.978417816,-2.641257477,11.77616027
23.56899971,10.03438339,-5.35197052,-2.293979645,11.60149909
23.57893971,10.08393036,-4.701273651,-1.971999207,11.29939849
23.58887871,9.971663818,-4.145778809,-1.696422272,10.93157856
23.59881871,9.962233429,-3.762425995,-1.44973526,10.74726368
23.60875771,9.871821442,-3.669618988,-1.5129039,10.63991731
23.61869771,9.482032013,-3.602558441,-1.531764679,10.25834594
23.62863671,9.241631927,-3.551963654,-1.716779938,10.04845958
23.63857671,8.976233826,-3.632945251,-1.93652298,9.875281573
23.64851571,8.711733856,-3.811224518,-2.207609253,9.761827581
23.65845571,8.443491669,-4.024980011,-2.459685059,9.671766449
23.66839471,8.22449707,-4.283043365,-2.63152771,9.639074158
23.67833471,8.040978699,-4.557123413,-2.720891876,9.634727025
23.68827371,7.819289703,-4.767885132,-2.707868958,9.550213316
23.69821371,7.550299072,-4.934638367,-2.653681641,9.402111366
23.70815271,7.241940308,-5.085674286,-2.607876892,9.225551704
23.71809271,6.897805939,-5.187312927,-2.527494049,8.993117832
23.72803171,6.58286087,-5.216951294,-2.408940582,8.738056579
23.73797071,6.318959656,-5.230722656,-2.334994354,8.528886755
23.74791071,5.879772949,-5.158273315,-2.189646606,8.122442108
23.75784971,5.660628662,-5.096302185,-2.094893646,7.899594433
23.76778971,5.38355484,-5.057682495,-1.967807922,7.644284333
23.77772871,5.319338379,-5.009333038,-1.906884613,7.551489072
23.78766871,5.183870087,-5.075345764,-1.898352356,7.499025628
23.79760771,5.113366699,-5.198539581,-1.906585236,7.537002059
23.80754771,5.14959137,-5.452261963,-2.01960022,7.766867891
23.81748671,5.183121643,-5.826932831,-2.120490417,8.08173099
23.82742671,5.194198608,-6.200705566,-2.183509369,8.378314978
23.83736571,5.222938843,-6.549330597,-2.164049835,8.651932334
23.84730571,5.209017792,-6.864724731,-2.047142944,8.857150006
23.85724471,5.153932343,-7.044051819,-1.849404144,8.921994189
23.86718471,5.148094482,-7.005132751,-1.584904175,8.836666957
23.87712371,5.296286316,-6.85439621,-1.378184052,8.771133759
23.88706271,5.745053101,-6.768774261,-1.365011444,8.982493884
23.89700271,6.429878998,-6.941365356,-1.632056122,9.60153655
23.90694171,6.871161346,-7.258705444,-2.026485901,10.19844636
23.91688171,6.960525513,-7.486681366,-2.408641205,10.5024219
23.92682071,7.038363647,-7.579188995,-2.641706543,10.67526497
23.93676071,7.209308167,-7.592062225,-2.70876709,10.81438635
23.94669971,7.367080078,-7.381300507,-2.662064209,10.76308747
23.95663971,7.535030823,-6.901099091,-2.487527161,10.51616135
23.96657871,7.681276703,-6.209986267,-2.258054352,10.13236155
23.97651871,8.024063873,-5.409151611,-2.108215942,9.903993975
23.98645771,8.677455139,-4.661905518,-2.100881195,10.07200539
23.99639771,9.441017303,-4.183799744,-2.225721588,10.56365584
24.00633671,10.04665787,-4.068988495,-2.49935257,11.12379274
24.01627671,10.54182816,-4.244273987,-2.917732544,11.73273906
24.02621571,10.83357147,-4.686604156,-3.33356781,12.26552908
24.03615471,10.87892715,-5.335953827,-3.798650665,12.69855134
24.04609471,10.9911937,-5.782924347,-4.266876984,13.13220439
24.05603371,11.10016708,-5.811963959,-4.344715118,13.26156792
24.06597371,11.11603409,-5.462590485,-4.206253052,13.08046916
24.07591271,11.0667865,-4.942721558,-3.933520203,12.74271717
24.08585271,10.98700241,-4.450844421,-3.652554474,12.40424896
24.09579171,10.79809525,-4.031266937,-3.372935944,12.00944091
24.10573171,10.43405228,-3.61438385,-3.059338074,11.45830559
24.11567071,10.01537292,-3.197351074,-2.790048065,10.87727525
24.12561071,9.543105011,-2.849923553,-2.60697876,10.29510834
24.13554971,9.015452271,-2.615061951,-2.486778717,9.710870045
24.14548971,8.506809998,-2.421664124,-2.360591125,9.154379494
24.15542871,8.08528656,-2.365381165,-2.363135834,8.74935985
24.16536871,7.670499115,-2.466720428,-2.301464081,8.379618324
24.17530771,7.290439453,-2.627785492,-2.246678009,8.068663216
24.18524671,6.95618454,-2.848875732,-2.232008514,7.841330136
24.19518671,6.699169006,-3.049009552,-2.29802124,7.710786357
24.20512571,6.555916901,-3.18851944,-2.448159027,7.690265616
24.21506571,6.529421997,-3.252436523,-2.619402924,7.750675237
24.22500471,6.544989624,-3.221600647,-2.816243591,7.819643718
24.23494471,6.5864534,-3.175197144,-3.031795349,7.91549293
24.24488371,6.757846985,-3.107537842,-3.201542358,8.097849145
24.25482371,7.032974854,-3.02236496,-3.268902283,8.323649883
24.26476271,7.389683075,-2.963986359,-3.246149597,8.598262516
24.27470271,7.679031372,-2.925815735,-3.199746094,8.818520034
24.28464171,7.874225464,-2.89827301,-3.130739594,8.955721272
24.29458171,8.036787415,-2.863096161,-2.980452118,9.037165839
24.30452071,8.213869171,-2.793191528,-2.818189545,9.122047905
24.31446071,8.365354156,-2.764301605,-2.7789711,9.238138011
24.32439971,8.862919464,-2.730022888,-2.900817719,9.716949616
24.33433871,9.781708832,-2.75082962,-2.905009003,10.56825286
24.34427871,10.89838669,-2.837798767,-2.658621368,11.57135264
24.35421771,11.91776688,-2.956950989,-2.491419067,12.52932143
24.36415771,12.7229425,-3.140918427,-2.514770508,13.34401384
24.37409671,13.38037537,-3.391048279,-2.645748138,14.05466601
24.38403671,13.71013962,-3.623365173,-2.898422699,14.47403046
24.39397521,13.80414413,-3.744163971,-3.215762787,14.6599553
24.40391521,13.90458527,-3.804937592,-3.608995056,14.86068258
24.41385421,14.14558411,-3.850293274,-4.058809662,15.21171403
24.42379421,14.52579346,-4.154011688,-4.448449402,15.749387
24.43373321,15.11511795,-4.761448517,-4.77282486,16.55046947
24.44367321,15.47392181,-5.298980713,-4.913083191,17.07805139
24.45361221,15.51733154,-5.422024841,-4.829107819,17.13202305
24.46355121,15.14026566,-5.188061371,-4.510420532,16.62791383
24.47349121,14.55363556,-4.635560303,-4.005819855,15.7906086
24.48343021,13.93003235,-3.906725922,-3.509452057,14.88706023
24.49337021,13.34684509,-3.168311462,-3.135679321,14.07156552
24.50330921,12.88460632,-2.542462921,-2.891686707,13.44764105
24.51324921,12.42640915,-2.221530304,-2.865191803,12.94450329
24.52318821,11.97270264,-2.331252136,-3.091970215,12.58334712
24.53312821,11.58605667,-2.805016937,-3.472478943,12.41623692
24.54306721,11.21393051,-3.406316528,-3.802392883,12.32125892
24.55300721,10.73747131,-4.142485657,-4.007017365,12.18645419
24.56294621,10.15892441,-5.005141754,-4.353546753,12.13295341
24.57288621,9.548942871,-5.970184937,-4.189487915,12.01570752
24.58282521,9.013805695,-6.17570755,-3.880380707,11.59505978
24.59276421,9.006620636,-6.635700989,-3.766168213,11.80405718
24.60270421,9.065597992,-6.517297211,-3.048560486,11.57384771
24.61264321,9.183852081,-6.540349274,-2.738555145,11.60254248
24.62258321,9.007967834,-6.608457642,-2.045496368,11.35778378
24.63252221,8.75110199,-6.366261292,-1.359173584,10.90680621
24.64246221,8.545579376,-6.0025177,-0.7789801025,10.47205594
24.65240121,8.280630341,-5.785618744,-0.3691323853,10.10833724
24.66234121,7.937992859,-5.386847992,-0.05912704468,9.593401791
24.67228021,7.711064758,-4.808301086,0.01871109009,9.087388467
24.68222021,7.736062775,-4.421355743,-0.1489402771,8.911634927
24.69215921,7.822582855,-4.257596283,-0.5840853882,8.925305842
24.70209921,7.861052856,-4.033362579,-1.21337677,8.918320968
24.71203821,7.824977875,-3.832180939,-1.793869629,8.895721316
24.72197821,7.826175385,-3.766317902,-2.301913147,8.985153077
24.73191721,7.85476593,-3.816763,-2.676434326,9.1339109
24.74185621,7.727979584,-3.889212341,-2.917732544,9.130213814
24.75179621,7.478897552,-4.005370789,-3.098706207,9.032102962
24.76173521,7.327711945,-4.144730988,-3.320395203,9.049816661
24.77167521,7.176975403,-4.253854065,-3.405717773,9.011279814
24.78161421,7.129823456,-4.37734726,-3.361110535,9.016241765
24.79155421,7.132218475,-4.526437225,-3.212918701,9.037699979
24.80149321,7.096442871,-4.674329681,-2.959645386,8.998242062
24.81143321,7.028484192,-4.846920776,-2.676883392,8.94751003
24.82137221,6.907535706,-5.004842377,-2.410437469,8.864124634
24.83131221,6.759044495,-5.176235962,-2.17632431,8.787177517
24.84125121,6.651567993,-5.394033051,-1.999990997,8.794254562
