Time (s),Acceleration x (m/s^2),Acceleration y (m/s^2),Acceleration z (m/s^2),Absolute acceleration (m/s^2)
19.87993588,6.884633331,1.14901062,-0.2115101624,6.983060795
19.88987488,18.08913345,3.841162262,-0.2999761963,18.49489828
19.89981488,37.72814392,12.01716019,-0.1029858398,39.59590369
19.90975388,60.5255864,24.00962173,-0.2418969727,65.11426156
19.91969388,76.60529846,36.46357361,1.169517975,84.8488758
19.92963288,73.05662796,45.01933182,1.374441833,85.82482285
19.93957188,43.39865204,36.18126068,5.762267303,56.79551345
19.94951188,17.90576477,21.50547913,11.68574936,30.32587645
19.95945088,6.373146973,11.53531219,15.2258876,20.13723127
19.96939088,6.323300629,6.656807098,7.474855957,11.83937005
19.97932988,7.347321167,4.316573639,0.1017883301,8.522106381
19.98926988,4.623285828,2.54845047,-2.419867859,5.807334337
19.99920888,1.653461609,0.7223977661,-3.209625549,3.6820497
20.00914888,-0.7015910339,-0.3149450684,-2.653082886,2.762294187
20.01908787,-2.060614929,-0.9951306152,-1.346150665,2.654908744
20.02902788,-2.363135834,-1.577120361,-0.1279838562,2.843958416
20.03896687,-2.592009888,-2.224673767,0.7453001404,3.496163744
20.04890588,-2.705324249,-2.67478775,0.7376660156,3.8752316
20.05884587,-2.530188446,-2.577340393,0.28081604,3.62262263
20.06878488,-2.556533661,-2.093845825,-0.2131567383,3.3114182
20.07872487,-2.954705658,-1.852397919,-0.6550378418,3.548343015
20.08866388,-3.350782013,-2.032922516,-0.7815248108,3.996410275
20.09860387,-3.462898865,-2.207758942,-0.9214837646,4.208919151
20.10854288,-3.474574585,-2.300865326,-0.9596543884,4.276398758
20.11848287,-3.234473877,-2.250719604,-0.6267466736,3.990034009
20.12842188,-3.015778656,-2.285896454,-0.3576063538,3.801069034
20.13836187,-2.938988342,-2.406395874,-0.1525328064,3.801533879
20.14830088,-2.934347992,-2.646795959,0.09190887451,3.95276792
20.15823988,-3.023562469,-3.193010101,0.2213896179,4.402982725
20.16817988,-2.907553711,-3.951033783,0.209564209,4.910036018
20.17811888,-2.504891052,-3.08433609,0.4173321533,3.995218946
20.18805888,-1.132544861,-0.05373825073,2.389630737,2.644972726
20.19799788,0.9931846619,2.199376373,5.666915588,6.15935098
20.20793788,1.901046753,-0.03562591553,2.706222382,3.307398909
20.21787688,2.243684235,-0.8922944641,0.4731660461,2.460527273
20.22781688,3.54657486,-0.2510279846,0.6439608765,3.61329405
20.23775588,4.903652802,0.2201921082,-0.2037263489,4.912819943
20.24769588,7.917335815,1.012045441,-1.11622879,8.059429825
20.25763488,23.04697357,3.730691986,-1.512005768,23.3958803
20.26757387,46.95540573,13.70040985,0.7017407227,48.91833805
20.27751388,69.54822372,26.32620438,-1.415007477,74.37759546
20.28745287,79.30762894,39.6513446,-2.180814972,88.69433517
20.29739288,67.62068207,44.2870546,2.147284698,80.86105787
20.30733187,36.26822983,30.23068497,9.919272766,48.24594056
20.31727188,14.98698441,16.19841522,13.0998587,25.66329393
20.32721087,7.798333282,8.676856384,10.45081741,15.66273997
20.33715088,7.250771942,4.987628174,4.170776825,9.738865842
20.34708988,4.767735443,2.911295929,0.01287322998,5.586332514
20.35702988,1.601220245,1.199156342,-1.320104828,2.396780958
20.36696888,-1.1174263,-0.09699829102,-1.488504639,1.863785466
20.37690788,-2.958597565,-0.9084608459,-1.079854431,3.277908823
20.38684788,-3.366948395,-1.411864014,-0.1106199646,3.652661805
20.39678688,-3.114872589,-1.610650635,0.4059558105,3.530074622
20.40672688,-2.95096344,-1.742975464,0.2332150269,3.435191107
20.41666592,-2.876268768,-1.770967255,-0.323177948,3.393183023
20.42660592,-2.708617401,-1.626517639,-0.6095324707,3.217716223
20.43654492,-2.606380005,-1.459315338,-0.7020401001,3.068497725
20.44648492,-2.673739929,-1.552571411,-0.6671626282,3.162984219
20.45642392,-2.885100403,-1.782792664,-0.8068222046,3.486131966
20.46636392,-3.104095001,-2.073039093,-0.9916877747,3.862167979
20.47630292,-3.048859863,-2.261048126,-0.9009764099,3.901236161
20.48624192,-2.809208221,-2.366428986,-0.6200106812,3.725057076
20.49618192,-2.721191254,-2.541864166,-0.2718347168,3.733610771
20.50612092,-2.699785767,-2.81399826,-0.1028361511,3.901026105
20.51606092,-2.517464905,-3.317700806,0.126486969,4.166625389
20.52599992,-2.105820923,-3.811074829,0.3942800903,4.371982377
20.53593992,-1.601819,-4.21343811,0.5218148804,4.537750058
20.54587892,-1.065783691,-4.18424881,0.4861889648,4.345136671
20.55581892,0.1549278259,-2.286195831,0.6674620056,2.386671226
20.56575792,1.53041748,0.6493496704,2.248025208,2.795970313
20.57569792,3.13118866,1.946103058,4.417164459,5.753520782
20.58563692,3.284769287,-0.04161346436,2.157463531,3.930151376
20.59557692,3.768114166,-0.5381309509,0.6709048462,3.865020388
20.60551592,5.038222961,0.09744735718,0.7881111145,5.100422112
20.61545492,6.469097443,1.148711243,0.878972168,6.628827295
20.62539492,11.46181503,3.732637939,1.946552124,12.21044041
20.63533392,28.14716766,9.8299086,-0.956660614,29.82960526
20.64527392,47.28906189,20.23671753,-5.103636932,51.68972065
20.65521292,71.96464874,32.95427124,-4.888534241,79.30190684
20.66515292,78.82667908,42.1277948,-0.8108638,89.38150776
20.67509192,55.9271489,37.33925262,6.033503265,67.51643453
20.68503192,25.71367813,25.03828262,10.6964566,37.45027401
20.69497092,11.19566849,15.40237061,11.65386566,22.32461865
20.70491092,6.876699829,9.294771423,7.098388824,13.56719943
20.71484992,5.455704803,5.833668823,1.297801208,8.092014262
20.72478892,2.737357635,3.422033844,-1.761536865,4.722970949
20.73472892,0.2498304749,1.562151489,-3.393742676,3.744358676
20.74466792,-1.134041748,0.5007087708,-3.555256805,3.765184048
20.75460792,-1.632505188,0.01691482544,-3.175047455,3.570194062
20.76454692,-1.701212311,-0.5120851135,-1.876946869,2.584431086
20.77448692,-1.800904999,-1.163979492,-0.6679110718,2.245932384
20.78442592,-1.98217804,-1.52233429,-0.2408491516,2.510884263
20.79436592,-2.162403259,-1.694476318,0.1091230774,2.749390059
20.80430492,-2.254910889,-1.792073364,0.5596861267,2.934177673
20.81424492,-2.498903503,-1.85808609,0.6993457031,3.191564984
20.82418392,-2.879711609,-2.178270264,0.4553530884,3.639360758
20.83412292,-3.245401154,-2.772833862,0.1306782532,4.270633803
20.84406292,-3.478765869,-3.489693146,-0.1178050232,4.928858717
20.85400192,-3.601809998,-4.033811646,-0.2809657288,5.415128197
20.86394192,-3.47053299,-4.005819855,-0.4290078735,5.317446727
20.87388092,-3.200943604,-3.641926575,-0.4513114929,4.869635632
20.88382092,-3.011138306,-3.557352448,-0.2330653381,4.666479378
20.89375992,-2.882555695,-3.864962769,-0.01526824951,4.821545152
20.90369992,-2.924318848,-3.726500702,0.3388952637,4.749031291
20.91363892,-2.610720978,-1.491648102,1.689985657,3.449192602
20.92357892,-1.444945221,1.363215179,4.382885742,4.812058785
20.93351792,0.6292913818,1.306034088,4.271068268,4.510405395
20.94345692,1.493294678,-0.4288581848,1.499282227,2.159095999
20.95339692,2.361339569,-0.4138893127,0.9922865295,2.594583103
20.96333592,3.774251404,0.03936813354,1.189276886,3.957385882
20.97327592,6.277346191,0.9969268799,1.067729645,6.445074476
20.98321492,16.40244095,4.733606415,-1.243913269,17.11707974
20.99315492,40.0866394,14.84133728,-3.876039734,42.92117933
21.00309392,64.87194809,28.82061722,2.359094238,71.02508677
21.01303392,79.06034317,39.02714264,-0.3773652649,88.169145
21.02297292,70.74348816,42.31475601,-2.574346619,82.47306805
21.03291292,39.38819183,31.76140182,4.117038574,50.76579861
21.04285192,16.26248199,18.46096024,8.224946136,25.94080015
21.05279092,6.276148682,10.63762894,9.909093933,15.83475084
21.06273092,5.989494781,6.692283325,4.25325531,9.937347965
21.07266992,5.829926605,4.508025513,-0.6313870239,7.396552428
21.08260992,2.994971924,2.556084595,-2.402803345,4.612687849
21.09254892,0.6134243774,0.9819580078,-3.32533493,3.521133822
21.10248892,-0.6610253906,0.05628295898,-2.90994873,2.98461454
21.11242792,-1.025816803,-0.5634283447,-1.62996048,2.006619739
21.12236792,-1.192420349,-1.050665131,-0.5701643372,1.688446291
21.13230692,-1.585652618,-1.720671844,0.204175415,2.348764233
21.14224692,-2.162403259,-2.451152802,0.633482666,3.32948017
21.15218592,-2.748284912,-2.969524841,0.5950126648,4.089643971
21.16212592,-3.225791931,-3.230432281,0.3932322693,4.582145559
21.17206492,-3.703598328,-3.68922821,0.4631369019,5.24800354
21.18200392,-3.971092072,-4.227957916,0.9987231445,5.885800566
21.19194392,-3.943699036,-4.274660797,1.402733002,5.982737408
21.20188292,-3.788172455,-3.789519653,1.448986816,5.550700185
21.21182292,-3.436403961,-3.209176483,1.259780273,4.867723515
21.22176192,-3.255729675,-2.990481262,1.13853241,4.564976445
21.23170192,-3.219355316,-3.102298737,1.006057892,4.582647552
21.24164092,-3.080294495,-3.132386169,0.8843609619,4.48131137
21.25158092,-2.824476471,-2.758912811,0.7593708801,4.020685435
21.26151992,-2.399061127,-2.069596252,0.5533992004,3.216360305
21.27145992,-1.538500671,-1.113085327,0.2719844055,1.918311439
21.28139892,-0.799637146,-0.4572990417,0.09714797974,0.9262719411
21.29133792,-0.1673519897,-0.1422042847,0.04924758911,0.2250645954
21.30127792,0.7108717346,0.2995271301,0.1549278259,0.7868022344
21.31121692,1.758543091,0.8903485107,0.367635498,2.005081079
21.32115692,2.309996338,0.9639953613,0.07125183105,2.504086053
21.33109592,3.308270416,1.077010345,-0.1499880981,3.482398722
21.34103592,8.549321594,3.216361542,-1.060843964,9.195720266
21.35097492,26.0804155,10.16057098,-2.024390259,28.06284788
21.36091492,50.87620239,21.06284958,-1.499132538,55.08428996
21.37085392,75.63247147,33.96167633,-2.295476532,82.93934779
21.38079392,77.66943558,46.16594742,-3.072211304,90.40616354
21.39073292,50.97499695,43.59594177,7.279811554,67.46889735
21.40067192,20.40257263,29.19633591,15.17304749,38.71578968
21.41061192,6.655310211,17.59695694,12.98774185,22.86104735
21.42055013,5.76271637,9.837842102,5.04421051,12.46740137
21.43049012,7.33878891,6.584806824,-2.186203766,10.09935594
21.44042913,6.372398529,4.644990692,-5.099745026,9.390995734
21.45036912,4.06255188,3.110232239,-5.192552032,7.289750954
21.46030813,1.921703796,2.248623962,-3.954626312,4.938453652
21.47024812,0.3135978699,1.368903351,-2.609523468,2.963419096
21.48018713,-0.3763174438,0.6782395935,-1.64043869,1.814569608
21.49012712,-0.6747967529,0.05852828979,-0.8655001831,1.099029929
21.50006613,-1.029559021,-0.6514453125,-0.2613565063,1.246065807
21.51000612,-1.176403656,-1.207987976,0.01332229614,1.686220032
21.51994513,-1.224453735,-1.421593781,-0.07918533325,1.877894072
21.52988413,-1.298399963,-1.515598297,-0.2504292297,2.011366566
21.53982413,-1.503623199,-1.648521881,-0.5258564758,2.29238569
21.54976313,-1.893712006,-1.820813599,-0.8924441528,2.774520479
21.55970313,-2.441123657,-2.131717072,-1.090182953,3.419327603
21.56964213,-2.984793091,-2.559677124,-1.095871124,4.081895429
21.57958213,-3.292253723,-2.978356476,-0.9446855164,4.53893959
21.58952113,-3.27384201,-3.352877655,-0.7158114624,4.740486908
21.59946113,-2.942281494,-3.726351013,-0.5538482666,4.780110895
21.60940013,-2.311642914,-3.987408142,-0.3384461975,4.621435111
21.61934013,-1.516945496,-4.294569397,-0.1645079041,4.557577514
21.62927913,-0.8015830994,-4.757257233,-0.5559439087,4.856243968
21.63921913,-0.6744973755,-5.3402948,-1.162183228,5.506756315
21.64915813,-0.699944458,-4.701123962,-1.225950623,4.908507276
21.65909712,-0.05164260864,-2.384990387,-0.5833369446,2.455835519
21.66903713,1.219963074,-0.0260458374,1.374142456,1.837731149
21.67897612,3.733536072,-0.3941304016,3.819756775,5.355854011
21.68891613,5.159321136,-1.816921692,2.044897614,5.839640851
21.69885512,6.295608215,-1.025966492,1.180445251,6.486967014
21.70879513,9.293873291,-0.1426533508,1.468296661,9.410224536
21.71873412,15.81581085,2.173480225,2.289788361,16.1278337
21.72867413,27.21715164,6.820716248,0.3468287659,28.0609302
21.73861313,43.48786652,16.57398422,-1.04602478,46.55089317
21.74855313,62.67257172,31.26608185,3.409459991,70.12163387
21.75849213,74.25413773,42.44797897,6.696773987,85.79250941
21.76843113,59.09740631,43.25405273,9.112749939,73.80012684
21.77837113,27.55035873,27.38480301,10.88835754,40.34236027
21.78831013,13.39339828,14.11938858,8.180338898,21.11061809
21.79825013,9.52918396,7.331154785,2.698737946,12.32210875
21.80818913,8.03499115,3.924389191,-1.303040314,9.036582726
21.81812913,4.876110077,2.079924774,-2.877915344,6.03199248
21.82806813,1.27894043,0.6265969849,-3.122656403,3.432097815
21.83800813,-1.415007477,-0.4113446045,-1.906435547,2.409553286
21.84794713,-2.607427826,-1.175655212,-1.178798676,3.093608146
21.85788713,-2.887645111,-1.553469543,-0.7065307617,3.354243227
21.86782613,-2.783012695,-1.803300018,-0.1425036621,3.319240563
21.87776613,-2.493065643,-1.912722473,0.1582209778,3.14625451
21.88770513,-2.471061401,-1.924398193,0.1131646729,3.134048356
21.89764413,-2.580633545,-1.849553833,0.07259902954,3.175813202
21.90758413,-2.684517517,-1.845811615,0.06496490479,3.258508134
21.91752313,-2.955154724,-1.969604187,-0.2038760376,3.557224415
21.92746313,-3.116968231,-2.016606445,-0.4108955383,3.735107449
21.93740213,-2.942431183,-1.851649475,-0.6505471802,3.536908068
21.94734213,-2.577190704,-1.610950012,-0.6864724731,3.11581712
21.95728113,-2.222278748,-1.481169891,-0.5637277222,2.729501058
21.96722112,-2.039359131,-1.505569153,-0.3908372498,2.564854361
21.97716013,-2.074236603,-1.736838226,-0.2466870117,2.716600631
21.98710012,-2.3436763,-2.286495209,-0.2959346008,3.287621667
21.99703913,-2.656525726,-3.043022003,-0.3900888062,4.058236208
22.00697912,-2.753524017,-3.054997101,-0.3426374817,4.127020989
22.01691813,-2.588866425,-2.348915405,-0.2088157654,3.501890485
22.02685812,-1.445244598,-0.01930984497,0.4067042542,1.501503636
22.03679713,0.9009764099,2.815944214,3.921694794,4.911312489
22.04673613,2.386636963,1.400337982,5.166356506,5.86073562
22.05667613,2.094594269,-0.4290078735,0.846789093,2.299657512
22.06661513,2.714305573,0.5297483826,1.060694275,2.961952132
22.07655513,4.043242035,1.813179474,1.033600616,4.550138041
22.08649413,7.002588043,4.470453644,2.301015015,8.620665008
22.09643413,19.27945816,11.31916168,2.029928741,22.44864225
22.10637313,44.38315475,23.10265778,-3.751199341,50.1763761
22.11631313,74.76068436,35.43176926,-5.30631546,82.90191302
22.12625213,79.42049423,42.22090118,-2.789299622,89.98888594
22.13619213,60.71149979,36.47315369,5.860313416,71.06701358
22.14613113,26.1666362,22.43504608,13.38815918,36.97657297
22.15607012,12.44003082,12.94238617,12.23450821,21.72424723
22.16601013,10.50560349,6.87190979,6.395600281,14.08880945
22.17594912,8.847800903,3.852239227,2.335144043,9.928556068
22.18588913,5.262606354,1.817520447,0.572409668,5.596968736
22.19582812,1.839524689,0.06735992432,-0.1079255676,1.843918753
22.20576813,-0.4986131287,-0.903072052,-0.5575904846,1.172630092
22.21570712,-1.626218262,-1.837129669,-0.6042933655,2.52681652
22.22564713,-1.977837067,-2.530487823,-0.3484753418,3.230579383
22.23558612,-2.085912323,-2.640209656,-0.3716770935,3.385244616
22.24552613,-2.07812851,-2.739602966,-0.595461731,3.489787556
22.25546512,-2.255060577,-2.879861298,-0.6837780762,3.721082068
22.26540513,-2.634671173,-3.083288269,-1.021176453,4.182219517
22.27534412,-3.244353333,-3.44478653,-1.397493896,4.934102955
22.28528313,-3.870351563,-4.079017639,-1.610201569,5.848996086
22.29522313,-4.272565155,-4.570445709,-1.775158539,6.503458682
22.30516213,-4.349954224,-4.798870697,-1.71303772,6.69968357
22.31510213,-3.916455688,-4.79153595,-1.372196503,6.3387984
22.32504113,-3.089724884,-4.871619415,-0.7818241882,5.821539715
22.33498113,-2.207758942,-4.859794006,-0.1188528442,5.339093868
22.34492013,-1.529219971,-4.628225555,0.393381958,4.890167162
22.35486013,-1.190474396,-4.350852356,0.603993988,4.55103881
22.36479913,-0.9701325989,-3.889960785,0.5785469055,4.05063806
22.37473913,-0.7646099854,-3.020718384,0.5791456604,3.169349725
22.38467813,-0.3667373657,-2.00313446,0.4661306763,2.089095922
22.39461813,0.1474433899,-1.033600616,0.3357518005,1.096721961
22.40455713,1.230291595,1.773362274,0.9069639587,2.34115672
22.4144965,3.370840302,5.11097168,3.645519104,7.125616141
22.4244365,3.923640747,1.54104538,3.625460815,5.560012923
22.4343755,3.597918091,-0.3854484558,1.144669647,3.795240928
22.4443155,4.624034271,0.9328601074,1.611099701,4.984733009
22.4542545,8.469687195,3.7676651,4.682562561,10.38543661
22.4641945,19.38019867,8.683891754,3.475323029,21.51929243
22.4741335,37.7112291,17.427659,1.466650085,41.56935362
22.4840735,64.42258255,29.94522858,-0.00209564209,71.04214145
22.4940125,79.59997101,42.65664505,-2.314786377,90.33882326
22.5039525,68.78915222,45.00885361,-1.560654602,82.22031385
22.5138915,34.23770233,31.9634816,4.37614975,47.04290705
22.5238315,11.9466568,18.26591583,8.948391724,23.58898057
22.5337705,6.367907867,10.36175262,7.503596191,14.29056066
22.5437095,8.31460968,6.429130554,1.059945831,10.56361392
22.5536495,6.930288391,3.969744873,-1.981130219,8.228769561
22.5635885,3.76646759,2.255060577,-2.594554596,5.099342101
22.5735285,0.5291496277,0.7587721252,-1.654659119,1.895687544
22.5834675,-1.567689972,-0.775537262,-0.5409750366,1.830782314
22.5934075,-1.938019867,-1.721270599,0.0296383667,2.592213709
22.6033465,-2.111509094,-2.139650574,0.2935395813,3.020387511
22.6132865,-2.27931015,-2.406246185,0.2920426941,3.327245768
22.6232255,-2.425256653,-2.684517517,0.1851649475,3.622539191
22.6331655,-2.674188995,-2.773881683,0.1185534668,3.854836093
22.6431045,-3.085982666,-2.887495422,-0.1824705505,4.230155355
22.6530445,-3.617078247,-3.165018311,-0.6248007202,4.84674859
22.6629835,-3.971092072,-3.495680695,-0.988843689,5.382115532
22.6729225,-3.885919189,-3.677702179,-0.8678952026,5.420249381
22.6828625,-4.107159119,-3.931424561,-1.023571472,5.776898273
22.6928015,-3.619173889,-3.943848724,-0.7180567932,5.400737724
22.7027415,-2.711910553,-4.134402466,0.04355941772,4.944657725
22.7126805,-1.795067139,-4.593946838,0.333356781,4.943454291
22.7226205,-0.8499325562,-5.24314682,0.3357518005,5.3221897
22.7325595,-0.1014889526,-5.881269836,0.2817141724,5.888887651
22.7424995,0.360151062,-6.16522934,0.4520599365,6.192262897
22.7524385,0.3465293884,-5.667364655,0.6965016174,5.720508653
22.7623785,0.3541635132,-3.123105469,1.191671906,3.361443365
22.7723175,0.4508624268,1.089584198,2.563569031,2.821764843
22.7822575,1.219663696,5.627996521,8.041427765,9.890727216
22.7921965,3.168910217,3.72320755,7.690856781,9.113371739
22.8021355,3.559597778,-0.282462616,2.232906647,4.21145979
22.8120755,4.617597656,-0.02978805542,1.310075684,4.799936848
22.8220145,6.996600494,0.7238946533,1.168021088,7.130267541
22.8319545,13.56613907,2.743045807,1.05186264,13.88059237
22.8418935,32.25896713,11.54534134,2.774181061,34.37487378
22.8518335,57.94330627,26.06499756,0.6682104492,63.53941568
22.8617725,77.42768829,37.29240005,-8.173153839,86.3282715
22.8717125,77.10675568,45.35059296,-7.687713318,89.78434712
22.8816515,47.97448654,37.82648941,2.049238586,61.12768635
22.8915915,17.92058395,23.19696167,12.86170395,32.01046373
22.9015305,6.041885834,14.36023773,15.31869461,21.84910105
22.9114705,4.770579529,8.854387207,8.611442413,13.24067756
22.9214095,5.241500244,5.511389008,2.452799377,7.991555442
22.9313495,3.395389252,2.77433075,-0.3251239014,4.396735702
22.9412885,1.140478363,0.6623725891,-1.551822968,2.03656153
22.9512275,-0.7490423584,-0.7807763672,-1.431622925,1.794497252
22.9611675,-1.569486237,-1.626068573,-1.21337677,2.565086594
22.9711065,-1.675166473,-1.874701538,-1.365759888,2.861116677
22.9810465,-1.715283051,-1.86512146,-1.409169617,2.899419427
22.9909855,-1.72935379,-1.925446014,-1.208287354,2.856215191
23.0009255,-1.817520447,-2.231709137,-0.8622070313,3.004547755
23.0108645,-2.106419678,-2.639012146,-0.6149212646,3.432130115
23.0208045,-2.562970276,-2.831811218,-0.4095483398,3.841315042
23.0307435,-2.821782074,-2.7192453,-0.4944218445,3.949835697
23.0406835,-3.070864105,-2.818339233,-0.6234535217,4.214491272
23.0506225,-3.233575745,-3.039130096,-0.6881190491,4.490638225
23.0605625,-3.173101501,-3.39793396,-0.6979985046,4.701247733
23.0705015,-2.857707367,-4.046385498,-0.5120851135,4.980156439
23.0804405,-2.320923615,-4.537813568,-0.1498384094,5.09910678
23.0903805,-1.644330597,-4.687651978,0.1456471252,4.969820647
23.1003195,-1.200802917,-4.55981781,0.245489502,4.721666147
23.1102595,-0.8768765259,-4.246669006,0.1754351807,4.339802714
23.1201985,-0.5417234802,-3.148851929,-0.0137713623,3.195140443
23.1301385,-0.3183879089,-0.9084608459,0.3152444458,1.01294177
23.1400775,-0.1713935852,0.4399351501,0.9172924805,1.031670583
23.1500175,0.2682421875,1.429377594,1.906734924,2.398064271
23.1599565,1.330133972,2.277214508,2.998564453,3.993288254
23.1698965,2.411185913,1.201102295,2.123035126,3.429831246
23.1798355,3.305875397,0.3721261597,1.403481445,3.610685556
23.1897755,5.128185883,1.089135132,1.866468658,5.564908897
23.1997145,9.764045563,3.484004974,1.739532623,10.51193846
23.2096545,23.00476135,10.15158966,1.957629089,25.22114449
23.2195935,46.122388,20.2397113,-1.090931396,50.37966574
23.2295325,71.99099396,31.1645929,-7.131470032,78.77050797
23.2394725,79.49444046,42.13782394,-7.730524292,90.30350645
23.2494115,58.6715419,40.66279129,2.322121124,71.42271817
23.2593515,21.41701309,25.54333237,11.8736087,35.38548942
23.2692905,7.842341766,15.47781372,12.82742523,21.57794893
23.2792305,6.761439514,10.04201752,7.831863556,14.41864303
23.2891695,6.161936188,6.678062897,2.531535645,9.43263772
23.2991095,3.575015717,4.083508301,-0.3788621521,5.440525154
23.3090485,1.081501007,1.606609039,-1.509311371,2.45537326
23.3189885,-0.2372566223,0.08981323242,-1.663640442,1.682871546
23.3289275,-0.8545729065,-0.4647834778,-1.506766663,1.79350615
23.3388675,-0.9780661011,-0.5601351929,-1.241667938,1.676932915
23.3488065,-0.9987231445,-0.6459068298,-1.2859758,1.751678426
23.3587455,-1.061442719,-0.5442681885,-1.478325806,1.899561974
23.3686855,-1.076860657,-0.4851411438,-1.175355835,1.666268929
23.3786245,-1.095122681,-0.7156617737,-0.5843847656,1.432819254
23.3885645,-1.29181366,-1.014290771,-0.1631607056,1.650511956
23.3985035,-1.497336273,-1.254241791,-0.121098175,1.956988286
23.4084435,-1.840123444,-1.556313629,-0.2318678284,2.421142104
23.41838238,-2.244432678,-1.873054962,-0.5312452698,2.971200847
23.42832237,-2.661166077,-2.257904663,-1.052611084,3.645261095
23.43826138,-3.054248657,-2.647095337,-1.465602264,4.299248606
23.44820138,-3.163521423,-3.042722626,-1.466350708,4.627765462
23.45814038,-3.103196869,-4.297114105,-1.284927979,5.453994898
23.46808038,-2.575993195,-4.73181015,-0.951870575,5.470998613
23.47801938,-1.763782196,-3.949536896,-0.4326004028,4.347057906
23.48795938,-1.460961914,-3.343596954,-0.2013313293,3.654392509
23.49789838,-1.505120087,-2.904859314,-0.3299139404,3.288227078
23.50783738,-0.7500901794,-1.531914368,-0.1095721436,1.70921121
23.51777738,0.9220825195,-0.3487747192,1.034199371,1.428792608
23.52771638,2.200573883,-0.829125824,1.563348999,2.823833412
23.53765638,2.817441101,-1.092428284,1.132544861,3.2270779
23.54759538,4.080514526,-0.4105961609,1.545086975,4.382520025
23.55753538,6.781647491,0.279768219,1.97274765,7.068291607
23.56747438,14.50169357,2.503094788,2.89947052,14.99905095
23.57741438,31.29093018,7.845634918,1.258882141,32.28406856
23.58735338,53.2436792,16.58072021,-0.816252594,55.77164087
23.59729338,69.360065,29.72773087,-1.103205872,75.47034956
23.60723238,70.62014465,42.08543289,-0.1092727661,82.20949114
23.61717238,52.18133835,38.86383224,4.645140381,65.22934047
23.62711138,24.47201019,24.89203674,7.89338562,35.78824266
23.63705038,7.904761963,13.97074768,13.32079926,20.85930836
23.64699038,6.32434845,8.096812592,5.630840607,11.71589192
23.65692938,7.2977742,4.982987823,-1.969454498,9.053531187
23.66686938,4.796625366,3.107687531,-2.405946808,6.201122216
23.67680838,1.855990448,1.490001526,-1.29405899,2.709131551
23.68674838,0.1501377869,0.6610253906,-0.7851173401,1.037258483
23.69668738,-0.7032376099,0.2775228882,-0.6237528992,0.9801172219
23.70662738,-0.9563612366,0.03427871704,-0.8038284302,1.249776776
23.71656638,-1.011446686,-0.1715432739,-0.5860313416,1.181475445
23.72650638,-1.160536652,-0.44697052,-0.299078064,1.27909173
23.73644538,-1.331481171,-0.7533833313,-0.08652008057,1.532290533
23.74638538,-1.510359192,-1.03898941,0.1577719116,1.83999344
23.75632438,-1.93652298,-1.359173584,0.229921875,2.377043994
23.76626438,-2.53093689,-1.815574493,0.07274871826,3.115645143
23.77620338,-3.235970764,-2.432890778,-0.3511697388,4.063715604
23.78614238,-3.82963623,-3.192561035,-0.3891906738,5.0010028
23.79608238,-4.178111572,-3.95372818,-0.1565744019,5.754398177
23.80602137,-4.23918457,-4.158202972,-0.06571334839,5.938489372
23.81596138,-4.354295197,-3.987857208,-0.08936416626,5.905156876
23.82590037,-3.928879852,-3.754941559,-0.5584886169,5.463295026
23.83584038,-3.484004974,-3.58279953,-0.4872367859,5.021169467
23.84577937,-3.274141388,-3.409160614,-0.1938468933,4.730745664
23.85571938,-2.66550705,-3.325634308,0.07050338745,4.262598047
23.86565837,-0.7915539551,-2.123334503,0.123792572,2.269456251
23.87559838,0.7033872986,-0.9023236084,0.0556842041,1.145444157
23.88553737,1.36546051,-0.850531311,-0.02739303589,1.608923955
23.89547738,2.112257538,-0.3870950317,-0.1287322998,2.151289491
23.90541637,2.33080307,-0.2130070496,-0.1525328064,2.345481019
23.91535638,4.076323242,0.2920426941,0.5813909912,4.127919039
23.92529537,12.44781464,2.041155396,1.946851501,12.76341002
23.93523438,31.20500885,5.673501892,-2.691852264,31.83060272
23.94517437,58.0504834,13.58485016,-5.786217499,59.89897403
23.95511338,78.16804871,26.0817627,-4.669539642,82.53669962
23.96505337,74.82999023,39.79878799,3.561394043,84.83015084
23.97499238,50.72037643,38.24397125,11.73020691,64.59687049
23.98493238,28.34655304,22.20332794,12.27761856,38.04280166
23.99487138,15.65938614,12.37835907,9.75386673,22.21661684
24.00481138,10.19859192,6.26117981,4.679568787,12.84959197
24.01475038,7.479496307,3.494483185,0.4917274475,8.270191873
24.02469038,3.582500153,1.903292084,-1.652563477,4.380387442
24.03462938,0.4007167053,0.5828878784,-2.557581482,2.653592884
24.04456938,-1.185384979,-0.1396595764,-2.147733765,2.457112669
24.05450838,-1.839824066,-0.6668632507,-1.044527893,2.218264571
24.06444838,-2.068099365,-1.14901062,-0.3399430847,2.390150977
24.07438738,-2.030527496,-1.369651794,-0.001047821045,2.449283375
24.08432638,-1.980381775,-1.508413239,-0.07259902954,2.490480494
24.09426638,-2.102078705,-1.587299194,-0.3634442139,2.659012093
24.10420538,-2.581381989,-1.838925934,-0.7586224365,3.258939945
24.11414538,-3.570674744,-2.455194397,-1.468146973,4.575276296
24.12408438,-4.282594299,-3.007396088,-1.795216827,5.532436047
24.13402438,-4.64873291,-3.344345398,-1.428928528,5.902304681
24.14396338,-4.990023193,-3.721710663,-0.8848100281,6.287634731
24.15390338,-5.146597595,-3.888763275,-0.675844574,6.485885638
24.16384238,-5.158273315,-3.77470047,-0.3861968994,6.403537716
24.17378238,-4.592000885,-3.425476685,-0.2727328491,5.735394132
24.18372138,-3.925437012,-3.010090485,-0.009580078125,4.946695082
24.19366138,-3.485950928,-2.751428375,0.28081604,4.449839281
24.20360038,-2.91818161,-2.586471405,0.3820056152,3.918104967
24.21354037,-1.60421402,-1.830693054,0.7023394775,2.533420696
24.22347938,0.2034269714,-0.532742157,1.457219696,1.56482778
24.23341937,1.331780548,-1.145118713,0.4632865906,1.816472064
24.24335838,2.092348938,-1.086141357,0.2637515259,2.372170313
24.25329738,2.176473999,-0.6060896301,0.2853067017,2.27723157
24.26323738,2.461181946,-0.5008584595,0.3303630066,2.533261827
24.27317638,4.352947998,0.2002835083,1.739233246,4.691822891
24.28311638,13.34220474,0.365539856,0.6047424316,13.36090417
24.29305538,33.58850235,2.043251038,-2.897374878,33.77509654
24.30299538,60.52319138,8.478369141,-4.402944031,61.27254976
24.31293438,78.60618759,20.26949936,-3.719615021,81.26266589
24.32287438,67.16293396,37.74999847,2.727777557,77.09320887
24.33281338,43.58636169,42.14156616,8.857979736,61.27108885
24.34275338,29.3451265,26.01155869,8.952732697,40.22299165
24.35269238,19.55428665,14.11160477,6.689139862,25.02502962
24.36263238,12.79703842,7.572602692,4.22406601,15.45804766
24.37257138,8.521180115,3.859274597,2.017803955,9.569537281
24.38251138,4.233795776,2.025138702,0.3885919189,4.709269277
24.39245038,1.050515442,0.8479866028,-0.7318281555,1.535655046
24.40238937,-0.7117698669,0.09939331055,-1.663790131,1.812372195
24.41232938,-1.356329498,-0.2686912537,-2.252665558,2.643166059
24.42226837,-1.692530365,-0.7667056274,-1.849553833,2.621706684
24.43220838,-2.090852051,-1.627864838,-1.180744629,2.900993641
24.44214737,-2.364632721,-2.348166962,-0.5929170227,3.384808204
24.45208738,-2.521656189,-2.338586884,-0.449664917,3.468419969
24.46202637,-3.198548584,-2.436333618,-0.868793335,4.113543047
24.47196638,-4.013753357,-2.791994019,-1.277892609,5.053558759
24.48190537,-4.516408081,-3.024161224,-1.171164551,5.560136641
24.49184538,-5.284909973,-3.452270966,-1.291963348,6.443416604
24.50178437,-5.729036407,-3.826492767,-1.387913818,7.02781686
24.51172438,-5.406008148,-4.028422852,-0.7447013855,6.782897237
24.52166338,-5.960305481,-5.296436005,-0.5360353088,7.991546135
24.53160338,-6.660998383,-6.754553833,-0.1951940918,9.48846656
24.54154238,-5.673202515,-6.711293793,0.6179150391,8.809569237
24.55148238,-3.875141602,-6.096671906,1.058299255,7.301104579
24.56142138,-2.237397308,-5.031037903,1.179996185,5.631134885
24.57136038,-0.4632865906,-2.666405182,2.617007904,3.764715318
24.58130038,1.635648651,-1.494043121,3.718267822,4.328166697
24.59123938,3.089275818,-2.189347229,2.002835083,4.283481614
24.60117938,3.71736969,-1.849404144,1.334624634,4.361233313
24.61111838,3.803740082,-1.294208679,1.225651245,4.200670862
24.62105838,4.19128418,-1.196162567,0.9843530273,4.46840227
24.63099738,7.310348053,-1.171763306,0.1917512512,7.406145181
24.64093738,22.03717346,-0.7726931763,1.859582977,22.12898818
24.65087638,42.26805313,0.2627037048,-1.816772003,42.30789512
24.66081638,68.85875748,5.012925568,-5.129383392,69.23126807
24.67075538,77.07367447,18.44389572,0.9913883972,79.25598675
24.68069538,57.80993362,36.20610901,4.806953888,68.38111992
24.69063438,38.63959854,38.76548676,8.448581085,55.38194707
24.70057438,28.8089415,26.19148453,10.92428284,40.43870581
24.71051338,18.53595428,14.80166977,10.13437546,25.79489475
24.72045238,11.75176208,7.519762573,6.789580994,15.5160933
24.73039238,7.453151093,4.022135925,2.557581482,8.846935156
24.74033138,3.575015717,2.345023499,-0.2040257263,4.280362027
24.75027138,0.4483177185,1.19586319,-0.6480024719,1.432125954
24.76021038,-0.9699829102,0.3592529297,-0.6363267517,1.214430421
24.77015037,-1.715881805,-0.6096821594,-1.099164276,2.126999015
24.78008938,-2.259551239,-1.604513397,-1.311273193,3.065855905
24.79002937,-2.565664673,-2.563269653,-1.362915802,3.87434201
24.79996838,-3.254532166,-3.336860962,-1.847757568,5.014063096
24.80990837,-3.74072113,-3.475472717,-2.041903839,5.499206895
24.81984738,-3.889811096,-3.290607147,-2.040706329,5.488461359
24.82978737,-3.800746307,-2.980452118,-1.593286743,5.085993508
24.83972638,-3.918251953,-2.805316315,-1.519639893,5.052900493
