Time (s),Acceleration x (m/s^2),Acceleration y (m/s^2),Acceleration z (m/s^2),Absolute acceleration (m/s^2)
14.91194204,-2.352058868,2.397115173,1.932331696,3.874564215
14.92188204,-1.550924835,2.903212738,0.6355783081,3.352308433
14.93182204,-0.8132588196,2.60817627,-0.7306306458,2.828037217
14.94176204,-0.5945635986,2.368824005,-0.9862989807,2.633935975
14.95170204,-0.3650907898,2.366129608,-0.7340734863,2.504141468
14.96164104,-0.09894424438,2.422861633,-1.380579071,2.790348908
14.97158067,-0.08592132568,2.339185638,-2.896776123,3.724309846
14.98152067,-0.2520758057,2.370470581,-2.718347168,3.615533752
14.99146067,-0.2779719543,2.485730896,-1.869163055,3.12248251
15.00140067,-0.06182144165,2.506986694,-0.7183561707,2.608608779
15.01133967,-0.3161425781,2.184407501,2.499801636,3.334754935
15.02127967,-0.832868042,0.8089178467,12.80093033,12.85347558
15.03121967,0.833915863,0.2046244812,5.285658417,5.354948342
15.04115967,1.913021851,0.4834945679,-1.675016785,2.588262125
15.05109967,3.930227051,0.1029858398,-0.3141966248,3.944110834
15.06103867,5.852978668,-0.3809577942,-1.089883575,5.965763517
15.07097867,12.81215698,-3.106639709,3.072211304,13.53665613
15.08091867,22.03747284,-6.615493011,7.236252136,24.12008089
15.09085867,27.29948044,-7.494614868,0.9036708069,28.32397404
15.10079867,37.92603241,-10.2346669,-2.508782959,39.36275312
15.11073767,52.66468323,-14.19153854,-0.6700067139,54.54738797
15.12067767,57.80304794,-14.36532715,-3.870950317,59.68701058
15.13061767,46.59121307,-8.471483459,-0.693507843,47.36019553
15.14055767,28.40253662,-2.062261505,3.27503952,28.66501165
15.15049767,19.61476089,-0.1017883301,1.652713165,19.68452861
15.16043667,14.30066162,-0.3626957703,-0.163460083,14.30619412
15.17037667,10.60005707,-1.805545349,-0.5384303284,10.76620226
15.18031667,7.962841187,-3.112776947,-0.1574725342,8.551082837
15.19025667,6.087540894,-3.832330627,0.1187031555,7.194372982
15.20019667,4.196672974,-3.712280273,0.1782792664,5.605789184
15.21013567,2.581681366,-3.012186127,0.4116439819,3.988457685
15.22007567,1.648821259,-2.153571625,0.6466552734,2.7883051
15.23001567,1.251846771,-1.352287903,0.5075944519,1.911401328
15.23995567,0.8655001831,-0.3659889221,0.2219883728,0.9655657905
15.24989567,0.2713856506,0.589025116,-0.03278182983,0.6493653879
15.25983467,-0.2766247559,1.446741486,0.04939727783,1.473778231
15.26977467,-0.6942562866,2.265688477,0.676892395,2.464451131
15.27971467,-0.8976832581,3.005150757,1.036295013,3.303130887
15.28965467,-0.6313870239,3.092718658,-0.2815644836,3.16904352
15.29959467,-0.09445358276,2.679128723,-2.188149719,3.460440924
15.30953467,0.3944297791,2.329455872,-2.911894684,3.74980935
15.31947367,0.5806425476,2.271526337,-2.427501984,3.374869412
15.32941367,0.3968247986,2.342029724,-1.364562378,2.739453163
15.33935367,-0.3535647583,2.794239349,0.806073761,2.929596643
15.34929367,-1.776356049,3.223097534,4.068090363,5.485723081
15.35923367,-2.771037598,2.493963776,6.48466507,7.479932202
15.36917267,-2.694396973,0.7518864441,5.915847931,6.543879966
15.37911267,-1.368005219,-1.150357819,4.723427582,5.050299942
15.38905267,0.9386979675,-3.235671387,6.827751617,7.613732025
15.39899267,3.702550507,-4.369563446,6.560407562,8.708668804
15.40893267,5.269192657,-2.989882507,0.3272195435,6.067195505
15.41887167,5.154980164,-1.130149841,-5.296885071,7.477168622
15.42881167,6.943760376,-1.405577087,-5.745801544,9.121715326
15.43875167,11.21662491,-2.322121124,-6.188131714,13.01913572
15.44869167,19.24607758,-3.828588409,-5.700296173,20.43435753
15.45863167,33.68684784,-6.316864014,-2.850222931,34.39229942
15.46857067,44.66022858,-8.814420319,-5.981860657,45.91309921
15.47851067,58.40838913,-11.6692836,-1.288370819,59.57660615
15.48845067,66.34413666,-10.90033264,23.18633377,71.11939113
15.49839067,40.07331711,-7.265890503,18.50332214,44.73295026
15.50833067,21.51610703,-6.262527008,-0.3520678711,22.41173929
15.51826967,13.54563171,-6.367009735,-3.050057373,15.27500578
15.52820967,10.10578491,-7.079677734,-1.686542816,12.45364012
15.53814967,6.87655014,-7.522906036,3.275189209,10.70550893
15.54808967,5.493426361,-6.463409271,2.433040466,8.824572426
15.55802967,5.286107483,-4.408632202,-0.1369651794,6.884600909
15.56796867,4.891528015,-2.493215332,-1.552122345,5.705458158
15.57790867,4.003574524,-1.409618683,-1.815424805,4.616427301
15.58784867,2.389031982,-0.6215075684,-1.291065216,2.785784425
15.59778867,0.6727011108,0.1547781372,-0.3942800903,0.7949464422
15.60772867,-0.6876699829,0.9047186279,0.4695735168,1.229595498
15.61766767,-1.377435608,1.489402771,0.5827381897,2.110742349
15.62760767,-1.242266693,1.755848694,-0.2597099304,2.166490346
15.63754767,-0.7943980408,1.691332855,-1.340163116,2.29950261
15.64748767,-0.5316943359,1.676813049,-1.845661926,2.54968014
15.65742767,-0.3776646423,1.663341064,-2.112407227,2.71506876
15.66736667,-0.2683918762,1.863025818,-2.137854309,2.848389096
15.67730667,-0.1182540894,2.162403259,-1.774709473,2.799922427
15.68724667,0.1194515991,2.480192413,-1.323847046,2.813928587
15.69718667,0.2689906311,2.67478775,-0.8738827515,2.826750171
15.70712667,0.2676434326,2.777025146,-0.3393443298,2.810454811
15.71706667,0.1067280579,2.749033356,0.2219883728,2.760046033
15.72700567,-0.2028282166,2.396666107,0.5221142578,2.461249888
15.73694567,-0.6174659729,1.782642975,0.6691085815,2.001695905
15.74688567,-0.9472302246,1.071621552,0.9851014709,1.736675777
15.75682567,-1.112935638,0.2168989563,2.491419067,2.737305219
15.76676567,0.1371148682,-1.085093536,5.627846832,5.733139492
15.77670467,2.453248444,-1.076860657,3.555556183,4.451969965
15.78664467,3.207978973,-0.6355783081,-0.5665718079,3.319049938
15.79658467,5.917195129,-1.270857239,-0.2192939758,6.056101565
15.80652467,12.14753906,-2.590363312,1.133892059,12.47230526
15.81646467,17.48379227,-2.862946472,-2.50743576,17.8932023
15.82640367,30.57721436,-5.076393585,-3.070714417,31.14747336
15.83634367,48.25395538,-8.382268982,-2.624342651,49.04685329
15.84628367,66.41898102,-12.99866913,0.2294728088,67.67938457
15.85622367,74.92758728,-15.56029221,9.247020721,77.08289967
15.86616367,43.22965347,-10.62640228,14.82711685,46.92085633
15.87610267,19.06690018,-6.815477142,5.725593567,21.0423343
15.88604267,11.373349,-5.75208847,-1.374591522,12.81909088
15.89598267,8.690927124,-5.481002197,-2.943628693,10.68824351
15.90592267,6.941215668,-5.115462341,-1.841320953,8.816966188
15.91586267,5.498515778,-4.002676392,-0.9470805359,6.866735439
15.92580167,4.308640137,-2.565065918,-0.699944458,5.062989753
15.93574167,3.418141937,-1.316661987,-0.8249345398,3.75470506
15.94568167,2.40564743,-0.652792511,-1.229243774,2.779265709
15.95562167,0.9485774231,-0.297431488,-1.287173309,1.626370113
15.96556242,-0.5084925842,0.01362167358,-1.682650909,1.757857884
15.97550142,-1.368903351,0.4354444885,-1.986668701,2.451603723
15.98544142,-1.677112427,0.7533833313,-1.747466125,2.536519347
15.99538142,-1.665137329,0.963097229,-1.705553284,2.570826832
16.00532142,-1.458866272,1.180894318,-1.621577911,2.480386484
16.01526142,-1.22864502,1.443448334,-1.275946655,2.284983926
16.02520042,-0.9907896423,1.582209778,-1.03674408,2.135389937
16.03514042,-0.5920188904,1.694775696,-0.7710466003,1.953781944
16.04508042,-0.22348526,1.939067688,-0.47271698,2.008330277
16.05502042,0.05553451538,2.257305908,-0.2204914856,2.268728838
16.06496042,0.1110690308,2.467618561,-0.07349716187,2.471210134
16.07490042,-0.01257385254,2.481240234,0.02874023438,2.481438535
16.08483942,-0.254021759,2.162852325,0.2029779053,2.187157348
16.09477942,-0.8719367981,1.199904785,1.234033813,1.929477838
16.10471942,-1.610650635,-1.353934479,9.512568512,9.742499358
16.11465942,-0.7469467163,-3.102897491,13.21287369,13.59286332
16.12459942,-0.1911524963,-0.2366578674,-1.800006866,1.825533057
16.13453842,0.7042854309,0.1133143616,-3.548371124,3.619363998
16.14447842,2.422861633,-0.1881587219,-3.126398621,3.95980183
16.15441842,4.200265503,-0.3495231628,-3.284619598,5.343512201
16.16435842,9.980495453,-1.280587006,-0.2243833923,10.06481696
16.17429842,15.92388611,-1.475032654,-3.762126617,16.42861731
16.18423742,27.73866714,-2.569406891,-5.654940491,28.42558458
16.19417742,51.47031693,-8.043673096,-3.398682404,52.20579703
16.20411742,74.87220245,-15.5086496,-0.5757028198,76.46369299
16.21405742,73.06755524,-17.81550247,26.60552353,79.77539495
16.22399742,35.58026047,-12.42850479,17.98659668,41.76051157
16.23393642,16.62218399,-8.231233063,-4.165837097,19.01063905
16.24387642,10.99433716,-5.918392639,-7.683222656,14.66065249
16.25381642,5.278323669,-4.198169861,-3.410657501,7.557639548
16.26375642,2.130968628,-2.711760864,0.5249583435,3.488589334
16.27369642,2.893183594,-1.284179535,-0.7512876892,3.253315475
16.28363542,3.049009552,-0.4819976807,-1.456171875,3.413095009
16.29357542,2.44666214,0.1683998108,-1.40527771,2.826538442
16.30351542,1.07880661,0.4755610657,-1.591041412,1.980251197
16.31345542,-0.3737727356,0.593815155,-1.870659943,1.997921699
16.32339542,-1.405427399,0.7056326294,-2.25595871,2.749998778
16.33333442,-1.713786163,0.9795629883,-2.497705994,3.183573761
16.34327442,-1.525028687,1.130149841,-2.498753815,3.137948659
16.35321442,-1.271006927,1.235081635,-2.107018433,2.753254788
16.36315442,-0.9782157898,1.398392029,-1.472188568,2.253829092
16.37309442,-0.5921685791,1.610950012,-0.8400531006,1.910893189
16.38303342,-0.5896238708,2.009271698,0.1534309387,2.099611897
16.39297342,-1.085243225,2.747087402,1.747017059,3.431662958
16.40291342,-1.702559509,3.198249207,2.552042999,4.431752513
16.41285342,-1.705253906,2.975362701,2.004930725,3.972457841
16.42279342,-1.536255341,2.573149109,1.667682037,3.429626829
16.43273342,-1.464105377,1.916913757,1.364712067,2.771389892
16.44267242,-1.361269226,0.7098239136,2.534230042,2.962975835
16.45261242,-0.4634362793,-1.316212921,8.703351288,8.814505844
16.46255242,2.420466614,-1.677711182,6.620432739,7.245930105
16.47249242,2.765349426,-0.1983375549,-0.7033872986,2.860288259
16.48243242,2.072140961,0.1413061523,-2.746488647,3.443390114
16.49237142,3.543581085,-0.367635498,-2.340682526,4.262735912
16.50231142,6.787934418,-1.116079102,-2.047142944,7.177219549
16.51225142,11.28652954,-1.772015076,-3.519930267,11.95473528
16.52219142,21.07347748,-3.00949173,-4.152814178,21.6885767
16.53213142,35.60840195,-5.034181366,-5.483397217,36.37813789
16.54207042,53.32421173,-8.829389191,-6.164181519,54.400614
16.55201042,73.61347,-14.60632599,-1.579216003,75.06518266
16.56195042,63.85241821,-15.38710236,10.06566833,66.44706096
16.57189042,29.56995895,-11.40149048,19.27885941,37.09515976
16.58183042,19.41447739,-9.250164185,4.281995544,21.92767556
16.59176942,13.98526749,-7.637567596,-0.5752537537,15.94525203
16.60170942,8.760233002,-6.611750793,-0.8144563293,11.00546546
16.61164942,5.046156464,-5.598956909,0.7391629028,7.573531232
16.62158942,1.093027039,-4.658762054,3.601360931,5.989037698
16.63152942,-0.7012916565,-3.459156647,3.08433609,4.687291735
16.64146842,-0.6277944946,-2.214644623,0.8997789001,2.471513464
16.65140842,-0.2300715637,-1.414408722,-0.3791615295,1.482311851
16.66134842,0.2680924988,-0.7990383911,-1.272503815,1.526303344
16.67128842,0.54292099,-0.1722917175,-2.154469757,2.228494463
16.68122842,0.5242098999,0.2671943665,-3.350183258,3.401458027
16.69116742,0.5201683044,0.5016069031,-4.173321533,4.235421723
16.70110742,0.04909790039,0.8414002991,-3.740571442,3.834349981
16.71104742,-0.5589376831,1.130748596,-2.970572662,3.227275269
16.72098742,-0.9698332214,1.199156342,-2.395618286,2.849129583
16.73092742,-1.103205872,1.258882141,-2.023641815,2.626208986
16.74086642,-1.109492798,1.302441559,-1.617536316,2.354517364
16.75080642,-1.422192535,1.675914917,-0.4927752686,2.252587375
16.76074642,-2.369273071,2.568059692,1.623374176,3.852756051
16.77068642,-2.073937225,2.692001953,1.251397705,3.621337646
16.78062642,-1.197509766,2.374961243,0.1655557251,2.664935129
16.79056642,-0.7839198303,2.192939758,0.1815724182,2.335911734
16.80050542,-0.3658392334,1.964065704,2.493215332,3.194920207
16.81044542,1.487756195,1.111139374,7.264094238,7.497673926
16.82038542,2.83630188,0.492026825,3.516337738,4.544373426
16.83032542,1.70600235,0.489332428,-1.48012207,2.310984982
16.84026542,1.902094574,0.07798782349,-1.630409546,2.506447916
16.85020442,5.186863861,-0.9246272278,0.01990859985,5.268670475
16.86014442,10.60020676,-2.11315567,0.6637197876,10.82914282
16.87008442,16.74822189,-3.055446167,-1.062340851,17.05776234
16.88002442,29.55184662,-5.282514954,-0.43409729,30.02340826
16.88996442,44.34258911,-7.879614258,-2.370470581,45.09958604
16.89990342,63.36772614,-12.11430817,2.139949951,64.55079057
16.90984342,70.94706482,-15.08428207,9.619595947,73.16801349
16.91978342,41.97750732,-11.2765004,9.232650604,44.43548604
16.92972342,19.80621277,-7.196135559,3.903582458,21.43148122
16.93966342,12.38075409,-5.338348846,0.5051994324,13.49208163
16.94960242,9.050030365,-3.995042267,-0.6099815369,9.911381831
16.95954242,7.673792267,-3.105741577,-0.1239422607,8.279376799
16.96948179,6.964866486,-2.31209198,0.4525090027,7.352543702
16.97942179,5.848188629,-1.56679184,0.9048683167,6.12167735
16.98936179,4.910239105,-1.334774323,0.8348139954,5.156450811
16.99930079,4.183500366,-1.369651794,0.5962101746,4.442194044
17.00924079,3.340453491,-1.377585297,0.840352478,3.70979286
17.01918079,2.469414825,-1.214274902,0.5999523926,2.816454507
17.02912079,2.015558624,-1.047072601,-0.6400689697,2.359772423
17.03906079,2.140848083,-0.8288264465,-2.279160461,3.234927542
17.04900079,1.676513672,-0.4302053833,-2.928659821,3.401885229
17.05893979,0.6239025879,0.02260299683,-2.753374329,2.823266818
17.06887979,-0.2887495422,0.4278103638,-2.384092255,2.439322423
17.07881979,-0.9553134155,0.8342152405,-2.093546448,2.447749072
17.08875979,-1.213526459,1.160237274,-1.813778229,2.471555879
17.09869979,-1.215023346,1.370549927,-1.610650635,2.439033477
17.10863879,-1.10919342,1.41934845,-1.472338257,2.326508115
17.11857879,-0.8863069153,1.43686203,-1.254391479,2.103238081
17.12851879,-0.5857319641,1.567540283,-0.9851014709,1.9418263
17.13845879,-0.4577481079,1.629661102,-0.6680607605,1.819789498
17.14839879,-0.4297563171,1.559606781,-0.4243675232,1.672468714
17.15833779,-0.4141886902,1.390757904,-0.1300794983,1.456942173
17.16827779,-0.3911366272,1.113983459,0.1896556091,1.19579106
17.17821779,-0.616867218,0.6390211487,1.410965881,1.667242607
17.18815779,0.413739624,-1.547931061,12.14873657,12.25394105
17.19809779,4.98927475,-3.496728516,13.05570053,14.40733456
17.20803679,6.898105316,-3.989653473,6.584806824,10.33735327
17.21797679,5.379662933,-2.415227509,-3.362457733,6.788241245
17.22791679,4.750371552,-1.131347351,-7.338040466,8.814352761
17.23785679,7.85716095,-1.231040039,-5.680836639,9.773553228
17.24779679,18.36471039,-1.169817352,0.5054988098,18.40887257
17.25773579,30.51135132,-2.831362152,-2.673141174,30.75881751
17.26767579,45.33367813,-6.95962738,-5.420527954,46.18398975
17.27761579,69.30557831,-12.93639862,3.134032745,70.57220243
17.28755579,72.84436935,-14.00607422,9.214538269,74.7487791
17.29749579,35.14107376,-8.290360107,2.768343201,36.21172269
17.30743579,16.49809204,-5.137616272,-3.579057312,17.64629687
17.31737479,11.57198593,-3.692671051,-5.163362732,13.19874966
17.32731479,7.412884827,-2.570754089,-3.476969604,8.581896974
17.33725479,3.746259613,-1.881587219,-0.5882766724,4.233308516
17.34719479,1.902843018,-1.126856689,1.110690308,2.474722309
17.35713479,1.966760101,-0.2330653381,1.000070343,2.218694535
17.36707379,1.617985382,0.2248324585,0.3089575195,1.66249243
17.37701379,0.747096405,0.3513194275,-0.5004093933,0.9653952245
17.38695379,0.2559677124,0.6686595154,-1.054407349,1.274519468
17.39689379,0.0005987548828,1.200204163,-1.005010071,1.565418677
17.40683379,-0.7131170654,1.555265808,-0.7033872986,1.849903072
17.41677279,-1.479373627,2.088007965,0.08382568359,2.560341839
17.42671279,-1.84057251,2.716999969,1.004561005,3.432045864
17.43665279,-1.539698181,3.139571228,1.049018555,3.6507558
17.44659279,-0.9584568787,3.446882172,0.8982820129,3.688705311
17.45653279,-0.157023468,3.510948944,1.272952881,3.737890835
17.46647179,0.582588501,3.700604553,2.208357697,4.348646587
17.47641179,0.5019062805,3.451821899,1.998045044,4.019846805
17.48635179,-0.09475296021,2.160906372,-0.1055305481,2.165555626
17.49629179,-0.3201841736,1.259480896,-1.136885834,1.726649771
17.50623179,-0.4468208313,0.7051835632,-0.0940045166,0.8401009239
17.51617079,0.359103241,-0.2457888794,3.307222595,3.335729096
17.52611079,2.419568481,-1.172960815,3.511098633,4.422438504
17.53605079,3.910617828,-1.413061523,2.443368988,4.822833885
17.54599079,3.531905365,-0.1043330383,-3.217858429,4.779105958
17.55593079,3.785927124,0.07185058594,-4.78450058,6.101627037
17.56586979,6.694678345,-0.7659571838,-2.922223206,7.34471218
17.57580979,11.89246948,-2.239343262,-0.7679031372,12.1258057
17.58574979,14.85810242,-2.795586548,-3.595373383,15.54043826
17.59568979,21.35863449,-4.228107605,-3.716321869,22.0879879
17.60562979,33.72097687,-6.363117828,-1.785337372,34.36249378
17.61556979,47.11587204,-7.375762024,1.254241791,47.70618813
17.62550879,59.54183212,-7.361691284,9.408235474,60.72840493
17.63544879,49.22588425,-6.82745224,11.89321793,51.10039546
17.64538879,27.82907913,-7.433841248,5.091512146,29.25137838
17.65532879,19.52928864,-8.373437347,2.033820648,21.34581912
17.66526879,15.42736862,-9.419611816,2.006128235,18.18673527
17.67520779,11.49220184,-9.329499207,1.510059814,14.87919821
17.68514779,8.438102875,-7.810907135,-0.1166075134,11.49893246
17.69508779,6.42374176,-5.810167694,-1.108744354,8.732228861
17.70502779,4.454137573,-3.793561249,-0.1228944397,5.851969883
17.71496779,2.589165802,-1.839225311,0.9083111572,3.303264817
17.72490679,1.953138428,-0.1182540894,-0.2191442871,1.968948442
17.73484679,2.636617126,0.8411009216,-2.235451355,3.557589548
17.74478679,2.990331573,1.271455994,-3.066972198,4.468221316
17.75472679,2.216590576,1.70016449,-2.966231689,4.074599798
17.76466679,1.423689423,1.855541382,-2.606380005,3.501876943
17.77460579,0.6951544189,1.861229553,-2.349364471,3.076837424
17.78454579,0.1504371643,1.916764069,-1.993105316,2.769311221
17.79448579,-0.4450245667,2.035616913,-1.3841716,2.501542344
17.80442579,-1.116827545,2.242187347,-0.2266287231,2.515167677
17.81436579,-1.872605896,2.496209106,1.031055908,3.28645539
17.82430579,-1.887125702,2.225122833,0.9470805359,3.067470714
17.83424479,-1.579814758,1.674268341,0.3992198181,2.336314536
17.84418479,-1.381177826,1.111738129,-0.01751358032,1.773110425
17.85412479,-1.284927979,0.7125183105,-0.2260299683,1.486543575
17.86406479,-1.238374786,0.3914360046,-0.3324586487,1.34064276
17.87400479,-1.243314514,0.1260379028,-0.2080673218,1.266889318
17.88394379,-1.936972046,-0.8888516235,2.290686493,3.128763737
17.89388379,-1.47084137,-2.871927795,8.416547699,9.013857042
17.90382379,1.964814148,-2.365979919,4.070335693,5.101567237
17.91376379,3.021766205,-0.5099894714,-2.847827911,4.183453606
17.92370379,3.739523621,-0.3445834351,-3.079845428,4.856770791
17.93364279,7.30136673,-1.185235291,-0.9226812744,7.454265863
17.94358279,13.7953125,-2.367776184,0.1216969299,13.99756483
17.95352279,20.02131546,-2.656376038,-2.739752655,20.38174799
17.96346279,33.41052246,-3.824696503,-1.624721375,33.66795263
17.97340317,50.30918152,-5.935606842,1.241069183,50.67332066
17.98334217,64.44503586,-9.126820679,5.713917847,65.33842942
17.99328217,57.43511307,-11.85863983,8.32044754,59.23385349
18.00322217,32.25642242,-10.4443808,6.51849472,34.5261155
18.01316217,21.51745422,-7.813302155,2.748284912,23.05648709
18.02310217,16.50572617,-5.673052826,0.2688409424,17.45550916
18.03304117,10.93251572,-3.753294983,-0.5578898621,11.57231024
18.04298117,8.13213913,-2.547103271,-1.601819,8.670942625
18.05292117,6.643484802,-1.908231812,-2.420765991,7.323752245
18.06286117,5.033283234,-1.45677063,-2.411485291,5.768135061
18.07280117,3.688180389,-0.9466314697,-1.874402161,4.244074597
18.08274117,3.297792206,-0.513432312,-1.805844727,3.794749181
18.09268017,3.604504395,-0.3141966248,-2.454296265,4.372040897
18.10262017,3.806434479,-0.149539032,-2.969973907,4.830326115
18.11256017,2.972219238,-0.08128097534,-2.657124481,3.987606338
18.12250017,1.837429047,0.01481918335,-1.84401535,2.603220644
18.13244017,0.8225395203,0.1691482544,-0.9415420532,1.261619528
18.14237917,0.0513432312,0.2433938599,-0.3643423462,0.4411598844
18.15231917,-0.6614744568,0.2830613708,0.1932481384,0.7449946575
18.16225917,-1.33043335,0.3107537842,0.8589138794,1.613801061
18.17219917,-1.998643799,0.3261717224,1.541195068,2.544847199
18.18213917,-2.522853699,0.2071691895,1.905836792,3.168583869
18.19207817,-2.741099854,0.05074447632,1.837429047,3.300355876
18.20201817,-2.921025696,-0.07080276489,1.786534882,3.424778975
18.21195817,-3.225193176,-0.3088078308,1.941462708,3.777103486
18.22189817,-3.399281158,-0.6834786987,2.056723022,4.03142222
18.23183817,-2.66775238,-1.034498749,1.955982513,3.465971439
18.24177717,-1.488654327,-1.412013702,2.243235168,3.04006224
18.25171717,-0.4249662781,-1.782343597,3.27384201,3.751717813
18.26165717,1.129850464,-1.528471527,5.221441956,5.556639576
18.27159717,2.460433502,-0.7843688965,4.130211182,4.871099669
18.28153717,2.81055542,-0.3772155762,-2.243983612,3.616210145
18.29147617,2.485730896,-0.0008981323242,-5.041815491,5.621277643
18.30141617,3.209026794,0.06990463257,-4.603377228,5.611935631
18.31135617,5.791007538,-0.08322692871,-3.953428802,7.012295938
18.32129617,12.64720001,-0.7732919312,-3.286116486,13.09000421
18.33123617,22.55539581,-1.780996399,-7.172185364,23.73516529
18.34117617,41.5146698,-4.336631927,-4.934638367,42.03123649
18.35111517,65.31577515,-8.1285466,3.918102264,65.93614546
18.36105517,77.27261078,-14.54839645,20.57531342,81.27764599
18.37099517,50.90599045,-17.14729202,19.77223343,57.23976504
18.38093517,25.1421666,-13.67690872,2.514770508,28.73169755
18.39087517,16.92709991,-11.48007706,-2.396965485,20.59282215
18.40081417,10.3369043,-10.01941452,-1.142274628,14.44108892
18.41075417,5.792654114,-8.127349091,1.267115021,10.06052809
18.42069417,4.695884857,-5.416636047,-1.208437042,7.269910642
18.43063417,4.706812134,-2.766696625,-3.42248291,6.443762872
18.44057417,4.216731262,-1.351090393,-3.584296417,5.696792834
18.45051317,2.526745605,-0.6486012268,-2.514620819,3.623319579
18.46045317,1.508562927,0.216000824,-1.697619781,2.281300371
18.47039317,1.452579346,0.8306227112,-1.627864838,2.334494543
18.48033317,1.455423431,1.048719177,-1.632505188,2.42551901
18.49027317,1.08000412,1.056502991,-1.500479736,2.129330155
18.50021217,0.6354286194,0.9497749329,-1.22041214,1.671899442
18.51015217,0.1785786438,0.9547146606,-0.7890092468,1.251361661
18.52009217,-0.3034190369,1.002016296,-0.3445834351,1.102196677
18.53003217,-0.5158273315,1.046473846,-0.05703140259,1.168091575
18.53997217,-0.6968009949,1.161584473,0.2366578674,1.375069838
18.54991217,-0.9093589783,1.306632843,0.4993615723,1.668407959
18.55985117,-1.036444702,1.445843353,0.5252577209,1.854879052
18.56979117,-1.240620117,1.48715744,0.5580395508,2.015485963
18.57973117,-1.553469543,1.407822418,0.8408015442,2.258800306
18.58967117,-1.962718506,1.073118439,1.340612183,2.607889595
18.59961117,-2.465522919,0.4219725037,2.207459564,3.336126764
18.60955017,-4.051025848,-1.3549823,7.083120575,8.27148019
18.61949017,-4.794080658,-3.748055878,14.28000458,15.52255336
18.62943017,-1.357676697,-4.251159668,7.655230865,8.861049833
18.63937017,1.841021576,-1.835034027,-1.469344482,2.985914187
18.64931017,2.527044983,-0.1978884888,-4.795427856,5.424135371
18.65924917,3.646716614,-0.337098999,-4.569996643,5.856368082
18.66918917,7.037016449,-0.9601034546,-2.996319122,7.708393311
18.67912917,10.92293564,-1.200054474,-5.180726624,12.14868643
18.68906917,17.27811996,-1.18059494,-8.314909058,19.21106313
18.69900917,35.72006973,-2.552492065,-4.255051575,36.06305674
18.70894817,60.9740538,-6.437662811,0.8490344238,61.3188356
18.71888817,77.95204788,-11.57333313,19.07049271,81.0811168
18.72882817,58.18400574,-13.13563431,18.8118306,62.54445125
18.73876817,25.55590622,-9.900561676,-1.546733551,27.45027958
18.74870817,15.59591812,-8.986562347,-2.426603851,18.16258162
18.75864817,10.88686066,-9.177415466,3.465892639,14.65472966
18.76858717,9.151818695,-8.289312286,1.2660672,12.41255049
18.77852717,8.020471344,-6.281986542,-2.068398743,10.3956524
18.78846717,5.863007812,-4.384682007,-2.907404022,7.877391387
18.79840717,4.506678314,-2.327509918,-2.270179138,5.557082433
18.80834717,3.64836319,-0.8042774963,-1.15604599,3.910736323
18.81828617,2.380649414,0.2987786865,-0.7195536804,2.504898767
18.82822617,1.821412354,1.135239258,-1.40063736,2.562829715
18.83816617,1.70360733,1.344803467,-2.548749847,3.347670845
18.84810617,1.568139038,1.334624634,-3.196602631,3.802440182
18.85804617,1.031055908,1.3350737,-2.994073792,3.436564555
18.86798517,0.3284170532,1.395398254,-2.343376923,2.747072888
18.87792517,-0.23635849,1.592388611,-1.686243439,2.331305162
18.88786517,-0.4249662781,1.780098267,-1.176403656,2.17560836
18.89780517,-0.633482666,1.976789246,-0.5084925842,2.137185232
18.90774517,-1.158890076,2.115850067,0.3005749512,2.431088854
18.91768417,-1.314566345,2.008972321,0.4317022705,2.439348542
18.92762417,-1.108444977,1.716779938,0.1422042847,2.048464225
18.93756417,-1.005010071,1.371597748,-0.02439926147,1.700564891
18.94750417,-1.132844238,0.9559121704,0.1266366577,1.487662928
18.95744417,-1.284927979,0.5029541016,0.5210664368,1.474962023
18.96738329,-1.481918335,-0.2724334717,1.925296326,2.444804264
18.97732229,-3.041525116,-3.761078796,12.6353746,13.52957058
18.98726229,-2.242786102,-7.018904114,21.77806229,22.99084821
18.99720229,2.030677185,-4.709057465,5.961802368,7.86396589
19.00714229,1.467847595,-0.4864883423,-6.176156616,6.366801239
19.01708229,2.680475922,-0.3062631226,-5.79070816,6.388352625
19.02702129,4.946463776,-0.7565267944,-4.478387146,6.715339761
19.03696129,8.03843399,-1.295555878,-4.285288696,9.201010013
19.04690129,10.84854034,-1.327589264,-7.535030823,13.27516517
19.05684129,18.3141156,-1.346599731,-8.810378723,20.3676934
19.06678129,35.78099304,-3.201242981,-4.947661285,36.2630221
19.07672029,56.00663361,-8.634943542,-5.790558472,56.96346044
19.08666029,76.01702179,-14.65587296,11.16378479,78.21772372
19.09660029,61.15637466,-14.45244598,27.09171249,68.4319826
19.10654029,27.68717422,-9.549541626,0.6366261292,29.29468646
19.11648029,16.49539764,-6.938221893,-6.582262115,19.0673344
19.12641929,10.33989807,-5.918841705,-3.153043213,12.32427932
19.13635929,5.243745575,-5.526058502,4.182452545,8.690632861
19.14629929,4.61131073,-4.597988434,4.081113281,7.685126538
19.15623929,5.824837189,-3.05155426,-0.2496807861,6.580505465
19.16617929,6.418053589,-1.614243164,-2.18335968,6.968805662
19.17611929,5.241649933,-1.024619293,-2.323019257,5.824187255
19.18605829,3.51723587,-0.4569996643,-2.062111816,4.102694481
19.19599829,1.765129395,0.1586700439,-1.939666443,2.627387271
19.20593829,0.486638031,0.5330415344,-2.285746765,2.396995646
19.21587829,-0.3209326172,0.7649093628,-2.599793701,2.728921283
19.22581829,-0.910556488,0.9550140381,-2.446961517,2.780069351
19.23575729,-1.228046265,1.231189728,-2.038610687,2.679525948
19.24569729,-1.084494781,1.546733551,-1.569785614,2.456163774
19.25563729,-0.9080117798,1.612147522,-1.243015137,2.229033794
19.26557729,-0.7427554321,1.514700165,-1.083297272,2.004877852
19.27551729,-0.5207670593,1.55152359,-0.8681945801,1.852615883
19.28545629,-0.7030879211,1.770817566,-0.403560791,1.947559701
19.29539629,-1.800904999,2.069745941,0.972228241,2.910727543
19.30533629,-2.485431519,1.978435822,1.669777679,3.588834857
19.31527629,-2.169887695,1.450334015,1.269210663,2.902202107
19.32521629,-3.034489746,0.1978884888,4.310286713,5.27502222
19.33515629,-5.49357605,-2.969973907,15.60040878,16.80395421
19.34509529,-1.724414063,-4.311933289,12.91184967,13.72159737
19.35503529,3.175047455,-2.661166077,4.797523499,6.338687794
19.36497529,2.480641479,-0.1456471252,-4.533622284,5.169963854
19.37491529,3.004851379,-0.1562750244,-5.123994598,5.942127089
19.38485529,5.741310883,-0.9545649719,-3.041225739,6.566802793
19.39479429,9.717192993,-1.801803131,-2.063159637,10.09588837
19.40473429,12.11580505,-1.600471802,-5.200635223,13.28159813
19.41467429,19.57165054,-1.84760788,-4.759652252,20.22665196
19.42461429,35.91780853,-4.00402359,-2.308798828,36.21397143
19.43455429,54.02789841,-8.066725159,-2.96263916,54.7070662
19.44449329,72.30743591,-11.46765289,1.644180908,73.22960933
19.45443329,58.43772812,-10.70409073,6.984326019,59.8191143
19.46437329,24.99831573,-6.783294067,3.311413879,26.11310648
19.47431329,15.70339462,-5.169799347,-1.056502991,16.56621944
19.48425329,11.49130371,-4.517904968,-1.177002411,12.40350196
19.49419229,6.94795166,-4.249962158,1.309027863,8.249228119
19.50413229,3.779640198,-3.732039185,3.144211578,6.172508643
19.51407229,2.694546661,-2.888094177,2.398013306,4.620837316
19.52401229,2.284549255,-2.018253021,1.194815369,3.274155513
19.53395229,2.439028015,-1.424886932,0.5807922363,2.883830794
19.54389229,2.150428162,-1.19002533,0.833915863,2.595364566
19.55383129,1.266665955,-1.012793884,1.015787659,1.91364016
19.56377129,0.3233276367,-0.5533992004,0.6432124329,0.9080273506
19.57371129,-0.2163002014,0.1700463867,-0.1453477478,0.3111712046
19.58365129,-0.199385376,0.7414082336,-1.32100296,1.527903635
19.59359129,-0.3213816833,1.09991272,-2.213896179,2.492875944
19.60353029,-0.7515870667,1.578317871,-2.128723297,2.754529596
19.61347029,-1.031804352,2.163600769,-1.661694489,2.916679119
19.62341029,-0.9436376953,2.7099646,-0.8753796387,3.000108289
19.63335029,-0.76640625,3.271446991,0.4165837097,3.385747472
19.64329029,-0.9900411987,3.91271347,1.748813324,4.39861982
19.65322929,-1.608405304,4.06135437,2.065554657,4.831985408
19.66316929,-1.864373016,3.471580811,1.08344696,4.086761234
19.67310929,-2.001487885,2.608325958,0.9413923645,3.419873922
19.68304929,-0.2157014465,0.8214916992,4.18544632,4.270753636
19.69298929,3.833378448,-1.689835968,10.31819321,11.13622229
19.70292929,6.844217377,-3.136727142,8.664282532,11.47833439
19.71286829,6.634503479,-2.566413116,0.3144960022,7.120535123
19.72280829,8.325387268,-3.131488037,-1.578018494,9.033738587
19.73274829,13.53620132,-4.68855011,-0.5893244934,14.33731327
19.74268829,17.08726685,-4.895719299,-3.574716339,18.13067436
19.75262829,23.34709946,-5.885461121,-5.285658417,24.65083955
19.76256729,33.75121399,-7.405400391,-4.92371109,34.90311349
19.77250729,44.65738449,-8.088579712,-3.280428314,45.50239907
19.78244729,53.95035965,-6.823260956,2.278561707,54.42784251
19.79238729,46.56741257,-2.61401413,9.070837097,47.51459848
19.80232729,26.248965,-0.5038522339,7.282206573,27.24504658
19.81226629,17.87208481,-1.060843964,1.747166748,17.98859074
19.82220629,14.0208934,-2.379601593,0.9258247375,14.2514949
19.83214629,10.62071411,-3.97947464,2.214644623,11.55596978
19.84208629,8.381969604,-5.112169189,1.855691071,9.991760487
19.85202629,7.095245361,-5.25721756,0.3475772095,8.837513967
19.86196629,5.539081421,-4.662653961,-1.156345367,7.332046069
19.87190529,4.471501465,-3.560196533,-2.027683411,6.064719674
