Time (s),Acceleration x (m/s^2),Acceleration y (m/s^2),Acceleration z (m/s^2),Absolute acceleration (m/s^2)
0.009221291664,-0.4917274475,3.715872803,-14.66410583,15.1355709
0.01916029165,0.3911366272,3.584446106,-11.79247742,12.33141376
0.02909929166,0.1697470093,2.952759705,-8.400830383,8.906264933
0.03903929165,-0.8770262146,2.067201233,-5.719606018,6.144622765
0.04897829166,-2.171234894,1.084943848,-3.921395416,4.611800747
0.05891729167,-3.155438232,0.3673361206,-2.640808411,4.131052569
0.06885629165,-3.567082214,-0.1231938171,-0.9740245056,3.699726473
0.07879529166,-3.895798645,-0.3064128113,0.0513432312,3.908167348
0.08873529165,-4.169579315,-0.5101391602,0.1682501221,4.204038741
0.09867429166,-4.640350342,-0.8375083923,0.2812651062,4.723704231
0.1086132916,-4.921765137,-0.8906478882,0.2444416809,5.00767186
0.1185522916,-4.576582947,-0.6661148071,0.155975647,4.627434366
0.1284922916,-3.831432495,-0.4498146057,0.3766168213,3.876086735
0.1384312916,-2.890489197,-0.2784210205,0.7940986633,3.010488125
0.1483702917,-1.930385742,-0.03817062378,1.317410431,2.337395207
0.1583092916,-1.09871521,0.2174977112,1.67561554,2.015482028
0.1682482917,-0.4962181091,0.3725752258,1.775757294,1.881052545
0.1781882916,0.005239105225,0.3799099731,1.649719391,1.692906703
0.1881272917,0.7020401001,0.136665802,1.334774323,1.514318439
0.1980662917,1.703757019,-0.6930587769,0.8946894836,2.045382048
0.2080052916,3.269051971,-2.650837555,0.09654922485,4.209864878
0.2179452917,5.895789642,-5.83516571,-0.8216413879,8.335741655
0.2278842916,8.580606537,-10.13692017,-1.6416362,13.38203753
0.2378232917,11.50851791,-15.18397476,-2.881657562,19.2692248
0.2477622917,16.43851593,-19.18784866,-3.695515137,25.53537105
0.2577012916,21.75650711,-20.93561417,-3.726650391,30.4225815
0.2676412917,25.76741638,-20.79026642,-3.777993622,33.32368768
0.2775802916,30.19940002,-21.43437698,-4.793781281,37.34188824
0.2875192917,33.88518539,-23.49050125,-6.019881592,41.66831425
0.2974582917,34.12558548,-24.2834024,-6.43317215,42.3748147
0.3073982917,32.57076874,-24.26768509,-4.844226379,40.90528138
0.3173372917,29.59675323,-24.26274536,-0.6695576477,38.27658451
0.3272762916,25.24470337,-23.10834595,4.206552429,34.48167316
0.3372152917,20.271595,-20.68338867,8.232879639,30.10847784
0.3471542917,15.87014786,-17.35041962,11.42753632,26.14358889
0.3570942917,12.93624893,-13.70430176,13.703703,23.30119952
0.3670332917,10.86545517,-10.21580612,14.71335342,20.95002577
0.3769722916,9.669442291,-7.498207397,13.67840561,18.35265671
0.3869112917,9.275760956,-6.191275177,10.42641815,15.26701756
0.3968512916,8.716374207,-5.973178711,6.049519958,12.17582584
0.4067902917,7.328310699,-5.677393799,1.73294632,9.430802776
0.4167292916,5.003495178,-5.014123077,-2.534230042,7.523211823
0.4266682916,1.660646667,-4.122726746,-6.941964111,8.242905367
0.4366072917,-2.051932983,-2.6701474,-11.1158844,11.61477516
0.4465472916,-4.82431778,-0.4969665527,-15.06587036,15.82723815
0.4564862917,-5.876030731,1.682351532,-17.76101578,18.78328313
0.4664252916,-4.893923035,2.777923279,-16.85270462,17.76741381
0.4763642917,-3.243604889,3.318748627,-12.55873398,13.38868419
0.4863032917,-3.147355042,4.143832855,-8.210276642,9.720382555
0.4962432917,-4.310885468,5.159770203,-4.720433807,8.215196735
0.5061822917,-5.109474792,5.936055908,-2.907404022,8.354429397
0.5161216666,-5.272785187,5.874683533,-2.04175415,8.153706534
0.5260606667,-5.095553741,4.984634399,-1.217717743,7.231464895
0.5360006666,-4.624333649,3.771257629,-0.9151968384,6.036922316
0.5459396667,-4.299359436,2.503244476,-1.043629761,5.08329495
0.5558786667,-4.669090576,0.9857002258,-1.478176117,4.995699788
0.5658176666,-5.09809845,-0.1585203552,-2.099384308,5.515718537
0.5757566667,-4.514911194,-0.3573069763,-2.498604126,5.172534576
0.5856966666,-2.621648254,-0.2848576355,-2.510579224,3.641042636
0.5956356667,0.05164260864,-0.3978726196,-2.497556305,2.529576462
0.6055746666,3.000660095,-0.6662644958,-2.751128998,4.125115774
0.6155136666,5.59072403,-1.262175293,-3.036735077,6.486219359
0.6254526667,7.909552002,-2.347119141,-3.409160614,8.92705759
0.6353926666,10.00429596,-3.90463028,-3.836970978,11.40414054
0.6453316667,11.99770065,-5.881569214,-4.291126556,14.03393902
0.6552706666,14.36577621,-8.71592514,-4.702321472,17.44863045
0.6652096667,17.26913864,-12.82203644,-4.831053772,22.04465578
0.6751496666,20.56258987,-17.52301071,-4.43812088,27.37832945
0.6850886667,23.58779892,-21.02243362,-3.665727081,31.80824623
0.6950276667,25.2575766,-22.056633,-2.7789711,33.64762867
0.7049666666,26.47783905,-22.32038452,-1.997146912,34.6880977
0.7149056667,28.98796921,-23.80559601,-1.542991333,37.54183776
0.7248456666,31.1128006,-25.36131088,-1.355431366,40.16266481
0.7347846667,30.8474025,-24.86060211,-1.559307404,39.64900021
0.7447236667,28.53441238,-22.63607803,-1.989512787,36.47688145
0.7546626666,25.73867615,-20.09421387,-2.029329987,32.71658694
0.7646026667,22.61167877,-17.55564285,-1.330882416,28.65763181
0.7745416666,19.25116699,-15.06871445,-0.4423301697,24.45136482
0.7844806667,15.97088837,-12.67623962,0.4312532043,20.39466365
0.7944196667,12.96903076,-10.38809784,1.042731628,16.64919292
0.8043586666,10.36953644,-8.122559052,1.20170105,13.22676593
0.8142986667,8.154442749,-5.971083069,0.8972341919,10.14661514
0.8242376666,6.246360626,-4.188739471,0.4918771362,7.53687618
0.8341766667,5.075196075,-2.878813477,-0.2011816406,5.838292241
0.8441156667,3.989204407,-1.915117493,-1.15484848,4.573303163
0.8540546666,2.661166077,-1.037193146,-2.281405792,3.655459875
0.8639946667,1.290466461,-0.06601272583,-3.55585556,3.783354349
0.8739336666,-0.3438349915,0.8120613098,-4.912933502,4.991450858
0.8838726667,-2.667303314,1.237027588,-6.195316772,6.857601194
0.8938116666,-5.365143127,1.233884125,-7.010222168,8.913497947
0.9037516667,-7.374714203,1.289268951,-7.180418243,10.37338084
0.9136906666,-8.503217468,1.476379852,-6.829996948,11.00605575
0.9236296666,-8.639733582,1.506467285,-6.248456268,10.76836319
0.9335686667,-8.07121582,1.429527283,-5.558690643,9.903893918
0.9435076666,-7.250023499,1.277443542,-4.916226654,8.852343602
0.9534476667,-6.379882965,1.122665405,-4.420008545,7.842178256
0.9633866666,-5.488636322,1.079105988,-4.015848999,6.885974266
0.9733256667,-4.472399597,1.074315948,-3.708538055,5.908448817
0.9832646667,-3.381468201,1.044677582,-3.359164581,4.879514845
0.9932036666,-2.282154236,0.9719288635,-3.052452393,3.933235218
1.003143667,-1.164129181,0.8614585876,-2.817291412,3.167718193
1.013082667,-0.117355957,0.5906716919,-2.634671173,2.702620517
1.023021667,0.7937992859,0.3345542908,-2.443967743,2.591335989
1.032960667,1.61005188,0.2302212524,-1.923200684,2.518723834
1.042900667,2.359842682,0.1724414062,-1.29765152,2.698609455
1.052839667,3.311413879,-0.1463955688,-0.7694000244,3.40277386
1.062778667,4.565805359,-0.9970765686,-0.3571572876,4.68703548
1.072717667,6.296356659,-2.754721527,-0.1948947144,6.875360486
1.082656667,8.329279175,-5.517077179,-0.4433779907,10.00058079
1.092596667,10.3660936,-9.087901611,-0.9644444275,13.81940683
1.102535667,12.67983215,-13.49129471,-1.463806,18.57245014
1.112474667,15.63034653,-18.92035492,-1.611848145,24.59442248
1.122413667,18.81512375,-24.55673401,-1.307530975,30.96371593
1.132353667,20.41065582,-27.51413406,-0.333356781,34.25979526
1.142292667,20.43505508,-26.63052155,0.5240602112,33.57157716
1.152231667,21.97849548,-26.48831726,0.6756948853,34.4258882
1.162170667,23.90364212,-27.70139465,0.7225474548,36.59608513
1.172109667,24.57828918,-27.95796112,1.161135406,37.243632
1.182049667,24.02429123,-26.80790268,2.97206955,36.12012476
1.191988667,22.41364059,-25.07780045,5.661975861,34.10755533
1.201927667,20.28536636,-22.8634552,8.457113342,31.71366327
1.211866667,18.10365326,-20.07056305,10.98281113,29.17519328
1.221805667,16.28209122,-16.8396817,12.7111171,26.65058859
1.231745667,14.2385408,-13.68723724,12.73581573,23.50058531
1.241684667,12.15696945,-10.9712851,10.77399536,19.60204017
1.251623667,10.34199371,-9.084458771,7.616461487,15.73196462
1.261562667,9.068591766,-7.396868134,4.019441528,12.37371913
1.271501667,7.685767365,-5.663622437,0.4246669006,9.556567431
1.281441667,5.894292755,-3.752097473,-3.147654419,7.663462068
1.291380667,3.82499588,-1.531914368,-7.10243042,8.211082327
1.301319667,2.002685394,0.8099656677,-10.914104,11.12584646
1.311258667,0.9530680847,3.152145081,-12.91828629,13.33140945
1.321198667,0.3183879089,4.919968872,-12.31339417,13.26375288
1.331137667,-0.4412823486,5.793552246,-9.86852829,11.45197923
1.341076667,-1.124311981,5.834716644,-7.082372131,9.244889981
1.351015667,-1.674867096,5.482798462,-5.034031677,7.629399301
1.360954667,-2.359543304,4.907245331,-3.885619812,6.689285662
1.370894667,-2.843786316,4.087549896,-3.370391235,6.012879663
1.380833667,-2.85261795,3.246448975,-3.056344299,5.293212691
1.390772667,-2.628384247,2.572550354,-2.770438843,4.604535857
1.400711667,-2.65847168,1.957479401,-2.509681091,4.147010544
1.410650667,-2.971171417,1.421144714,-2.482288055,4.124229126
1.420590667,-3.062331848,1.252445526,-2.638263702,4.231658246
1.430529667,-2.704575806,1.178648987,-2.839894409,4.094990107
1.440468667,-1.949246521,0.9886940002,-2.929408264,3.65492963
1.450407667,-0.8867559814,0.9521699524,-2.79648468,3.084362228
1.460347667,0.1402583313,1.08344696,-2.330354004,2.573728715
1.470286667,1.044827271,1.097966766,-1.771865387,2.331673647
1.480225667,1.859133911,0.8451425171,-1.282682648,2.411621767
1.490164667,2.66311203,0.3571572876,-0.8973838806,2.832847479
1.500103667,3.734733582,-0.5463638306,-0.6688092041,3.83328242
1.510043167,5.100643158,-2.116448822,-0.6746470642,5.563368126
1.519982167,6.793173523,-4.429738312,-0.9605525208,8.166544506
1.529921167,9.263935547,-7.480693817,-1.253643036,11.97300725
1.539860167,12.15322723,-11.48262177,-1.588496704,16.7950843
1.549799167,15.35761368,-16.38597519,-2.076631622,22.55368883
1.559739167,19.49515961,-21.65905975,-2.31792984,29.23266865
1.569678167,21.3996492,-23.60636032,-1.9681073,31.92301176
1.579617167,21.71803711,-23.03380096,-1.831890564,31.7109594
1.589556167,24.23146042,-24.05722275,-1.731000366,34.18932586
1.599496167,26.90894257,-25.58255081,-1.281485138,37.15104709
1.609435167,28.01514221,-25.87818604,-0.895587616,38.14879792
1.619374167,27.71815979,-25.0849855,-0.2853067017,37.38494724
1.629313167,26.72362793,-23.49439316,1.050665131,35.59835245
1.639252167,25.00849457,-21.01764359,2.669398956,32.7763914
1.649192167,22.76286438,-17.94722855,4.097579041,29.27526535
1.659131167,20.0778978,-14.76230164,5.18461853,25.45442592
1.669070167,16.82471283,-11.75221115,5.451214142,21.23443346
1.679009167,13.21616684,-9.070088654,4.497247925,16.64808737
1.688948167,9.632020111,-7.035519562,2.506986694,12.18849167
1.698888167,6.309828644,-5.480553131,0.1032852173,8.358293365
1.708827167,3.700454865,-3.610042877,-2.470762024,5.729785402
1.718766167,1.802401886,-1.629212036,-4.666994934,5.261542182
1.728705167,0.5382806396,-0.1803749084,-5.845344543,5.872847179
1.738644167,0.06316864014,1.113684082,-6.033203888,6.135456924
1.748584167,0.03173400879,2.412533112,-5.252726898,5.780351454
1.758523167,-0.04954696655,3.442092133,-3.999682617,5.277112296
1.768462167,-0.3776646423,4.105063477,-2.924169159,5.054200431
1.778401167,-0.8297245789,4.47793808,-2.268382874,5.087822047
1.788341167,-1.303190002,4.479434967,-2.081721039,5.108542286
1.798280167,-1.620829468,4.09877655,-2.325713654,4.983573153
1.808219167,-1.61708725,3.603606262,-2.725232849,4.798733515
1.818158167,-1.318308563,3.184627533,-2.94976593,4.536618679
1.828097167,-1.010847931,2.832709351,-2.929707642,4.19871917
1.838037167,-0.8255332947,2.559976501,-2.740201721,3.839751344
1.847976167,-0.6960525513,2.420017548,-2.511327667,3.556366227
1.857915167,-0.5093907166,2.356100464,-2.251018982,3.29814717
1.867854167,-0.1236428833,2.234403534,-1.972897339,2.983315375
1.877793167,0.4531077576,2.073787537,-1.603166199,2.660083316
1.887733167,1.065484314,1.936672668,-1.095871124,2.467162615
1.897672167,1.567540283,1.765428772,-0.5526507568,2.424735892
1.907611167,1.953138428,1.527124329,-0.07499404907,2.480419831
1.917550167,2.218087463,1.265169067,0.2577639771,2.566516517
1.927489167,2.340383148,0.7994874573,0.397124176,2.50485151
1.937429167,2.61401413,0.001646575928,0.2857557678,2.629587219
1.947368167,3.520229645,-1.442400513,-0.09295669556,3.805414161
1.957307167,4.926854553,-4.184847565,-0.5242098999,6.485494657
1.967246167,6.698570251,-8.316256256,-0.9626481628,10.72183067
1.977186167,8.811276855,-13.86207367,-1.482816467,16.49225366
1.987125167,10.86470673,-20.16322037,-2.102527771,23.0003898
1.997064167,13.66882553,-25.82624405,-2.422562256,29.3206494
2.007003167,15.48904037,-28.19372086,-1.409768372,32.19912599
2.016942167,16.00112549,-27.3172934,0.1402583313,31.65896726
2.026882167,20.01023849,-27.55335251,0.8442443848,34.06331792
2.036821167,25.67625595,-28.63889511,0.7220983887,38.47048036
2.046760167,28.26976273,-27.20098526,0.2453398132,39.23178909
2.056699167,28.75729889,-24.72258911,-0.229921875,37.92415478
2.066638167,27.47491562,-22.91644501,0.3375480652,35.77916124
2.076578167,24.0247403,-21.20520355,1.579216003,32.08337151
2.086517167,19.28514633,-19.30460587,2.265089722,27.38092964
2.096456167,15.06901382,-16.92530365,1.791175232,22.73212243
2.106395167,12.47401016,-13.74546616,0.8484356689,18.58113593
2.116334167,11.27036316,-10.31085846,-0.4917274475,15.28321575
2.126274167,10.70304291,-6.822961578,-2.368075562,12.91184394
2.136213167,9.85685257,-3.566633148,-4.289779358,11.32610355
2.146152167,8.331374817,-0.9713301086,-5.821244659,10.20990587
2.156091167,6.755302277,0.8414002991,-6.430328064,9.364357016
2.166030167,5.446873169,2.020648041,-6.015690308,8.363012358
2.175970167,4.013154602,2.729274445,-5.26185791,7.158316668
2.185909167,2.217937775,3.244503021,-4.936434631,6.309868041
2.195848167,0.3137475586,3.487747192,-5.020260315,6.120933886
2.205787167,-1.052461395,3.309467926,-5.222190399,6.271485112
2.215726167,-1.7902771,2.898871765,-5.237907715,6.248537976
2.225666167,-2.209255829,2.565514984,-4.875960388,5.936132424
2.235605167,-2.322121124,2.47360611,-4.263134766,5.448421031
2.245544167,-2.023941193,2.543061676,-3.524720306,4.794492035
2.255483167,-1.568288727,2.534529419,-2.730921021,4.042437201
2.265423167,-1.70600235,2.152074738,-2.144290924,3.48422922
2.275362167,-2.420316925,1.652264099,-2.063758392,3.584272503
2.285301167,-2.715952148,1.347797241,-2.290836182,3.800116299
2.295240167,-2.320474548,1.247805176,-2.299368439,3.496957978
2.305179167,-1.655557251,1.256936188,-1.889071655,2.808798695
2.315119167,-1.295855255,1.160985718,-1.41351059,2.241682597
2.325058167,-1.525328064,0.8933422852,-1.103954315,2.084082837
2.334997167,-1.728156281,0.6706054688,-1.079105988,2.144925536
2.344936167,-1.496288452,0.4441264343,-1.039288788,1.875166288
2.354875167,-1.012793884,0.2324665833,-0.8490344238,1.341883608
2.364815167,-0.1815724182,0.2089654541,-0.6209088135,0.679825609
2.374754167,1.083746338,0.1609153748,-0.3823049927,1.160412422
2.384693167,2.710114288,-0.4044589233,-0.2209405518,2.749021863
2.394632167,4.588258667,-1.740879822,-0.3390449524,4.919118989
2.404571167,7.012617188,-3.836970978,-0.7683522034,8.030536172
2.414511167,10.57640625,-7.167545013,-1.486109619,12.86244893
2.424450167,14.14603317,-11.91013275,-2.368374939,18.64324855
2.434389167,17.57150986,-17.46253647,-3.483555908,25.01666046
2.444328167,21.62014069,-23.73733795,-4.235292664,32.38563571
2.454267167,24.7665976,-28.10645233,-3.79221405,37.65286054
2.464207167,24.75342499,-28.22051514,-2.296075287,37.60852942
2.474146167,24.84802826,-28.22111389,-0.5852828979,37.60582845
2.484085167,26.09463593,-29.19498871,1.047072601,39.17108309
2.494024167,26.28833313,-28.89411438,2.591111755,39.14920388
2.503963167,25.27568893,-27.19140518,3.882775726,37.32705338
2.513903333,23.07930634,-24.78994904,4.725822601,34.19838232
2.523842333,20.33491333,-21.9623291,4.781506805,30.31031849
2.533781333,17.78661255,-18.81811752,4.042493591,26.20738231
2.543720333,15.46568893,-15.35237457,2.938539276,21.98904164
2.553660333,13.5763179,-11.79681839,1.547182617,18.05201113
2.563599333,11.70311325,-8.567583618,-0.1905537415,14.50526317
2.573538333,9.675878906,-5.79190567,-2.478994904,11.54617771
2.583477333,7.194938049,-3.371888123,-5.185516663,9.48822144
2.593416333,4.660258942,-1.26022934,-7.544311523,8.956719698
2.603356333,2.972817993,0.5159770203,-8.982371063,9.475593334
2.613295333,1.794169006,2.127076721,-9.260492706,9.669551332
2.623234333,0.5062472534,3.350782013,-8.696615295,9.333549377
2.633173333,-0.7228468323,4.014950867,-7.680228882,8.696450637
2.643112333,-1.916015625,4.184548187,-6.482120361,7.949807783
2.653052333,-2.993924103,3.95253067,-5.273982697,7.238851685
2.662991333,-3.643722839,3.503165131,-3.922892303,6.398278369
2.672930333,-3.874243469,2.986888733,-2.823278961,5.648200674
2.682869333,-4.064797211,2.361489258,-2.381248169,5.269682222
2.692808333,-4.347259827,1.694476318,-2.483485565,5.285604842
2.702748333,-4.491709442,1.200952606,-2.787203979,5.420908309
2.712687333,-4.407135315,1.08344696,-2.974763947,5.426409452
2.722626333,-4.077221375,0.9828561401,-2.965483246,5.136519367
2.732565333,-3.430266724,0.8475375366,-2.683769073,4.437078556
2.742504333,-2.640059967,0.7937992859,-2.311193848,3.597450616
2.752444333,-1.790426788,0.8056246948,-1.922302551,2.747709288
2.762383333,-0.8313711548,0.7604187012,-1.467697906,1.850284233
2.772322333,0.03607498169,0.6689588928,-1.042731628,1.239393664
2.782261333,0.6676116943,0.619561615,-0.7821235657,1.200532899
2.792200333,1.103954315,0.6132746887,-0.6634204102,1.426515901
2.802140333,1.486708374,0.4683760071,-0.6526428223,1.689858138
2.812079333,1.904489594,-0.03412902832,-0.765358429,2.052807572
2.822018333,2.533032532,-0.8140072632,-1.119372253,2.886495431
2.831957333,3.911815338,-2.344125366,-1.584754486,4.827905317
2.841896333,6.106551361,-5.209766235,-1.897454224,8.248149264
2.851836333,9.088200989,-9.167236633,-2.11315567,13.08048361
2.861775333,12.68567001,-14.16594177,-2.383343811,19.16456255
2.871714333,16.66694092,-20.06876678,-2.602188721,26.21666848
2.881653333,21.43886765,-25.27553925,-2.420316925,33.23154923
2.891592333,24.133564,-26.37530228,-1.457070007,35.78000188
2.901532333,24.53996887,-24.60089218,-0.759969635,34.75617243
2.911471333,27.38929367,-24.96343826,-0.8556207275,37.06856815
2.921410333,30.33471863,-26.08879807,-1.036893768,40.02368908
2.931349333,31.16519165,-25.98446503,-0.2504292297,40.57738666
2.941288333,29.84179367,-25.51040085,1.997895355,39.31036488
2.951228333,25.82250183,-24.68771164,4.840484161,36.05156021
2.961167333,20.14391052,-22.95027466,6.632258148,31.24866535
2.971106333,15.00629425,-20.11966095,7.047344971,26.07018786
2.981045333,11.46256348,-16.12506775,6.986870728,20.9815284
2.990984333,9.228609009,-11.4636113,6.723418579,16.17980116
3.000924333,8.008945312,-7.226522369,5.653144226,12.17882877
3.010863333,7.443271637,-3.78517868,3.496878204,9.053067297
3.020802333,6.943760376,-1.324146423,0.2505789185,7.073327485
3.030741333,6.030359802,0.3905378723,-3.511697388,6.9892616
3.040681333,4.70262085,1.91661438,-7.138206024,8.760253351
3.050620333,2.950214996,3.476071472,-9.685608673,10.70503885
3.060559333,1.303938446,4.814138947,-10.79270645,11.88943656
3.070498333,0.3706292725,5.576353912,-10.30951126,11.72685429
3.080437333,-0.05658233643,5.528004456,-8.438402252,10.08804577
3.090377333,-0.9662406921,4.844525757,-6.277944946,7.988469417
3.100316333,-3.034639435,3.545077972,-5.087171173,6.903327087
3.110255333,-4.385280762,2.555186462,-4.825365601,7.003129186
3.120194333,-4.182751923,2.042502594,-4.505031738,6.477850064
3.130133333,-3.569477234,1.796863403,-3.725452881,5.463413309
3.140073333,-2.997067566,1.729204102,-2.886447601,4.506011604
3.150012333,-2.319277039,1.715881805,-2.199376373,3.627747618
3.159951333,-1.532962189,1.700014801,-1.536105652,2.756745177
3.169890333,-0.8268804932,1.63579834,-0.903072052,2.043307781
3.179829333,-0.2544708252,1.48131958,-0.3860472107,1.551803966
3.189769333,0.2007325745,1.43446701,-0.02439926147,1.448649197
3.199708333,0.6533912659,1.340013428,0.2291734314,1.508335704
3.209647333,1.012943573,1.259480896,0.3800596619,1.660359044
3.219586333,1.441801758,1.108295288,0.4851411438,1.882145766
3.229525333,1.752555542,0.9410929871,0.5183720398,2.055679087
3.239465333,2.003583527,0.8535250854,0.3498225403,2.205726146
3.249404333,2.579735413,0.5388793945,-0.05658233643,2.636024917
3.259343333,3.825894012,-0.3345542908,-0.6203100586,3.890266846
3.269282333,5.285059662,-1.88622757,-1.311123505,5.762703785
3.279221333,7.295828247,-4.205504608,-2.139351196,8.688624883
3.289161333,9.896819458,-7.534282379,-3.131637726,12.82651945
3.299100333,12.48074615,-11.5577655,-4.312082977,17.54836253
3.309039333,16.09198654,-16.03540421,-5.591771851,23.39560068
3.318978333,20.88307343,-20.99069962,-6.242019653,30.26012286
3.328917333,25.00565048,-25.0942662,-6.038742371,35.93704442
3.338857333,27.95152451,-26.49669983,-5.396128693,38.89062906
3.348796333,30.16212753,-27.0306395,-4.702171783,40.77400923
3.358735333,30.52721832,-27.35935593,-4.038751373,41.19170946
3.368674333,28.99081329,-26.89532089,-2.74618927,39.64047296
3.378613333,25.80319199,-25.28856216,-0.3894900513,36.13125787
3.388553333,21.47120041,-22.64161652,2.669099579,31.31739673
3.398492333,17.18935455,-19.29263077,5.514532471,26.4213849
3.408431333,13.5710788,-15.66342773,7.689958649,22.10548828
3.418370333,11.15525253,-11.9625238,9.001980286,18.67022453
3.428309333,9.36063446,-8.745862885,9.275910645,15.81626104
3.438249333,8.425379333,-6.048472137,8.343798981,13.31127393
3.448188333,8.694369965,-3.970493317,6.223757629,11.40578999
3.458127333,8.638087006,-2.302661591,3.150199127,9.478531113
3.468066333,7.175328827,-0.6441105652,-0.3189866638,7.211239469
3.478005333,4.736600189,1.036295013,-3.697910156,6.097854396
3.487945333,1.850002899,2.304158478,-6.640341339,7.268135257
3.497884333,-0.8020321655,3.284170532,-8.680299225,9.315397271
3.507823333,-2.686613159,3.957171021,-9.592801666,10.71909215
3.517761958,-3.831582184,4.185596008,-9.445957031,11.01936206
3.527700958,-4.393513641,4.039799194,-8.418343964,10.31946969
3.537640958,-4.347858582,3.789369965,-6.877448273,8.975661186
3.547579958,-3.947291565,3.529210968,-5.174888763,7.403777041
3.557518958,-3.379372559,3.17325119,-3.739074554,5.955699835
3.567457958,-2.434537354,2.753673706,-2.701132965,4.561338652
3.577396958,-1.21217926,2.47001358,-2.01136734,3.408217162
3.587336958,-0.1239422607,2.305805054,-1.570534058,2.792610939
3.597275958,0.7656578064,2.103575592,-1.260977783,2.569304793
3.607214958,1.603914642,1.864522705,-1.015488281,2.660865188
3.617153958,2.271825714,1.673819275,-0.7948471069,2.931662491
3.627092958,2.68885849,1.590891724,-0.6251000977,3.186164871
3.637032958,2.921624451,1.547481995,-0.5551954651,3.35243672
3.646971958,2.940485229,1.273851013,-0.5301974487,3.248116242
3.656910958,2.969075775,0.8888516235,-0.5566923523,3.148868772
3.666849958,3.142265625,0.5924679565,-0.6923103333,3.271718988
3.676788958,3.589984589,0.05478607178,-0.8563691711,3.691118938
3.686728958,4.440066833,-1.094673615,-1.082399139,4.699371416
3.696667958,5.559439087,-2.897674255,-1.449136505,6.434584343
3.706606958,7.098239136,-5.333858185,-1.952689362,9.091096617
3.716545958,8.95467865,-8.399183807,-2.658022614,12.56175316
3.726484958,10.5850882,-12.30291595,-3.588936768,16.62186212
3.736424958,12.70587799,-16.67352722,-4.568350067,21.45496837
3.746363958,15.8430542,-20.63294357,-5.278024292,26.54389322
3.756302958,19.64574646,-23.77895142,-5.583988037,31.3460493
3.766241958,23.1474147,-25.69781113,-5.423072662,35.00842786
3.776180958,25.68344101,-26.5754361,-4.973407745,37.29112133
3.786120958,26.79742447,-26.80056793,-4.305496674,38.14327859
3.796059958,26.25674881,-25.79391129,-3.217409363,36.94718447
3.805998958,24.68651413,-23.81218231,-1.215322723,34.32085395
3.815937958,22.45630188,-21.31507507,1.138382721,30.98247625
3.825876958,20.0021553,-18.48386261,3.071163483,27.40750698
3.835816958,17.68257889,-15.58334427,4.224964142,23.94503157
3.845755958,15.5736145,-12.79030243,4.472249908,20.64292431
3.855694958,13.51434677,-10.21266266,3.793710938,17.35881015
3.865633958,11.11573471,-7.787406006,2.48288681,13.79739024
3.875572958,8.722810822,-5.353018341,0.773890686,10.26358323
3.885512958,6.702013092,-3.013084259,-0.912203064,7.404577683
3.895451958,4.954846344,-1.106349335,-2.371518402,5.603446321
3.905390958,3.401676178,0.160765686,-3.671115875,5.007428302
3.915329958,2.086810455,1.131796417,-4.687801666,5.254638472
3.925268958,0.8595126343,2.269879761,-5.292843475,5.822826474
3.935208958,-0.2841091919,3.463347931,-5.360951843,6.388685435
3.945147958,-1.07057373,4.307592316,-4.887636108,6.602307657
3.955086958,-1.523082733,4.514911194,-4.267625427,6.396626524
3.965025958,-2.159409485,4.278552704,-3.891457672,6.17353265
3.974964958,-2.868035889,3.917802887,-3.831133118,6.184851679
3.984904958,-3.234773254,3.503763885,-3.873495026,6.143621333
3.994843958,-3.300486603,3.051853638,-3.912414093,5.959362925
4.004782958,-3.196602631,2.646496582,-3.918251953,5.707443465
4.014721958,-2.889740753,2.331252136,-3.774550781,5.294579468
4.024660958,-2.189496918,2.059716797,-3.619622955,4.705103652
4.034600958,-1.37369339,1.712139587,-3.328029327,3.986757417
4.044539958,-0.5346881104,1.501078491,-2.712060242,3.145536324
4.054478958,0.1860630798,1.438658295,-2.049088898,2.510602013
4.064417958,0.7740403748,1.387015686,-1.61124939,2.262537427
4.074356958,1.415456543,1.276395721,-1.300794983,2.3075465
4.084296958,1.954485626,1.075812836,-1.02267334,2.454230649
4.094235958,2.355501709,0.7982899475,-0.7173083496,2.588471829
4.104174958,2.648292847,0.4607418823,-0.4005670166,2.717754959
4.114113958,3.096909943,-0.01751358032,-0.1755848694,3.10193294
4.124052958,3.945046234,-1.159339142,0.01511856079,4.111895622
4.133992958,5.082680511,-3.125500488,0.1311273193,5.96821488
4.143931958,6.71039566,-5.765111389,0.1263372803,8.847704807
4.153870958,8.926387482,-9.098828888,0.09011260986,12.7466545
4.163809958,11.18953125,-13.11273193,-0.2121089172,17.23932535
4.173748958,13.7713623,-17.45310608,-1.062939606,22.25738467
4.183688958,16.98188599,-21.99915253,-2.035467224,27.86557536
4.193627958,20.28431854,-25.80588638,-2.589465179,32.92571458
4.203566958,23.10669937,-26.92944992,-2.77657608,35.59247397
4.213505958,26.2435762,-26.187892,-3.433410187,37.23330881
4.223444958,28.97599411,-25.20877808,-4.8559021,38.71266604
4.233383958,30.31466034,-24.13685715,-6.241420898,39.24948203
4.243323958,30.11961594,-22.47381546,-6.255192261,38.09712687
4.253262958,28.2528479,-20.10229706,-4.320914612,34.94275411
4.263201958,25.54318268,-17.05149124,-1.503323822,30.74845553
4.273140958,22.57964539,-13.77091324,0.8382568359,26.46093558
4.283079958,19.57419525,-10.62535446,2.421664124,22.40338667
4.293019958,16.56679916,-7.720046082,2.729573822,18.47994911
4.302958958,13.96595764,-5.39882309,1.827399902,15.08425185
4.312897958,11.33996841,-4.003275146,0.02065704346,12.02586888
4.322836958,8.424032135,-3.162623291,-2.454445953,9.32688632
4.332775958,5.572761383,-2.115700378,-4.715344391,7.600416452
4.342715958,3.069516907,-0.8674461365,-6.212830353,6.983813989
4.352654958,0.7283853149,0.2636018372,-6.957831116,7.000817447
4.362593958,-1.401834869,1.063089294,-7.193291473,7.405318499
4.372532958,-3.101101227,1.636397095,-6.911427612,7.749997156
4.382471958,-4.342918854,1.915267181,-5.962850189,7.62133682
4.392411958,-5.16470993,1.99969162,-4.581822052,7.18791267
4.402350958,-5.800886993,2.093396759,-3.27503952,6.98272753
4.412289958,-6.517446899,2.065854034,-2.392325134,7.243485799
4.422228958,-6.887327728,1.896855469,-1.980830841,7.413301203
4.432167958,-6.713389435,1.699266357,-1.818867645,7.159984872
4.442107958,-6.153254242,1.522783356,-1.755399628,6.577448956
4.452046958,-5.284610596,1.354233856,-1.676962738,5.707299056
4.461985958,-4.252207489,1.195713501,-1.502874756,4.665793806
4.471924958,-3.091072083,1.063388672,-1.267713776,3.506083328
4.481863958,-1.846560059,1.055754547,-1.127754822,2.407536636
4.491803958,-0.841999054,1.04722229,-1.176553345,1.786033232
4.501742958,-0.04026626587,1.028960266,-1.375938721,1.718600583
4.511685292,0.8068222046,1.063538361,-1.618733826,2.098183765
4.521624292,1.647623749,1.139580231,-1.897603912,2.75938539
4.531563292,2.267335052,1.178199921,-2.086960144,3.299146244
4.541503292,2.731070709,1.056053925,-2.158062286,3.637475765
4.551442292,3.229534149,0.4670288086,-2.109263763,3.885485858
4.561381292,3.993994446,-0.7845185852,-1.963317261,4.519079078
4.571320292,5.194797363,-2.703228607,-1.768272858,6.117201439
4.581259292,7.029082947,-5.050647125,-1.662293243,8.813640694
4.591199292,9.473200378,-7.858059082,-1.84521286,12.44569919
4.601138292,11.92240723,-10.91066116,-2.525697784,16.3574286
4.611077292,15.16182083,-13.68753662,-3.563489685,20.73470348
4.621016292,19.36897202,-15.97298401,-5.031636658,25.60489528
4.630955292,23.34889572,-17.85472092,-6.966363373,30.20748598
4.640894292,25.9078244,-19.21344543,-8.897647247,33.45952745
4.650834292,27.84030579,-20.493284,-10.28526169,36.06721397
4.660773292,29.72338989,-22.72783722,-10.79839462,38.94406011
4.670712292,30.59757202,-24.00468201,-10.40845551,40.25881416
4.680651292,29.9462764,-22.53922943,-9.171727295,38.58648617
4.690590292,28.35059464,-19.22078018,-7.479346619,35.05902498
4.700530292,26.36108185,-15.70908279,-5.613027649,31.19596124
4.710469292,23.98597092,-12.64615219,-3.58519455,27.3515189
4.720408292,21.17526581,-9.505383453,-1.607507172,23.26646247
4.730347292,17.92163177,-6.204148407,-0.09220825195,18.96535909
4.740286292,14.49914886,-3.083737335,0.749790802,14.84240344
4.750226292,11.56405243,-0.8538244629,0.6813830566,11.61553303
4.760165292,9.212592316,-0.1017883301,-0.2806663513,9.217428689
4.770104292,6.951095123,-0.1101708984,-1.700912933,7.157022135
4.780043292,4.41476944,0.01841171265,-3.017125854,5.347296197
4.789982292,1.859433289,0.4644841003,-3.82619339,4.279368352
4.799922292,-0.7099736023,0.7749385071,-4.242178345,4.37043125
4.809861292,-3.28087738,0.5203179932,-4.371359711,5.490325393
4.819800292,-5.38355484,0.001496887207,-4.235292664,6.849844444
4.829739292,-6.862479401,-0.2356100464,-3.775748291,7.836160461
4.839678292,-7.881410522,-0.1402583313,-3.112028503,8.474728646
4.849618292,-8.348738708,-0.1691482544,-2.404150543,8.689648381
4.859557292,-8.264463959,-0.186512146,-1.746118927,8.448969323
4.869496292,-7.82557663,-0.132923584,-1.28822113,7.932013108
4.879435292,-6.916217651,0.02185455322,-1.118324432,7.006082626
4.889374292,-5.67844162,0.4167333984,-1.229692841,5.824990166
4.899313292,-4.433031464,0.8207432556,-1.348096619,4.705608562
4.909253292,-3.197650452,1.025068359,-1.383273468,3.631690934
4.919192292,-1.916015625,1.160836029,-1.420246582,2.65250005
4.929131292,-0.7731422424,1.275048523,-1.500479736,2.115404714
4.939070292,0.2893482971,1.428030396,-1.582808533,2.151342859
4.949009292,1.184337158,1.609004059,-1.652563477,2.59278125
4.958949292,1.786983948,1.689536591,-1.647324371,2.959987011
4.968888292,2.119292908,1.683249664,-1.595232697,3.141575913
