Time (s),Acceleration x (m/s^2),Acceleration y (m/s^2),Acceleration z (m/s^2),Absolute acceleration (m/s^2)
25.00476137,-1.325343933,-7.884254608,1.913770294,8.220737437
25.01476338,-0.9270222473,-5.528154144,1.430275726,5.784941412
25.02476537,-0.6123765564,-3.481160889,1.04961731,3.687164585
25.03476838,-0.330662384,-1.853146362,0.7854167175,2.039698133
25.04477038,0.05733078003,-0.6367758179,0.6929090881,0.9428113624
25.05477337,1.375190277,0.6718029785,1.06129303,1.862474278
25.06477538,2.63272522,1.347198486,1.289119263,3.226145427
25.07477737,5.968388672,9.834998016,1.606609039,11.61593913
25.08478038,14.19378387,34.1784256,2.156715088,37.0712786
25.09478238,5.960754547,15.66432587,0.4388873291,16.76586776
25.10478537,1.304088135,5.417384491,-0.6239025879,5.60695595
25.11478738,0.3332070923,3.738026733,0.6728507996,3.812689212
25.12479037,-0.7018904114,1.857487335,1.046773224,2.244692302
25.13479237,-0.8252339172,1.179098053,0.8306227112,1.661691104
25.14479438,-0.8334667969,0.6529421997,0.5101391602,1.175262686
25.15479737,-0.9198371887,0.259410553,0.2329156494,0.9836889694
25.16479938,-1.033450928,-0.1793270874,0.07499404907,1.051571743
25.17480337,-1.185684357,-0.6086343384,0.093256073,1.336031379
25.18480537,-1.424587555,-1.117875366,0.1817221069,1.819922515
25.19480738,-1.831441498,-1.606758728,0.3441343689,2.460544662
25.20481037,-2.056423645,-1.848655701,0.6134243774,2.832436332
25.21481238,-2.075583801,-1.999541931,0.8318202209,2.999690139
25.22481538,-1.984123993,-1.972897339,0.7976911926,2.909533153
25.23481737,-1.579964447,-1.637744293,0.7466473389,2.394989827
25.24481938,-0.913250885,-1.014141083,0.6406677246,1.507635383
25.25482237,-0.4360432434,-0.4680766296,0.5590873718,0.8495929206
25.26482438,-0.1842668152,-0.0375718689,0.5484594727,0.579804879
25.27482738,-0.06152206421,0.3887416077,0.6015989685,0.7189063366
25.28482937,-0.1454974365,0.8280780029,0.8625064087,1.204491589
25.29483238,-0.2800675964,1.234033813,1.292711792,1.808972385
25.30483437,-0.2507286072,1.203497314,1.254092102,1.75613713
25.31483638,0.02245330811,0.7113208008,0.5050497437,0.872672147
25.32483938,0.3688330078,0.3790118408,-0.03981719971,0.5303519327
25.33484137,0.5727090454,0.2636018372,-0.01601669312,0.6306648188
25.34484438,0.6997947693,0.1583706665,0.1465452576,0.7323042398
25.35484637,0.8062234497,0.08861572266,0.2221380615,0.8409484619
25.36484938,0.9852511597,0.1013392639,0.3517684937,1.051061638
25.37485138,1.151555328,0.08756790161,0.5284011841,1.270021899
25.38485337,1.129551086,-0.1240919495,0.7640112305,1.369305528
25.39485638,0.8054750061,-0.6759942627,0.903072052,1.386108711
25.40485837,0.8123606873,-1.404529266,1.150806885,1.989218146
25.41486138,1.683998108,-4.439617767,2.518363037,5.374775152
25.42486338,2.030976563,-17.13591568,6.087840271,18.29825869
25.43486537,-0.9436376953,-46.28120773,13.8245018,48.31104937
25.44486838,-7.35046463,-73.81614853,21.62897232,77.2700819
25.45487038,-11.75730057,-74.91531281,22.73038193,79.16570262
25.46487338,-10.51099228,-55.13933716,15.84185669,58.32488221
25.47487538,-8.573421478,-41.22262711,9.021739197,43.06042637
25.48487837,-12.39886642,-38.17945541,-9.588011627,41.27145104
25.49488038,-14.06220749,-36.09683624,-30.73528564,49.45083467
25.50488238,-12.73716293,-35.94939285,9.239087219,39.24225909
25.51488537,-11.56135803,-35.31635925,12.10158463,39.08143525
25.52488738,-10.79330521,-32.68632843,8.320896606,35.41368131
25.53489037,-10.29409332,-29.9940271,7.076085205,32.49124499
25.54489238,-9.041498108,-26.55088715,4.959037628,28.48315907
25.55489538,-7.170389099,-22.48953278,3.689078522,23.89148101
25.56489737,-5.14135849,-17.99482956,2.761607208,18.91755619
25.57489938,-3.380121002,-13.62915802,2.077829132,14.1949477
25.58490237,-2.015109558,-9.677974548,1.541195068,10.00495578
25.59490438,-1.075663147,-6.329288177,1.18059494,6.527690591
25.60490738,-0.4604425049,-3.633693695,0.8849597168,3.768141567
25.61490937,0.03203338623,-1.807191925,0.7604187012,1.960919527
25.62491138,0.3968247986,-0.6429130554,0.7545808411,1.067801182
25.63491437,0.09505233765,0.9172924805,0.1573228455,0.935527081
25.64491638,-1.000968475,6.637497253,-1.170565796,6.813848543
25.65491938,1.522184601,14.55213867,4.946912842,15.44518477
25.66492137,3.921994171,14.71260498,7.071744232,16.78845884
25.67492338,6.652615814,8.637937317,4.401746521,11.75783274
25.68492637,5.305716705,2.662962341,1.439406738,6.108509634
25.69492838,4.793332214,1.919757843,1.166374512,5.293574727
25.70493138,5.144951019,4.121379547,0.8611592102,6.648149032
25.71493337,4.299658813,2.404150543,0.7707472229,4.986086344
25.72493638,2.711461487,0.4351451111,1.520388336,3.138941757
25.73493838,1.603914642,-0.02694396973,1.403481445,2.131438088
25.74494037,0.9029223633,-0.329614563,1.055305481,1.42743974
25.75494338,0.4623884583,-0.4059558105,0.8839118958,1.076988136
25.76494537,0.1675016785,-0.3712280273,0.463585968,0.6170729376
25.77494838,0.03787124634,-0.2820135498,0.07499404907,0.2942617559
25.78495038,-0.0722996521,-0.1387614441,-0.1206491089,0.1975808329
25.79495337,-0.09205856323,-0.001347198486,-0.24923172,0.2656935156
25.80495538,-0.04460723877,0.1751358032,-0.2942880249,0.3453517003
25.81495737,-0.04475692749,0.3321592712,-0.2796185303,0.4364853795
25.82496038,-0.02649490356,0.5102888489,-0.2344125366,0.5621796212
25.83496238,-0.004490661621,0.7241940308,-0.1682501221,0.7434953018
25.84496537,0.05388793945,1.053958282,-0.1425036621,1.064912797
25.85496738,0.1202000427,1.343007202,-0.1564247131,1.357418538
25.86496937,0.09370513916,1.421444092,-0.1606159973,1.43355553
25.87497238,0.06271957397,1.469344482,-0.2035766602,1.484705496
25.88497438,0.06915618896,1.552571411,-0.2953358459,1.58192409
25.89497737,0.05763015747,1.522633667,-0.2947370911,1.551967935
25.90497938,0.01272354126,1.405128021,-0.1972897339,1.418967894
25.91498237,-0.03817062378,1.273701324,-0.08562194824,1.277146498
25.92498438,-0.03562591553,1.21801712,0.009280700684,1.218573364
25.93498638,0.03457809448,1.100361786,0.07454498291,1.103425874
25.94498937,0.3128494263,0.6294410706,0.2745291138,0.7546105347
25.95499138,0.7213499451,-0.1613644409,0.7179071045,1.030424591
25.96499437,0.9361532593,-0.7068301392,1.350491638,1.788803912
25.97499638,0.859662323,-1.249152374,1.918560333,2.445460021
25.98499838,1.054107971,-2.039209442,2.966680756,3.751094969
25.99500137,1.457818451,-4.439468079,4.173471222,6.265139543
26.00500338,0.830173645,-13.43067078,7.223528595,15.27257251
26.01500637,-4.932093658,-44.13407272,17.26075607,47.64531061
26.02500837,-20.82813766,-88.70957748,33.73355072,97.16559525
26.03501138,-23.96860703,-78.92936554,28.23338837,87.18636984
26.04501337,-13.12859894,-40.72161896,12.50694168,44.576159
26.05501538,-9.361981659,-27.4168364,6.962321777,29.79603234
26.06501838,-11.51061356,-27.75438446,5.727689209,30.58768551
26.07502037,-20.1919606,-37.59851349,-0.01466949463,42.67743789
26.08502338,-25.70843903,-42.5895845,-8.25024353,50.42680898
26.09502537,-19.93748978,-37.26440826,3.969445496,42.44874697
26.10502838,-14.70811432,-31.88444595,7.610623627,35.92865309
26.11503038,-11.41331589,-27.43644562,6.332880707,30.38301673
26.12503237,-8.05609726,-22.80043625,5.031636658,24.69975635
26.13503538,-5.257516937,-18.66573441,3.9362146,19.78749379
26.14503737,-3.237018585,-15.00629425,3.238515472,15.68933201
26.15504038,-2.101030884,-11.91686874,2.722239075,12.40309143
26.16504238,-1.422342224,-9.079968109,2.302062836,9.474617225
26.17504437,-0.7758366394,-6.426585846,1.864672394,6.736462815
26.18504738,-0.3640429688,-4.194277954,1.51170639,4.473226023
26.19504937,-0.03921844482,-2.431543579,1.204694824,2.713896071
26.20505238,0.229921875,-1.11039093,0.9737251282,1.494648023
26.21505438,0.4846920776,-0.2115101624,0.8044271851,0.9626868935
26.22505737,0.7908055115,0.4876858521,0.7827223206,1.214851875
26.23505938,2.705174561,2.001787262,1.724264374,3.781297301
26.24506137,3.135679321,4.63002182,1.789828033,5.871377287
26.25506438,-2.978057098,17.42212051,0.9128018188,17.69837039
26.26506638,-0.03263214111,21.66534668,7.223827972,22.83795092
26.27506937,4.34920578,10.67056046,7.013066254,13.48923829
26.28507138,3.168161774,1.539997559,3.979175262,5.314383998
26.29507338,2.98494278,-0.6005511475,2.954106903,4.242321614
26.30507637,2.153721313,-1.399888916,2.676883392,3.709974282
26.31507838,0.9779164124,-1.41575592,1.897304535,2.561337509
26.32508137,0.475411377,-1.242715759,1.13269455,1.747385298
26.33508338,0.3073109436,-0.9404942322,0.6327342224,1.174445407
26.34508638,0.2516267395,-0.6032455444,0.2802172852,0.7111560517
26.35508837,0.2052232361,-0.36389328,0.09190887451,0.4277641138
26.36509038,0.1869612122,-0.1866618347,-0.03053649902,0.2659503961
26.37509337,0.1751358032,-0.01017883301,-0.04670288086,0.1815415029
26.38509538,0.1832189941,0.3888912964,0.08412506104,0.4380441372
26.39509838,0.1785786438,0.997375946,0.3959266663,1.087845134
26.40510037,0.193996582,2.028282166,0.6746470642,2.146325203
26.41510238,0.1880090332,2.596949615,-0.08247848511,2.605052284
26.42510537,0.270637207,1.825154572,-0.8428971863,2.02852394
26.43510738,0.419128418,0.9418414307,-0.6947053528,1.243120846
26.44511038,0.4150868225,0.4788542175,-0.4429289246,0.7731652243
26.45511237,0.4143383789,0.2957849121,-0.3713777161,0.6301479306
26.46511538,0.4686753845,0.2365081787,-0.3600013733,0.6365482884
26.47511737,0.5046006775,0.2008822632,-0.3297642517,0.6353896356
26.48511938,0.5397775269,0.1682501221,-0.2161505127,0.6053006907
26.49512238,0.6611750793,0.1824705505,-0.117355957,0.6958594743
26.50512437,0.8180488586,0.146844635,-0.03023712158,0.8316739538
26.51512738,0.8539741516,-0.01437011719,0.3234773254,0.9132994755
26.52512937,0.9735754395,-0.3637435913,1.012644196,1.451070916
26.53513137,1.188977509,-1.057401123,2.027833099,2.577570897
26.54513438,1.122366028,-2.018253021,2.813100128,3.639585566
26.55513637,0.9394464111,-2.737207947,3.280428314,4.374480178
26.56513938,0.8629554749,-3.821702728,3.853885803,5.495683732
26.57514138,1.222058716,-9.00961441,5.135969696,10.4424501
26.58514437,0.1269360352,-24.22128159,12.35560638,27.19094709
26.59514638,-5.037025452,-52.68279556,24.91538818,58.49465909
26.60514837,-14.68566101,-69.84176331,31.6555719,78.07442458
26.61515138,-15.65354828,-54.51333893,22.30945724,60.94628436
26.62515338,-10.72280182,-35.37518692,10.41429337,38.40364351
26.63515637,-11.35104538,-29.79449203,3.610791321,32.08731526
26.64515838,-15.60864166,-31.45304306,-0.2125579834,35.11365537
26.65516037,-22.60554153,-35.32070023,-14.94147903,44.51752653
26.66516338,-24.33893692,-35.10514847,-23.71832748,48.86015102
26.67516538,-17.92851746,-29.88729904,5.137616272,35.22892963
26.68516837,-16.70466248,-27.96529587,8.432265015,33.64827803
26.69517038,-13.56763596,-27.25337631,6.72326889,31.17738941
26.70517337,-9.888586578,-26.05407028,5.997577972,28.50560759
26.71517538,-7.14569046,-23.83852753,4.819078674,25.3487634
26.72517738,-5.517675934,-21.50877228,4.146976318,22.58914441
26.73518037,-4.595743103,-19.50938004,3.794309692,20.39935171
26.74518238,-3.480562134,-17.5709111,3.645519104,18.27952514
26.75518537,-2.759810944,-15.36554718,3.606450348,16.02258034
26.76518738,-2.386786652,-12.82068924,3.307521973,13.45386653
26.77518938,-1.690135345,-10.06536896,2.72044281,10.56262367
26.78519237,-1.102008362,-7.35510498,2.010768585,7.704231435
26.79519438,-0.5156776428,-4.809648285,1.454824677,5.051252805
26.80519737,0.0636177063,-2.734214172,0.9392967224,2.891755987
26.81519937,0.5650749207,-1.169667664,0.6253994751,1.441720019
26.82520238,0.8220904541,1.208886108,-0.2805166626,1.48859932
26.83520437,3.370540924,8.180787964,-0.9119036865,8.894796578
26.84520638,3.719315643,6.943910065,0.4996609497,7.893089186
26.85520938,3.706143036,2.900218964,0.9729766846,4.805564469
26.86521137,4.190835114,1.742376709,0.9592053223,4.63886305
26.87521438,3.895349579,0.8255332947,1.217867432,4.163947003
26.88521637,3.617227936,1.234632568,1.282532959,4.031568716
26.89521838,4.668791199,4.347409515,1.336121521,6.517883205
26.90522138,6.775809631,11.10241241,1.586401062,13.10312275
26.91522337,4.31298111,7.924221497,2.154020691,9.275499853
26.92522638,1.08464447,2.394420776,2.721790009,3.783892881
26.93522837,-0.14040802,1.468296661,3.034489746,3.373979478
26.94523138,-0.6493496704,1.419498138,2.931503906,3.321196337
26.95523338,-0.7885601807,1.203796692,2.719095612,3.076432118
26.96523537,-0.8068222046,0.8852590942,2.723436584,2.9751895
26.97523838,-0.8515791321,0.7210505676,2.771037598,2.987264686
26.98524037,-0.9542655945,0.5674699402,2.619552612,2.845118775
26.99524338,-0.9183403015,0.3215313721,2.225571899,2.428971307
27.00524538,-0.7300318909,0.2059716797,1.613943787,1.783307444
27.01524837,-0.4797523499,0.5673202515,1.242715759,1.44788019
27.02525038,-0.2339634705,1.323248291,1.051263885,1.70613033
27.03525237,-0.03442840576,1.994751892,0.7414082336,2.128357723
27.04525538,0.1384620667,2.074685669,0.359103241,2.110082346
27.05525738,0.2240840149,1.62876297,0.204175415,1.656734758
27.06526037,0.3053649902,1.039438477,0.1317260742,1.091344072
27.07526238,0.3254232788,0.5309458923,0.04056564331,0.6240588293
27.08526438,0.2716850281,0.08083190918,-0.04565505981,0.287107883
27.09526737,0.1919009399,-0.2498304749,-0.157023468,0.3519909181
27.10526938,0.169896698,-0.4812492371,-0.03023712158,0.5112533615
27.11527237,0.1746867371,-0.596509552,0.0904119873,0.6281030403
27.12527438,0.1501377869,-0.6655160522,0.243842926,0.724508346
27.13527638,0.1080752563,-0.7488926697,0.4110452271,0.8610915575
27.14527937,0.06032455444,-0.8988807678,0.578846283,1.070835518
27.15528138,0.04640350342,-1.388512573,0.8068222046,1.606574779
27.16528437,0.3728746033,-4.158951416,1.281335449,4.367806416
27.17528563,-0.1219963074,-13.85473892,4.997208252,14.72890912
27.18528862,-4.95993576,-41.59131042,13.27619202,43.93967842
27.19529063,-17.50908966,-77.04104233,24.9935257,82.86474975
27.20529263,-23.31222198,-74.47013855,22.78426987,81.29196875
27.21529562,-15.41015442,-45.50567047,9.089398499,48.89638094
27.22529763,-11.51719986,-32.53304718,1.351090393,34.53795733
27.23530062,-20.50795349,-36.20401337,-19.25026886,45.84626039
27.24530263,-24.99816605,-42.37942154,-20.10723679,53.15284232
27.25530563,-18.62457001,-40.02137512,13.01318893,46.0209535
27.26530762,-17.0573291,-37.30362671,10.64391586,42.37695112
27.27530963,-14.44241684,-33.22011841,7.008725281,36.89555395
27.28531262,-12.20157669,-28.69562714,4.797074432,31.54884172
27.29531463,-9.633816376,-24.71196121,2.489473114,26.63998726
27.30531763,-6.506968689,-20.9790239,1.019978943,21.98864348
27.31531962,-3.626358948,-17.47017059,0.9743238831,17.8691535
27.32532163,-2.139500885,-14.32760559,0.5610333252,14.49732749
27.33532462,-1.243314514,-10.95916031,0.2996768188,11.03353216
27.34532662,-0.8704399109,-7.462581482,1.058149567,7.587322882
27.35532963,-0.5797444153,-4.472399597,1.451830902,4.737749963
27.36533162,0.02619552612,-2.116897888,1.20050354,2.433752581
27.37533463,0.4381388855,-0.6373745728,0.9403445435,1.217563095
27.38533663,0.7282356262,0.1345701599,0.8839118958,1.15314201
27.39533862,1.018631744,0.5060975647,0.7544311523,1.364885248
27.40534163,1.154998169,0.6129753113,0.6203100586,1.447253976
27.41534362,1.452729034,14.31832489,0.3852987671,14.39698942
27.42534663,5.759722595,37.34104889,0.3188369751,37.78399123
27.43534863,5.945785675,14.47175583,-0.7430548096,15.66321214
27.44535062,4.353995819,3.205134888,0.9035211182,5.481470574
27.45535363,3.074905701,-0.3811074829,2.549198914,4.012318916
27.46535562,2.137554932,-1.182840271,2.421364746,3.439659783
27.47535863,1.894011383,-1.352886658,2.377955017,3.327499285
27.48536063,1.609004059,-1.467099152,2.367476807,3.216554121
27.49536362,1.293160858,-1.390907593,2.12722641,2.851662872
27.50536563,0.8958869934,-1.338815918,1.868414612,2.466984947
27.51536762,0.5095404053,-1.291663971,1.690285034,2.187485025
27.52537063,0.3586541748,-1.281036072,1.503024445,2.007179293
27.53537263,0.1707948303,-1.293759613,1.25663681,1.811662464
27.54537562,-0.03143463135,-1.274449768,1.136287079,1.707734954
27.55537763,-0.1941462708,-1.218466187,0.9702822876,1.569649751
27.56537962,-0.2875520325,-0.9029223633,0.8437953186,1.26883628
27.57538263,-0.09145980835,-0.3773652649,0.705333252,0.8051487043
27.58538463,0.01032852173,-0.03173400879,0.4718188477,0.4729976223
27.59538762,0.04550537109,0.1290316772,0.2532733154,0.2878667831
27.60538963,0.1019380188,0.1904040527,0.0845741272,0.2319436267
27.61539262,0.1387614441,0.2186952209,0.009879455566,0.2591909367
27.62539462,0.1630110168,0.2327659607,-0.060025177,0.2904403656
27.63539663,0.3393443298,0.6137237549,-0.009879455566,0.7013622638
27.64539962,1.213825836,2.997366943,0.15328125,3.237449134
27.65540163,1.792971497,5.72409668,-0.0245489502,5.998385803
27.66540463,0.9521699524,4.686903534,-0.07259902954,4.783195895
27.67540662,0.3447331238,3.344046021,0.4085005188,3.386496329
27.68540863,-0.1454974365,2.251767426,0.839304657,2.407500436
27.69541162,-0.5671705627,1.198258209,0.7875123596,1.541973054
27.70541363,-0.8434959412,0.3335064697,0.6012995911,1.088243156
27.71541663,-0.9768685913,-0.3838018799,0.5498066711,1.18484746
27.72541862,-0.8961863708,-0.7646099854,0.642613678,1.341913105
27.73542163,-0.909508667,-0.9788145447,0.6429130554,1.482774806
27.74542362,-0.9219328308,-1.285377045,0.8000862122,1.772651189
27.75542563,-0.9976753235,-2.189796295,0.9080117798,2.571973806
27.76542863,-1.164129181,-5.610333252,1.681603088,5.971501059
27.77543062,-3.494183807,-20.34973251,6.451733551,21.63205491
27.78543363,-13.36555618,-58.60567886,16.93877563,62.45146761
27.79543562,-24.56541595,-91.02556137,24.25286591,97.3514971
27.80543863,-19.58242813,-66.70997589,16.34855301,71.42105824
27.81544063,-10.78776672,-37.69910431,7.564818878,39.93525837
27.82544262,-9.33264267,-30.32124664,2.35071167,31.81197986
27.83544563,-10.72654404,-35.10679504,-17.01047653,40.458647
27.84544762,-11.40074203,-46.18196411,-30.68978027,56.60930437
27.85545063,-14.11669418,-45.35433517,17.16495529,50.50675662
27.86545263,-11.70161636,-40.70620102,13.63709152,44.49598737
27.87545462,-6.765032043,-36.46162766,8.236621857,37.98760179
27.88545763,-6.873706055,-32.41898438,5.397475891,33.57634776
27.89545963,-8.322094116,-28.20749222,1.800006866,29.46455315
27.90546262,-7.875722351,-24.52260498,0.6340814209,25.76406833
27.91546463,-6.173761597,-20.98052078,1.031954041,21.8943489
27.92546762,-4.067940674,-17.55684036,1.822160797,18.113836
27.93546963,-2.439177704,-13.97927994,1.98098053,14.32808917
27.94547163,-1.691781921,-10.5532045,1.839824066,10.84514656
27.95547462,-1.187031555,-7.204817505,1.684297485,7.493683821
27.96547663,-0.662971344,-4.230352936,1.391506348,4.50241123
27.97547962,-0.2377056885,-2.0079245,1.070124664,2.287669466
27.98548163,-0.06092330933,-0.6807843018,0.8354127502,1.079394913
27.99548363,-0.01272354126,0.05867797852,0.7484436035,0.7508480681
28.00548662,0.1354682922,0.2739303589,0.6465055847,0.7150936797
28.01548863,1.949695587,11.23638382,0.1327738953,11.40505428
28.02549162,7.481891327,40.93223099,-1.204694824,41.6278455
28.03549363,5.419330444,21.03964783,-1.278641052,21.76398047
28.04549663,2.430046692,5.044360199,0.5114863586,5.622482996
28.05549862,0.6792874146,0.4840933228,1.851799164,2.030994308
28.06550063,0.1553768921,-0.4342469788,1.465153198,1.536029398
28.07550362,0.01631607056,-0.8387059021,1.298399963,1.545812495
28.08550563,0.009131011963,-1.020727386,1.507515106,1.820595938
28.09550863,-0.0245489502,-1.233435059,1.730401611,2.125148096
28.10551062,-0.1335223389,-1.769470367,1.704056396,2.460215803
28.11551263,-0.4574487305,-2.460882568,1.7305513,3.04302648
28.12551562,-0.7934999084,-3.008443909,2.271676025,3.852387418
28.13551762,-0.7352709961,-3.455863495,2.758463745,4.482492406
28.14552063,-0.7117698669,-3.272494812,2.739303589,4.326617939
28.15552262,0.09729766846,-2.115999756,2.452949066,3.240969133
28.16552563,0.5086422729,-1.15844101,1.946851501,2.321838346
28.17552763,0.5165757751,-0.5539979553,1.542841644,1.718756703
28.18552962,0.5795947266,-0.1414558411,1.146016846,1.29201177
28.19553263,0.5641767883,0.116308136,0.8223898315,1.004065768
28.20553462,0.6277944946,0.2712359619,0.5885760498,0.9022841243
28.21553763,0.698896637,0.3032693481,0.3993695068,0.8601888221
28.22553963,0.7649093628,0.307610321,0.2519261169,0.8620772653
28.23554162,0.7973918152,0.2866539001,0.1619631958,0.8626912786
28.24554463,0.7714956665,0.2174977112,0.08232879639,0.8057846167
28.25554662,0.6753955078,0.203127594,0.09684860229,0.7118985624
28.26554963,0.6548881531,0.2375559998,0.08906478882,0.7023132369
28.27555163,0.6771917725,0.4117936707,0.06541397095,0.7952620395
28.28555462,0.7575746155,0.8705895996,0.06631210327,1.155959707
28.29555663,0.6224057007,1.452429657,-0.09430389404,1.582982624
28.30555862,0.2832110596,1.823208618,-0.3436853027,1.876810528
28.31556163,0.08831634521,2.170336761,-0.3189866638,2.195430237
28.32556363,0.02155517578,2.468516693,-0.1465452576,2.472956692
28.33556662,0.01182540894,1.881287842,-0.1645079041,1.888503808
28.34556863,-0.05882766724,0.5665718079,-0.1844165039,0.5987267781
28.35557062,-0.0505947876,-0.2739303589,-0.02978805542,0.2801517487
28.36557363,-0.03562591553,-0.4691244507,-0.04730163574,0.472847122
28.37557563,-0.04535568237,-0.5974076843,0.07065307617,0.6032784899
28.38557862,0.1938468933,-1.922751617,0.2260299683,1.945672107
28.39558063,0.7692503357,-9.676477661,1.702559509,9.855185178
28.40558362,-2.406695251,-38.05820755,9.529333649,39.30683838
28.41558562,-8.326884155,-87.285439,22.85207886,90.61071884
28.42558763,-11.21512802,-94.80654877,23.61623978,98.34524679
28.43559062,-6.353238373,-51.98868896,10.72010742,53.46127684
28.44559263,-3.243904266,-31.8094519,2.545157318,32.07556658
28.45559563,-8.34155365,-28.81058807,-11.37304962,32.07768321
28.46559762,-21.70321793,-36.07917297,-37.88846054,56.64160867
28.47560063,-16.88833054,-38.83988205,8.122109985,43.12448048
28.48560262,-15.17619095,-38.84482178,12.65678009,43.58246245
28.49560563,-13.62870895,-35.17969345,8.820407867,38.74470459
28.50560763,-11.56495056,-31.48133423,6.575376434,34.17686442
28.51560962,-10.56787399,-28.68395142,3.0165271,30.71723401
28.52561263,-8.565637665,-25.54542801,0.9222322083,26.95903472
28.53561462,-5.875431976,-22.48489243,0.6174659729,23.24806126
28.54561763,-3.996688843,-19.73271561,-0.2707868958,20.13521573
28.55561963,-2.896177368,-16.24616592,0.04715194702,16.50236268
28.56562262,-2.593506775,-12.37431747,1.165775757,12.69681233
28.57562463,-1.954934692,-8.696914673,1.491498413,9.037846093
28.58562662,-1.163530426,-5.517825623,1.394949188,5.809138137
28.59562963,-0.5231620789,-3.047512665,1.200802917,3.317070944
28.60563163,-0.1489402771,-1.390757904,0.8951385498,1.660621503
28.61563462,0.0390687561,-0.4390370178,0.6366261292,0.7743207985
28.62563663,0.1793270874,0.1065783691,0.4659809875,0.5105442525
28.63563862,0.3620970154,0.2863545227,0.3580554199,0.5842232835
28.64564163,1.249302063,13.82420242,-1.795965271,13.99624305
28.65564363,5.47950531,35.39734085,-3.256927185,35.96671089
28.66564662,5.379662933,11.22530685,0.436791687,12.4554837
28.67564863,3.271896057,2.685715027,1.700613556,4.561847814
28.68565162,1.956880646,0.06406677246,2.332449646,3.045292722
28.69565362,1.658101959,-0.8662486267,2.076332245,2.79478879
28.70565563,1.555265808,-1.269210663,2.350861359,3.091326021
28.71565862,1.533111877,-1.66498764,2.900069275,3.678725006
28.72566063,1.52457962,-1.887425079,3.117417297,3.950317336
28.73566363,1.307830353,-2.10971283,3.278482361,4.112147255
28.74566562,1.003662872,-2.276615753,3.429667969,4.237091081
28.75566863,0.7020401001,-2.285297699,3.507356415,4.244643082
28.76567062,0.4730163574,-2.033371582,3.383264465,3.975528004
28.77567263,0.2360591125,-1.470392303,2.958747253,3.312395318
28.78567563,0.1781295776,-0.5987548828,2.280956726,2.364952672
28.79567762,0.3725752258,0.4788542175,1.662592621,1.769838378
28.80568063,0.702638855,1.826202393,1.220112762,2.305947027
28.81568262,0.9187893677,2.86668869,1.016536102,3.177329633
28.82568563,0.4926255798,2.007026367,0.9586065674,2.278104772
28.83568763,0.1730401611,0.9219328308,0.7656578064,1.210840583
28.84568962,0.1835183716,0.5989045715,0.4575984192,0.7757331962
28.85569263,0.1580712891,0.3897894287,0.2305206299,0.4796478833
28.86569462,0.1279838562,0.2586621094,0.01856140137,0.2891893496
28.87569763,0.1086740112,0.1685494995,-0.1616638184,0.2575930214
28.88569963,0.1266366577,0.1519340515,-0.3183879089,0.3748221707
28.89570262,0.1345701599,0.193996582,-0.3793112183,0.4467894382
28.90570463,0.1642085266,0.2887495422,-0.3920347595,0.5138404334
28.91570762,0.2562670898,0.4140390015,-0.3685336304,0.6106702488
28.92570963,0.2710862732,0.540226593,-0.3171903992,0.6825996547
28.93571163,0.2380050659,0.6018983459,-0.277073822,0.7040581887
28.94571462,0.1411564636,0.5858816528,-0.26210495,0.6571768888
28.95571663,-0.01676513672,0.375718689,-0.2421963501,0.4473306105
28.96571962,-0.1905537415,-0.1353186035,-0.1552272034,0.2805661018
28.97572163,-0.2035766602,-0.5944139099,-0.04355941772,0.6298164619
28.98572463,-0.1221459961,-1.035995636,0.150586853,1.053984346
28.99572662,-0.01197509766,-2.295177155,0.7878117371,2.426649729
29.00572863,0.08472381592,-6.967710571,2.579585724,7.430372214
29.01573163,-2.231110382,-25.9317746,8.477770386,27.37347946
29.02573362,-10.35980667,-68.86025436,22.85177948,73.2889081
29.03573663,-15.97942062,-97.10846191,29.72713211,102.8061168
29.04573862,-10.4190834,-65.5844664,16.75435913,68.48786814
29.05574163,-6.567891998,-38.17182129,5.922434235,39.1829092
29.06574363,-10.14874557,-35.16128174,-15.67285812,39.81144624
29.07574562,-16.5955394,-43.49026154,-37.00903931,59.46834256
29.08574863,-14.57339447,-45.45492599,10.92428284,48.96809246
29.09575062,-11.62856827,-41.87272522,14.2969194,45.74877727
29.10575363,-9.160949707,-35.65645203,7.736212463,37.61854003
29.11575563,-8.961115265,-29.5175679,5.342689819,31.30707166
29.12575862,-8.911268921,-24.67663467,2.5812323,26.363038
29.13576063,-7.341632996,-20.49927155,0.8635542297,21.79140736
29.14576262,-4.956343231,-16.8781517,0.5815406799,17.60044126
29.15576563,-3.00245636,-13.86057678,1.33387619,14.24463262
29.16576763,-1.86048111,-10.80498093,1.424737244,11.05616927
29.17577117,-1.382075958,-7.855813751,1.378034363,8.094623052
29.18577317,-1.03554657,-5.138364716,1.421294403,5.430950785
29.19577617,-0.5307962036,-2.835703125,1.178499298,3.116378895
29.20577817,-0.05284011841,-1.17595459,0.8184979248,1.433736422
29.21578117,0.1884580994,-0.2136058044,0.5676196289,0.6350873468
29.22578317,0.4186793518,0.2947370911,0.4658312988,0.6922146715
29.23578517,0.7021897888,0.4939727783,0.2411485291,0.8917579371
29.24578817,6.779701538,19.62209564,-0.6595285034,20.77079604
29.25579017,10.76576248,33.78923492,-2.325264587,35.53900525
29.26579317,4.676724701,10.26056305,-0.480201416,11.28634137
29.27579517,2.152374115,3.172652435,0.9948312378,3.96082403
29.28579817,0.44697052,-0.07798782349,1.287023621,1.364659132
29.29580017,0.03023712158,-0.6336323547,1.040486298,1.218612317
29.30580217,-0.01017883301,-0.7223977661,0.9859996033,1.222357296
29.31580517,-0.1252894592,-0.9286688232,1.179996185,1.506822561
29.32580717,-0.2869532776,-1.203347626,1.258582764,1.764771448
29.33581017,-0.609382782,-1.739532623,1.100212097,2.146575827
29.34581217,-1.032403107,-2.352657623,0.9413923645,2.736251752
29.35581517,-1.19930603,-2.955005035,1.079105988,3.3667283
29.36581717,-1.275946655,-3.371139679,1.286424866,3.827206754
29.37581917,-1.183888092,-3.201093292,1.463955688,3.713725291
29.38582217,-0.5390290833,-2.190694427,1.605561218,2.769028937
29.39582417,-0.1549278259,-1.329086151,1.504072266,2.013133381
29.40582717,-0.09370513916,-0.7676037598,1.249302063,1.469269148
29.41582917,0.008681945801,-0.3556604004,0.9235794067,0.9897315884
29.42583217,0.08666976929,-0.06376739502,0.6653663635,0.6740106285
29.43583417,0.1689985657,0.1514849854,0.5295986938,0.576179653
29.44583617,0.2450404358,0.274379425,0.4067042542,0.5483951444
29.45583917,0.4029620361,0.9114546204,0.3490740967,1.055926443
29.46584117,0.9942324829,3.427422638,0.3456312561,3.585412826
29.47584417,1.891915741,5.745502167,0.2399510193,6.053735773
29.48584617,1.624421997,3.566782837,0.08337661743,3.920157942
29.49584917,1.224004669,1.501976624,0.3320095825,1.965795404
29.50585117,1.067280579,1.087338867,0.6764433289,1.667024062
29.51585317,0.9440867615,1.163530426,0.9515711975,1.774990312
29.52585617,0.8205935669,1.479972382,1.073567505,2.004055698
29.53585817,0.6773414612,1.427581329,1.266216888,2.024866691
29.54586117,0.3965254211,0.632434845,1.317111053,1.51393123
29.55586317,-0.004790039062,-0.4478686523,1.08584198,1.174590175
29.56586517,-0.3347039795,-1.212328949,0.786763916,1.48349779
29.57586817,-0.4881349182,-1.817969513,0.8214916992,2.053810473
29.58587017,-0.8184979248,-3.618425446,1.46141098,3.987312831
29.59587317,-1.978286133,-10.74181229,3.385360107,11.43506932
29.60587517,-8.631201324,-34.33964035,9.015751648,36.53754663
29.61587817,-18.45991241,-74.63045517,18.74896133,79.13277928
29.62588017,-18.53715179,-86.08254044,19.73481125,90.24019359
29.63588317,-9.864486694,-53.08081787,9.551188202,54.82797206
29.64588517,-7.798033905,-34.75128433,3.160078583,35.75537991
29.65588717,-12.87517593,-36.07378418,-30.9840683,49.26561223
29.66589017,-15.23621613,-41.31738007,-33.50946671,55.3367196
29.67589217,-14.06490189,-42.16117538,12.44601837,46.15505983
29.68589517,-10.94853241,-39.33744736,10.7004982,42.21144144
29.69589717,-8.509654083,-34.54591141,8.135432281,36.49684186
29.70590017,-9.668095093,-30.15958282,6.293811951,32.29062662
29.71590217,-11.07891129,-27.00594086,4.520299988,29.53804714
29.72590417,-11.86612427,-25.04531799,3.933220825,27.99183961
29.73590717,-11.26826752,-22.27218475,2.937790833,25.13274123
29.74590917,-9.199120331,-18.99055893,1.701960754,21.16983263
29.75591217,-6.203399963,-15.23846146,0.4129911804,16.45792941
29.76591417,-3.285068665,-11.31601822,-0.1655557251,11.78436902
29.77591717,-1.482367401,-7.780819702,0.05613327026,7.920967068
29.78591917,-0.6005511475,-4.860991516,0.4040098572,4.914582807
29.79592117,0.06810836792,-2.596799927,0.5191204834,2.649055433
29.80592417,0.5322930908,-1.112336884,0.5712121582,1.359011629
29.81592617,0.715512085,-0.2312690735,0.6719526672,1.00844599
29.82592917,0.6761439514,0.3014730835,0.662971344,0.9937744543
29.83593117,0.7209008789,1.482666779,0.4314028931,1.704144158
29.84593417,0.1595681763,28.59758102,-3.694167938,28.83563731
29.85593617,6.199657745,28.78948196,-1.330732727,29.47949928
29.86593817,5.888005829,8.566835175,0.7662565613,10.42335966
29.87594117,3.664080505,0.6873706055,2.354453888,4.409242272
29.88594317,3.587739258,-0.5745053101,2.537523193,4.431811513
29.89594617,3.21890625,-1.135089569,2.479593658,4.218787798
29.90594817,2.6011409,-1.923799438,2.889291687,4.337619706
29.91595117,2.542313232,-2.453847198,3.528462524,4.993472783
29.92595317,2.288590851,-2.864742737,4.001927948,5.4276907
29.93595517,1.83353714,-3.100951538,4.087998962,5.448806695
29.94595817,1.306183777,-3.169359283,3.976480865,5.250081371
29.95596017,0.7276368713,-2.960244141,3.744463348,4.828406213
29.96596317,0.2585124207,-2.419418793,3.232078857,4.045583976
29.97596517,0.4605921936,-1.463806,2.393672333,2.843332624
29.98596817,0.8692424011,-0.5086422729,1.508862305,1.814101642
29.99597017,0.9324110413,0.1811233521,0.8556207275,1.278390726
