Time (s),Acceleration x (m/s^2),Acceleration y (m/s^2),Acceleration z (m/s^2),Absolute acceleration (m/s^2)
15.00005954,-15.44113998,-5.625451813,7.790998535,18.18719798
15.01006154,-13.92464355,-4.409081268,6.332731018,15.91977317
15.02006454,-12.32536926,-3.24929306,5.240602112,13.78174675
15.03006754,-10.57371185,-2.307751007,4.50248703,11.72183802
15.04006954,-8.660091248,-1.413061523,3.962559814,9.627865992
15.05007254,-6.72910675,-0.6092330933,3.464695129,7.593165016
15.06007554,-5.086123352,-0.08352630615,3.047362976,5.929759565
15.07007754,-3.780688019,0.1914518738,2.638413391,4.614269275
15.08008054,-2.55428833,0.3402424622,2.024989014,3.277305953
15.09008354,-1.33267868,0.3059637451,1.071172485,1.736967695
15.10008554,-0.1314266968,0.05014572144,-0.2213896179,0.2622993193
15.11008854,1.219663696,-0.2254312134,-1.79371994,2.180786553
15.12009054,2.418221283,-0.4231700134,-3.386856995,4.183021317
15.13009354,3.202290802,-0.6650669861,-4.711602173,5.735518766
15.14009654,3.536246338,-0.9521699524,-5.673501892,6.752798642
15.15009854,3.599115601,-1.09871521,-6.214027863,7.264636983
15.16010154,3.392994232,-1.172062683,-6.294859772,7.246475028
15.17010454,2.915337524,-1.249451752,-5.963748322,6.754747708
15.18010654,2.198029175,-1.12910202,-5.253924408,5.806024915
15.19010954,1.426234131,-0.8930429077,-4.294719086,4.612621972
15.20011254,0.850531311,-0.6631210327,-3.489094391,3.651973807
15.21011454,0.2233355713,-0.4809498596,-2.786605225,2.836610693
15.22011754,-0.4011657715,-0.2707868958,-2.152074738,2.20582982
15.23012054,-1.050216064,0.03023712158,-1.486259308,1.820119445
15.24012254,-1.594035187,0.2607577515,-0.8798703003,1.839324476
15.25012554,-1.665436707,0.5150788879,-0.5394781494,1.824834885
15.26012854,-1.616787872,0.5517526245,-0.3013233948,1.734713167
15.27013054,-1.386117554,0.519868927,-0.08427474976,1.482797291
15.28013354,-0.8683442688,0.6023474121,0.1140628052,1.06294614
15.29013654,-0.2987786865,0.6161187744,0.3026705933,0.7486524799
15.30013854,0.2417472839,0.6012995911,0.5065466309,0.8225523915
15.31014154,0.7560777283,0.6173162842,0.7586224365,1.23622042
15.32014354,1.24960144,0.665665741,0.9166937256,1.686695594
15.33014654,1.68489624,0.7077282715,0.9416917419,2.055854563
15.34014954,1.927541656,0.6813830566,0.8539741516,2.215619904
15.35015154,1.994302826,0.5939648438,0.5945635986,2.164149688
15.36015454,1.943708038,0.5496569824,0.2354603577,2.033608939
15.37015754,1.91077652,0.5656736755,-0.219743042,2.004829324
15.38015954,1.759441223,0.4664300537,-0.5718109131,1.907919844
15.39016254,1.398841095,0.336051178,-0.7072792053,1.603100333
15.40016554,1.143023071,0.3406915283,-0.6249504089,1.34652719
15.41016754,0.872535553,0.3608995056,-0.4131408691,1.030656161
15.42017054,0.2685415649,0.314046936,-0.09026229858,0.422950745
15.43017354,-0.4818479919,0.4577481079,0.2279759216,0.7026263861
15.44017554,-1.669777679,0.6170169067,0.4483177185,1.835716792
15.45017854,-2.806364136,0.6607260132,0.8611592102,3.008958908
15.46018054,-3.853885803,0.5060975647,1.124910736,4.046479296
15.47018354,-6.357729034,-0.7388635254,1.255439301,6.522481554
15.48018654,-9.81,-2.958447876,1.596729584,10.37005589
15.49018854,-13.83018997,-5.448220367,2.168241119,15.02193494
15.50019154,-19.25071793,-8.557105408,2.999312897,21.27933438
15.51019454,-26.07622421,-12.24199265,4.257745972,29.11982579
15.52019654,-32.86879898,-14.5903093,5.655389557,36.40355069
15.53019954,-40.43601288,-15.38994644,7.50030304,43.91100243
15.54020254,-47.55475937,-15.8310791,10.15308655,51.13866806
15.55020454,-51.16076065,-15.66372711,12.28210922,54.89650248
15.56020754,-48.72831894,-14.22716446,13.30732727,52.47805479
15.57021054,-43.01365265,-14.64943634,14.23240356,47.61661066
15.58021254,-37.23896118,-16.75944855,16.60392197,44.08298504
15.59021554,-31.90570175,-17.56761795,20.1774408,41.63801294
15.60021754,-27.8852124,-16.95209793,23.18408844,40.03074633
15.61022054,-25.37223816,-15.8283847,24.20855804,38.47521948
15.62022354,-23.80499725,-14.12717239,23.2257019,36.13430673
15.63022554,-22.25392273,-12.1337677,20.75284424,32.75890626
15.64022854,-19.98284546,-10.07000931,17.1077742,28.16727069
15.65023154,-17.43274841,-7.583080902,13.05839493,23.06351039
15.66023354,-15.37348068,-5.021308136,9.22381897,18.6181707
15.67023654,-13.72046814,-2.431992645,6.036197662,15.18556935
15.68023954,-12.60798157,0.0636177063,3.374133453,13.05182068
15.69024154,-11.84367096,1.723216553,1.205592957,12.02894307
15.70024454,-11.00062408,2.394121399,-0.203127594,11.25996485
15.71024754,-9.832004242,2.515369263,-1.09991272,10.20809473
15.72024942,-8.253386993,2.563569031,-2.455344086,8.984375194
15.73025242,-6.00132019,2.873125305,-6.886728973,9.575893118
15.74025542,-4.330195312,2.605332184,-12.58717484,13.56375013
15.75025742,-6.022575989,1.424886932,-2.557880859,6.696602034
15.76026042,-3.199895782,0.8951385498,-0.569715271,3.37122849
15.77026242,0.02634521484,0.1655557251,-4.099375305,4.102801562
15.78026542,2.382894745,-0.9017248535,-6.270759888,6.768583651
15.79026842,3.774999847,-1.59837616,-6.751260681,7.89841446
15.80027042,6.051765289,-2.004631348,-8.565338287,10.67742618
15.81027342,6.790928192,-1.942809906,-8.665480042,11.17952416
15.82027642,6.044430542,-0.953966217,-9.16648819,11.02132922
15.83027842,8.151448975,-0.4698728943,-7.91793457,11.37367965
15.84028142,6.762637024,-0.2323168945,-6.264323273,9.221115807
15.85028442,5.223088531,-0.05403762817,-4.283941498,6.755422165
15.86028642,3.973786469,0.3595523071,-2.554737396,4.737820166
15.87028942,2.712808685,0.6509962463,-1.400487671,3.121617016
15.88029242,1.754052429,0.9006770325,-0.366587677,2.005568639
15.89029442,0.8635542297,1.195264435,0.6047424316,1.593767984
15.90029742,0.2844085693,1.488953705,1.45093277,2.098351084
15.91029942,-0.00853225708,1.719474335,1.922901306,2.579576365
15.92030242,0.2436932373,1.836830292,1.813329163,2.592584534
15.93030542,0.8978329468,1.590742035,1.250649261,2.213749714
15.94030742,1.629511414,1.177301788,0.3736230469,2.044734978
15.95031042,2.354304199,0.9638456726,-0.396076355,2.574611276
15.96031342,2.896327057,0.7845185852,-0.712817688,3.084199878
15.97031542,3.152743835,0.646355896,-0.6313870239,3.279667546
15.98031842,3.293151855,0.6065386963,-0.3463796997,3.36641014
15.99032142,3.238066406,0.6448590088,-0.016615448,3.301695514
16.00032342,2.966531067,0.8400531006,0.2290237427,3.091673925
16.01032642,2.234702911,1.234333191,0.400866394,2.584215431
16.02032942,1.358874207,1.187480621,0.4363426208,1.856621722
16.03033142,1.147064667,1.274749146,0.2847079468,1.738332922
16.04033442,1.303938446,1.957180023,0.1730401611,2.358124681
16.05033642,1.075064392,2.287842407,-0.2752775574,2.542786672
16.06033942,-0.0288899231,1.598675537,-0.8912466431,1.830551469
16.07034242,-0.8384065247,1.48251709,-1.319057007,2.154226963
16.08034442,-1.799408112,1.72935379,-1.456620941,2.88968487
16.09034742,-4.121229858,1.438508606,-1.168619843,4.518795735
16.10035042,-5.652096405,1.479972382,-0.5180726624,5.86556999
16.11035242,-6.28453125,2.499053192,-0.3433859253,6.771891448
16.12035542,-8.806486816,1.30932724,-0.4721182251,8.915797412
16.13035842,-11.9824324,-1.053359528,-0.01541793823,12.02865289
16.14036042,-15.59501999,-3.579805756,1.104104004,16.03866277
16.15036342,-21.24936172,-7.322772217,2.639161835,22.63014675
16.16036642,-27.97786972,-10.99179245,4.649780731,30.41711946
16.17036842,-35.52637253,-12.82038986,7.549101563,38.515899
16.18037142,-43.79383026,-12.21115677,12.31414261,47.10254799
16.19037342,-50.92425247,-10.76905563,18.16667221,55.12966559
16.20037642,-54.55540146,-9.311985626,22.44073425,59.72094656
16.21037942,-53.75142334,-9.175170135,23.12062042,59.22805371
16.22038142,-49.1694516,-11.36346954,21.92760132,55.02347781
16.23038442,-42.14875122,-13.29250809,21.48257675,49.13968971
16.24038742,-34.8565155,-13.4622551,21.96083221,43.34151747
16.25038942,-29.05832291,-12.39901611,22.43025604,38.74581418
16.26039242,-25.38301575,-10.7469017,21.61624878,35.02935335
16.27039542,-23.10595093,-8.817414093,19.19293808,31.30496177
16.28039742,-21.00926102,-6.793622589,15.66971466,27.07549287
16.29040042,-18.61334335,-4.969216461,11.75340866,22.56750492
16.30040342,-15.9824144,-3.095562744,8.193960571,18.22528651
16.31040542,-13.21317307,-1.116827545,5.196893005,14.24229417
16.32040842,-10.9287735,0.4429289246,2.885100403,11.31185575
16.33041042,-9.274713135,1.253044281,1.117575989,9.425465495
16.34041342,-7.689359894,1.316512299,-0.6743476868,7.830338755
16.35041642,-5.499713287,1.063987427,-2.781216431,6.254125064
16.36041842,-3.117566986,0.5138813782,-4.934788055,5.859644284
16.37042142,-0.7068301392,-0.2854563904,-6.415508881,6.460638389
16.38042442,1.759141846,-1.096170502,-7.416327667,7.700525039
16.39042642,4.378694458,-1.901046753,-8.007149048,9.322090956
16.40042942,6.673272858,-2.528242493,-8.032446442,10.7445231
16.41043242,8.326135712,-2.928959198,-7.590415649,11.64120903
16.42043442,9.064999237,-3.155288544,-7.048243103,11.90830751
16.43043742,8.891659698,-3.364403687,-6.279591522,11.39359882
16.44044042,7.937394104,-3.420237579,-5.17294281,10.07271501
16.45044242,6.469995575,-3.151845703,-3.635939026,8.063189609
16.46044542,5.072651367,-2.573448486,-2.437531128,6.188375151
16.47044742,3.686683502,-2.150877228,-1.609303436,4.561552986
16.48045042,2.253414001,-1.682650909,-0.8813671875,2.947201531
16.49045342,1.008901978,-1.093027039,-0.379460907,1.535116246
16.50045542,-0.03921844482,-0.6090834045,-0.07125183105,0.6144896285
16.51045842,-1.060245209,-0.1960922241,0.2764750671,1.113108497
16.52046142,-1.835632782,0.1332229614,0.7887098694,2.002338464
16.53046342,-2.327360229,0.3909869385,1.371448059,2.729532231
16.54046642,-2.411634979,0.6047424316,1.77381134,3.054194387
16.55046942,-2.187401276,0.7740403748,1.917662201,3.01019786
16.56047142,-2.021097107,0.8360115051,1.93293045,2.918898573
16.57047442,-1.878294067,0.8244854736,1.85808609,2.767715451
16.58047742,-1.592089233,0.9144483948,1.708097992,2.507700689
16.59047942,-1.317260742,1.133293304,1.491049347,2.28970691
16.60048242,-0.9120533752,1.327888641,0.9238787842,1.85706263
16.61048442,-0.442180481,1.397793274,0.1999841309,1.479642953
16.62048742,0.004640350342,1.492097168,-0.4284091187,1.552388439
16.63049042,0.567020874,1.614392853,-1.200353851,2.090125911
16.64049242,1.063987427,1.748963013,-2.035018158,2.886561929
16.65049542,1.504521332,1.903292084,-2.848726044,3.741837151
16.66049842,1.890119476,2.104623413,-3.436703339,4.451170765
16.67050042,1.970202942,2.330354004,-3.770658875,4.850785273
16.68050342,1.821412354,2.525847473,-3.962559814,5.039774668
16.69050642,1.525178375,2.692001953,-3.83083374,4.92425941
16.70050842,1.221909027,2.884950714,-3.423381042,4.640640048
16.71051142,0.6682104492,3.06322998,-3.074007568,4.390832
16.72051429,-0.5777984619,3.250340881,-2.658172302,4.238448643
16.73051629,-2.337389374,3.548221436,-1.800605621,4.614698803
16.74051929,-4.159550171,4.063450012,-0.460891571,5.833172779
16.75052129,-6.268364868,4.205953674,1.225800934,7.647550743
16.76052429,-9.233698425,3.812571716,3.073109436,10.45183674
16.77052729,-13.65475479,2.451152802,4.802912292,14.68088706
16.78052929,-20.39733353,-0.6786886597,6.859335938,21.5304975
16.79053229,-28.49324799,-4.508025513,8.599617004,30.10217413
16.80053529,-36.35519897,-7.483238525,9.693841553,38.36235023
16.81053729,-42.78672455,-8.029302979,11.21183487,44.95418496
16.82054029,-48.29706573,-5.857319641,14.35574707,50.72476935
16.83054329,-53.15401566,-3.92798172,17.22812393,56.01416495
16.84054529,-53.49231216,-4.244124298,17.76595551,56.5249434
16.85054829,-50.90988235,-7.143295441,17.80951492,54.40608066
16.86055029,-47.27469177,-11.9930603,19.20566162,52.41743427
16.87055329,-41.30839874,-15.82329529,21.87191711,49.34715026
16.88055629,-34.19878326,-16.79761917,24.1546701,45.11280167
16.89055829,-28.54504028,-16.1283609,24.34791824,40.83827216
16.90056129,-24.72184067,-14.45124847,22.34373596,36.32148848
16.91056429,-21.68345901,-12.21564743,18.50167557,31.01139203
16.92056629,-19.06989395,-9.869127045,13.39040451,25.30540371
16.93056929,-17.0467012,-7.332801361,8.487051086,20.40563731
16.94057229,-15.63813034,-4.863386536,4.377646637,16.9519155
16.95057429,-14.19677765,-2.610720978,0.7737409973,14.45555377
16.96057729,-12.19274506,-0.9638456726,-2.392025757,12.46249645
16.97057929,-9.600136414,-0.0288899231,-5.000202026,10.82430017
16.98058229,-6.609355774,0.3474275208,-6.878645782,9.545682659
16.99058529,-3.589984589,0.2300715637,-8.052055664,8.81909988
17.00058729,-0.7917036438,0.2157014465,-8.563991089,8.60321249
17.01059029,1.619781647,0.4650828552,-8.728948059,8.890136605
17.02059329,3.117716675,0.3147953796,-8.827592926,9.367264823
17.03059529,3.772006073,-0.7851173401,-8.71592514,9.529522029
17.04059829,4.423601074,-1.784738617,-9.238039398,10.39687022
17.05060129,4.576283569,-2.637664948,-9.189540253,10.59940082
17.06060329,5.177283783,-3.034789124,-9.514813843,11.24926197
17.07060629,5.947132874,-3.047512665,-10.31370255,12.28935243
17.08060929,6.512507172,-2.843037872,-10.84958817,12.96954808
17.09061129,6.55367157,-2.602787476,-10.69885162,12.81368564
17.10061429,6.082301788,-2.490970001,-9.75266922,11.76069231
17.11061629,4.904101868,-2.577190704,-8.02915329,9.754969483
17.12061929,3.888613586,-2.819536743,-6.397246857,7.999741897
17.13062229,3.335214386,-3.146606598,-4.929848328,6.732621526
17.14062429,3.035537567,-3.487896881,-3.304528198,5.683293023
17.15062729,2.689756622,-3.738326111,-1.396595764,4.812520392
17.16063029,2.576142883,-3.724105682,0.6295907593,4.571855183
17.17063229,2.588417358,-3.588936768,2.678080902,5.172280818
17.18063529,2.484683075,-3.308569794,4.4604245,6.084050524
17.19063829,2.153721313,-2.978506165,5.811514893,6.876315861
17.20064029,1.608405304,-2.47121109,6.661597137,7.284965909
17.21064329,1.060544586,-1.831591187,6.967261505,7.281635391
17.22064629,0.60025177,-1.231638794,6.690337372,6.829191054
17.23064829,0.01272354126,-0.6878196716,5.791606293,5.832320399
17.24065129,-0.5373825073,-0.004041595459,4.712500305,4.743042844
17.25065329,-1.115480347,0.6947053528,3.804638214,4.025193644
17.26065629,-1.600771179,1.229243774,2.862647095,3.502607174
17.27065929,-1.644480286,1.652413788,1.704355774,2.887839216
17.28066129,-1.452429657,1.976340179,0.5523513794,2.51407328
17.29066429,-1.292412415,2.180365906,-0.2703378296,2.549001348
17.30066729,-1.09991272,2.317331085,-0.9045689392,2.719940498
17.31066929,-0.9689350891,2.297871552,-1.619781647,2.97367474
17.32067229,-1.01563797,2.051932983,-2.271226959,3.224968427
17.33067529,-1.537901917,1.638492737,-2.792293396,3.584229787
17.34067729,-1.964963837,1.340163116,-3.583697662,4.301163679
17.35068029,-2.382745056,0.9948312378,-4.471800842,5.16373566
17.36068229,-2.449206848,0.6285429382,-5.202730865,5.784642501
17.37068529,-2.667602692,0.7759863281,-5.543422394,6.200628253
17.38068829,-3.830534363,1.037642212,-4.961582336,6.35350251
17.39069029,-5.928122406,0.7298822021,-3.414699097,6.880082355
17.40069329,-9.016799469,-0.7927514648,-1.165326691,9.126286969
17.41069629,-13.54323669,-2.599494324,1.288670197,13.85053435
17.42069829,-20.41694275,-5.0629216,3.790118408,21.37404323
17.43070129,-28.87914551,-8.868607635,7.026238861,31.01653235
17.44070429,-36.89003677,-11.81118851,9.900411987,39.97995929
17.45070629,-42.96290817,-12.64480499,12.34138596,46.45441184
17.46070929,-45.87210846,-11.80579971,14.4097847,49.51029324
17.47071229,-44.77039948,-10.21041733,15.03862701,48.3197847
17.48071429,-40.76113678,-9.306447144,14.93504242,44.39747428
17.49071729,-36.54934525,-9.852661285,16.34900208,41.23371728
17.50071929,-34.17408463,-12.16580109,19.48318451,41.17607624
17.51072229,-33.12222198,-14.10382095,23.21522369,42.83626928
17.52072529,-31.96707413,-14.14633255,25.93207397,43.52568223
17.53072729,-30.70789261,-13.05450302,26.47484528,42.59474322
17.54073029,-30.04387344,-11.91028244,25.10309784,40.92254489
17.55073329,-29.89268784,-11.02936432,22.15797226,38.80973329
17.56073529,-28.53965149,-9.880353699,17.21584946,34.76375366
17.57073829,-25.77325424,-8.035140839,11.84801193,29.4821897
17.58074129,-22.66481827,-5.81884964,7.506440277,24.57436965
17.59074329,-19.42660217,-3.545227661,3.874692535,20.12398453
17.60074629,-16.24137589,-1.561552734,1.168170776,16.35803657
17.61074829,-13.1556926,-0.01631607056,-0.3025209045,13.15918055
17.62075129,-10.03887405,0.9536668396,-0.8469387817,10.119574
17.63075429,-6.848258972,1.201401672,-1.141825562,7.045976337
17.64075629,-3.587589569,1.176553345,-1.578168182,4.092149985
17.65075929,-0.6228547668,1.282233582,-2.445314941,2.830483383
17.66076229,1.571581879,1.0683284,-3.190764771,3.713781764
17.67076429,3.172203369,0.6427633667,-3.551364899,4.805019418
17.68076729,4.313729553,0.4634362793,-3.798800354,5.766621192
17.69077029,5.038971405,0.4728666687,-3.827989655,6.34573404
17.70077229,5.014572144,0.123792572,-3.855233002,6.326458716
17.71077529,4.451293488,-0.5349874878,-4.16194519,6.117353439
17.72077733,3.583398285,-1.291364594,-4.671335907,6.027416108
17.73078033,3.03284317,-1.919308777,-5.537883911,6.59924557
17.74078333,3.102897491,-2.164498901,-6.903643799,7.872313893
17.75078533,3.255430298,-2.148781586,-8.309819641,9.179770759
17.76078833,3.172203369,-1.967658234,-9.163793793,9.894931522
17.77079133,2.782713318,-1.63699585,-9.128766632,9.68285232
17.78079333,2.058668976,-1.215322723,-8.119714966,8.464330948
17.79079633,0.750838623,-1.331780548,-6.656807098,6.830115578
17.80079933,-0.5565426636,-1.872306519,-5.202132111,5.556748144
17.81080133,-1.479373627,-2.413580933,-3.732039185,4.684232672
17.82080433,-2.229463806,-2.504891052,-1.791324921,3.801819698
17.83080733,-2.28874054,-2.091450806,0.5602848816,3.150621983
17.84080933,-1.842668152,-1.422342224,2.856809235,3.685083761
17.85081233,-1.201102295,-0.8726852417,4.803361359,5.027574624
17.86081433,-0.5840853882,-0.5409750366,6.122268677,6.173814338
17.87081733,0.17902771,-0.1567240906,6.668033752,6.672277534
17.88082033,0.9294172668,0.1932481384,6.460116119,6.529491678
17.89082233,1.517993317,0.3264710999,5.560337219,5.773061327
17.90082533,1.739832001,0.2874023438,4.140689392,4.500547093
17.91082833,1.724264374,0.4043092346,2.687511292,3.218582068
17.92083033,1.623523865,0.742306366,1.239272919,2.173164938
17.93083333,1.531914368,1.171912994,-0.3490740967,1.960100615
17.94083633,1.504072266,1.617985382,-1.918111267,2.925621457
17.95083833,1.597478027,2.168839874,-3.368744659,4.313263617
17.96084133,1.759291534,2.541864166,-4.470004578,5.434806442
17.97084333,1.968556366,2.949915619,-5.119653625,6.22800687
17.98084633,2.373015289,3.546874237,-5.199737091,6.726721656
17.99084933,2.434687042,3.820804596,-4.505630493,6.389597397
18.00085133,1.961970062,3.838018799,-3.155587921,5.342045484
18.01085433,1.433568878,3.797303467,-1.474583588,4.318452281
18.02085733,0.5897735596,3.521277466,0.06586303711,3.570933461
18.03085933,-0.5489085388,3.410358124,1.086740112,3.621166551
18.04086233,-2.124981079,3.832630005,2.008822632,4.82078476
18.05086533,-4.406237183,4.932842102,3.041375427,7.279960289
18.06086733,-8.352630615,5.39523056,4.030668182,10.72945651
18.07087033,-14.12298111,4.792434082,4.901257782,15.69867344
18.08087233,-22.27847168,1.859582977,6.235283661,23.20920317
18.09087533,-30.63529358,-3.063379669,8.275690613,31.8809122
18.10087833,-37.39673309,-6.258934479,10.73268127,39.40660293
18.11088033,-43.0368544,-4.452640686,13.76672195,45.40395885
18.12088333,-49.4056604,-0.6185137939,18.10320419,52.62155301
18.13088633,-56.75402939,1.178798676,21.79467773,60.80639272
18.14088833,-59.20398468,0.5653742981,21.25594803,62.90665129
18.15089133,-53.95140747,-3.194207611,17.24908035,56.73172043
18.16089433,-45.36451401,-9.14657959,14.60153595,48.52632174
18.17089633,-36.29891602,-13.71807312,14.66230957,41.48228726
18.18089933,-30.10719177,-15.68633011,16.7905838,37.87383864
18.19090133,-25.90602814,-14.77652206,18.57592117,35.13591817
18.20090433,-23.48481308,-13.78543304,18.58999191,32.97214596
18.21090733,-21.72252777,-12.75407776,15.4980217,29.57572296
18.22090933,-19.71101074,-11.53770721,11.01813766,25.35827261
18.23091233,-18.02297104,-9.923014984,6.838229828,21.68075411
18.24091533,-16.34166733,-8.034242706,3.084934845,18.46932511
18.25091733,-14.60692474,-5.829776917,0.4851411438,15.73479937
18.26092033,-12.92861481,-3.442690887,-1.192719727,13.43219199
18.27092333,-11.39774826,-1.106199646,-2.238594818,11.6680611
18.28092533,-9.876012726,0.7451504517,-2.613115997,10.2430099
18.29092833,-7.982899475,1.878743134,-2.627186737,8.611531219
18.30093033,-5.80717392,2.537523193,-2.544857941,6.829245553
18.31093333,-3.629951477,2.664908295,-2.483036499,5.142349094
18.32093633,-1.70480484,2.424807587,-2.476450195,3.862493617
18.33093833,-0.06780899048,1.897154846,-2.579585724,3.202820175
18.34094133,1.803898773,1.347797241,-3.016227722,3.764071978
18.35094433,3.689527588,0.6685098267,-3.954776001,5.449749758
18.36094633,5.052742767,-0.3201841736,-5.03133728,7.13772248
18.37094933,6.196663971,-1.120120697,-5.941444702,8.657602433
18.38095233,7.165299683,-1.527723083,-6.660699005,9.901533649
18.39095433,7.805368652,-1.752256165,-7.202871552,10.76455016
18.40095733,7.7529776,-1.827250214,-7.257208557,10.77564759
18.41095933,6.906338196,-1.776954803,-6.340514832,9.542389846
18.42096233,5.353916473,-1.527423706,-4.354594574,7.068234482
18.43096533,3.589685211,-1.035097504,-2.425406342,4.454196076
18.44096733,1.805545349,-0.4620890808,-0.9708810425,2.101459094
18.45097033,0.02469863892,-0.09175918579,0.4128414917,0.4236364812
18.46097333,-1.612446899,0.3996688843,1.609153748,2.312811277
18.47097533,-2.645748138,1.117276611,2.570155334,3.85408727
18.48097833,-3.198548584,1.714684296,3.229683838,4.858159422
18.49098133,-3.187920685,2.171983337,3.254681854,5.047108468
18.50098333,-2.961890717,2.328857117,2.794389038,4.690946832
18.51098633,-2.482587433,2.240391083,2.091750183,3.944364511
18.52098833,-1.602118378,2.063459015,1.32803833,2.930585643
18.53099133,-0.8866062927,1.698368225,0.8011340332,2.076617703
18.54099433,-0.2833607483,1.43102417,0.7774832153,1.653058873
18.55099633,0.2341131592,1.267713776,1.092278595,1.689668523
18.56099933,0.539178772,1.103505249,1.336420898,1.815064297
18.57100233,0.5516029358,1.018182678,1.657652893,2.022071927
18.58100433,0.1318757629,0.9707313538,2.023941193,2.248565883
18.59100733,-0.2453398132,1.040635986,2.071392517,2.33104737
18.60101033,-0.3585044861,1.150058441,1.69896698,2.082702255
18.61101233,-0.3594026184,1.167122955,1.048120422,1.60931745
18.62101533,-0.4514611816,1.213227081,0.3164419556,1.332618723
18.63101733,-0.4960684204,1.371148682,-0.2498304749,1.479374142
18.64102033,-0.4135899353,1.455423431,-0.650098114,1.646797364
18.65102333,-0.172591095,1.349593506,-1.05306015,1.72050167
18.66102533,0.1152603149,1.137035522,-1.331032104,1.754360619
18.67102833,0.1133143616,0.9758207703,-1.317709808,1.643601369
18.68103133,-0.2588117981,0.9098080444,-1.101559296,1.45195286
18.69103333,-1.256786499,0.9357041931,-0.7785310364,1.749618592
18.70103633,-2.877915344,0.9813592529,-0.3273692322,3.058207535
18.71103833,-4.192182312,1.494791565,0.1113684082,4.452100323
18.72104129,-5.797444153,1.956581268,0.3820056152,6.130619647
18.73104429,-8.835825806,1.125958557,0.8171507263,8.944681976
18.74104629,-12.95451096,-0.3975732422,1.864223328,13.09399661
18.75104929,-18.69567215,-2.058818665,3.284320221,19.09328811
18.76105229,-26.18729324,-4.541256409,4.982538757,27.04113588
18.77105429,-33.85315201,-7.810607758,7.075187073,35.45560275
18.78105729,-39.56677048,-9.643546143,8.11806839,41.52626088
18.79106029,-42.76112778,-8.809779968,9.312135315,44.64126047
18.80106229,-44.58942581,-6.981631622,11.81852325,46.65444852
18.81106529,-46.07837952,-6.237978058,14.45978073,48.69511975
18.82106729,-46.90795441,-6.705455933,16.77441742,50.26629493
18.83107029,-47.06782196,-8.765621796,19.49321365,51.69333969
18.84107329,-45.16183548,-10.8769812,21.86697739,51.34262171
18.85107529,-40.95887558,-11.22650436,22.82124298,48.21278897
18.86107829,-35.79207001,-10.11611343,22.06651245,43.24741609
18.87108129,-30.35387878,-8.86576355,19.68526428,37.24874965
18.88108329,-25.26476166,-7.57978775,15.9996286,30.85043726
18.89108629,-20.9378595,-6.061345367,12.11550568,24.9383108
18.90108929,-17.3493718,-4.13859375,9.064849548,20.00750252
18.91109129,-14.4349324,-2.133363647,7.044051819,16.2029991
18.92109429,-12.23091568,-0.3149450684,5.983507233,13.61972274
18.93109629,-10.33855087,1.252744904,5.296136627,11.6834955
18.94109929,-8.322243805,2.234702911,4.186643829,9.580272731
18.95110229,-6.045178986,2.727178802,2.976410522,7.269161766
18.96110429,-3.669768677,2.728076935,1.769021301,4.902962601
18.97110729,-1.21457428,2.357447662,0.713865509,2.746334671
18.98111029,0.8497828674,1.515149231,-0.07065307617,1.738620134
18.99111229,2.416874084,0.3252735901,-1.060843964,2.659412184
19.00111529,3.987557831,-0.6054908752,-2.69349884,4.849966253
19.01111829,5.434598694,-1.2952565,-4.637655945,7.260881835
19.02112029,6.275998993,-1.85808609,-6.25878479,9.05610481
19.03112329,6.483018494,-2.267185364,-7.097041626,9.876115537
19.04112529,6.074068909,-2.422562256,-7.026837616,9.598935768
19.05112829,5.400918732,-2.272574158,-6.608457642,8.832113498
19.06113129,4.646038513,-1.909429321,-6.033652954,7.850895628
19.07113329,3.903133392,-1.48251709,-5.397326202,6.823740714
19.08113629,3.002905426,-1.150657196,-4.676425323,5.675421287
19.09113929,1.951342163,-0.7785310364,-3.84610199,4.382504687
19.10114129,1.186732178,-0.3414399719,-2.906805267,3.158232319
19.11114429,0.9151968384,0.0845741272,-2.113305359,2.304516777
19.12114629,0.8265811157,0.3124003601,-1.547182617,1.78174195
19.13114929,0.739611969,0.3616479492,-1.014141083,1.30625313
19.14115229,0.6032455444,0.3390449524,-0.3394940186,0.770787166
19.15115429,0.6213578796,0.3662882996,0.3426374817,0.7985318884
19.16115729,0.7315287781,0.2243833923,0.920735321,1.197178262
19.17116029,0.9589059448,0.02799179077,1.308578796,1.622548187
19.18116229,1.28118576,-0.04745132446,1.616787872,2.063417458
19.19116529,1.578916626,-0.1011895752,1.720671844,2.337504789
19.20116829,2.034419403,-0.1046324158,1.399888916,2.471740121
19.21117029,2.270179138,-0.0672102356,0.6785389709,2.370368256
19.22117329,2.051932983,-0.007783813477,-0.007933502197,2.051963084
19.23117629,1.771715698,0.185464325,-0.4291575623,1.832361794
19.24117829,1.479822693,0.4760101318,-0.7075785828,1.707960274
19.25118129,0.9485774231,0.5221142578,-1.038540344,1.500322789
19.26118329,0.5857319641,0.4308041382,-1.421294403,1.596481105
19.27118629,0.444276123,0.5542973328,-1.827399902,1.960616538
19.28118929,0.3418890381,0.7212002563,-2.238594818,2.376620433
19.29119129,0.170944519,0.8352630615,-2.753524017,2.882495607
19.30119429,-0.4797523499,1.076261902,-3.307222595,3.510872156
19.31119729,-1.472637634,1.028960266,-3.684138794,4.09881684
19.32119929,-2.483934631,0.7450007629,-3.771856384,4.577319955
19.33120229,-3.423830109,0.5369334412,-3.456312561,4.894589529
19.34120429,-4.049379272,0.5315446472,-2.704875183,4.898608166
19.35120729,-4.262985077,0.4134402466,-1.867067413,4.672249493
19.36121029,-4.694238281,-0.04715194702,-1.102607117,4.822223429
19.37121229,-6.037544861,-1.313069458,0.1511856079,6.180530433
19.38121529,-8.85992569,-2.996917877,2.230960693,9.615455559
19.39121829,-13.60595627,-4.543202362,4.805606689,15.12800679
19.40122029,-20.0964592,-6.871311035,8.125852203,22.7400981
19.41122329,-27.91140793,-9.653275909,12.26489502,31.97905687
19.42122629,-36.2182338,-11.31646729,16.61919022,41.42487628
19.43122829,-43.20375732,-11.45747406,20.01966888,48.97576442
19.44123129,-46.87038254,-10.48075516,21.68585403,52.69682394
19.45123329,-46.95091507,-8.486003265,21.65382065,52.39550196
19.46123629,-44.37267654,-7.58562561,20.72934311,49.55988101
19.47123929,-40.39335159,-8.65634903,20.31515442,46.03542908
19.48124129,-36.70966187,-10.29109955,22.24958176,44.14238204
19.49124429,-33.56739624,-10.78507233,26.02503067,43.82225572
19.50124729,-31.49929688,-10.50575317,29.3609935,44.3243104
19.51124929,-29.90346542,-10.2213446,30.15479279,43.68071265
19.52125229,-27.87982361,-9.774673462,27.16910156,40.13712602
19.53125529,-25.40711563,-9.071884918,21.4168634,34.44564789
19.54125729,-22.63742523,-7.855214996,15.08817398,28.31625713
19.55126029,-20.11352371,-5.950426025,9.678423615,23.1005041
19.56126229,-17.8616066,-4.043990479,5.958209839,19.25853353
19.57126529,-15.68677917,-2.66430954,3.52546875,16.29731622
19.58126829,-13.0494136,-1.730700989,1.872007141,13.2961247
19.59127029,-10.16685791,-0.8958869934,0.8562194824,10.2421055
19.60127329,-7.410340118,-0.2929408264,0.4363426208,7.428953485
19.61127629,-4.93194397,-0.1231938171,0.4249662781,4.951751647
19.62127829,-2.662662964,-0.06406677246,0.3773652649,2.690034043
19.63128129,-0.505947876,0.2026785278,0.05822891235,0.5481354259
19.64128329,0.9828561401,0.5545967102,-0.6435118103,1.299111678
19.65128629,1.797911224,0.7039860535,-1.372645569,2.369016039
19.66128929,2.061363373,0.4873864746,-2.063608704,2.95723611
19.67129129,2.049238586,-0.05553451538,-2.670895844,3.366919582
19.68129429,2.544408875,-0.5977070618,-3.585493927,4.437007658
19.69129729,3.403173065,-1.028960266,-5.087919617,6.207034088
19.70129929,4.120481415,-1.479972382,-6.652466125,7.963918062
19.71130229,4.940775604,-1.730700989,-7.799231415,9.393327427
19.72130542,5.732928314,-1.823807373,-8.430169373,10.35666433
19.73130742,5.861810303,-1.912273407,-8.3661026,10.39275143
19.74131042,5.291346588,-1.914069672,-7.459737396,9.343965617
19.75131242,4.501588898,-1.807640991,-5.723198547,7.502457609
19.76131542,3.655697937,-1.781146088,-3.769012299,5.544552507
19.77131842,2.568059692,-1.800156555,-1.640139313,3.539145543
19.78132042,1.361867981,-1.667532349,0.5652246094,2.225944157
19.79132342,0.3421884155,-1.419947205,2.701282654,3.070874623
19.80132642,-0.5373825073,-1.187031555,4.369713135,4.559848326
19.81132842,-1.055604858,-0.8812174988,5.345234528,5.519273326
19.82133142,-1.288520508,-0.563278656,5.591023407,5.765163543
19.83133442,-1.60541153,-0.2662962341,5.592071228,5.824046745
19.84133642,-1.558708649,0.1326242065,5.282215576,5.508989311
19.85133942,-1.086291046,0.2839595032,4.287833405,4.432400765
19.86134142,-0.3888912964,0.3561094666,2.943628693,2.990484956
19.87134442,-0.06661148071,0.4203259277,1.752854919,1.803776966
19.88134742,-0.04415817261,0.537532196,0.7723937988,0.9420631542
19.89134942,0.2007325745,0.7303312683,-0.1221459961,0.7672007379
19.90135242,0.6379733276,0.9580078125,-1.043929138,1.553890917
19.91135542,1.006506958,1.066083069,-1.868863678,2.375340147
19.92135742,1.456920319,1.157393188,-2.571203156,3.173840178
19.93136042,2.107168121,1.339264984,-3.218756561,4.073595708
19.94136242,2.656675415,1.578168182,-3.664978638,4.793809288
19.95136542,2.801574097,1.860780487,-3.899690552,5.149651235
19.96136842,2.643652496,2.208208008,-3.960164795,5.248617564
19.97137042,2.061962128,2.495909729,-3.730991364,4.93979248
19.98137342,1.117875366,2.783461761,-3.183430023,4.373960611
19.99137642,-0.1878593445,3.066523132,-2.469564514,3.941776775
