Time (s),Acceleration x (m/s^2),Acceleration y (m/s^2),Acceleration z (m/s^2),Absolute acceleration (m/s^2)
10.00601587,-14.06520126,0.5254074097,3.413052521,14.48291639
10.01601788,-12.80721725,1.901795197,3.295995941,13.36058487
10.02602087,-11.46016846,3.581751709,4.442461853,12.8023386
10.03602287,-10.40621017,4.489464111,5.846991119,12.75271749
10.04602587,-9.571096802,4.713248749,6.838529205,12.67225668
10.05602787,-8.798403625,4.466112671,7.207811279,12.21927216
10.06603088,-8.117020569,3.7875737,7.207960968,11.49723614
10.07603287,-7.579638062,2.893183594,6.990463257,10.70924839
10.08603587,-6.948400726,2.046843567,6.694528656,9.863394708
10.09603788,-6.322851562,1.38192627,6.4776297,9.156847636
10.10604087,-5.52396286,1.045276337,6.209088135,8.376129402
10.11604288,-4.866080933,0.9246272278,5.754184113,7.592385261
10.12604587,-4.205354919,1.082997894,5.351671143,6.891899481
10.13604887,-3.62381424,1.462309113,5.276677094,6.566102248
10.14605088,-3.370840302,1.963167572,4.956941986,6.30776229
10.15605387,-3.425326996,2.378104706,4.24502243,5.950501026
10.16605588,-3.869603119,2.621648254,3.550766144,5.86982181
10.17605887,-4.214336243,2.753973083,3.400478668,6.075216283
10.18606087,-4.354744263,2.908751221,3.518882446,6.309291951
10.19606387,-4.354893951,3.022065582,3.435505829,6.316698664
10.20606587,-4.224664764,3.052153015,3.359613647,6.200841415
10.21606888,-4.035757599,2.943329315,3.276985474,5.974040563
10.22607087,-3.849095764,2.753823395,3.350632324,5.798777325
10.23607387,-3.796405334,2.469265137,3.53130661,5.742829455
10.24607588,-3.89400238,2.176024933,3.810326385,5.866594089
10.25607887,-3.927083588,2.002535706,4.140689392,6.047928852
10.26608088,-3.92678421,1.997446289,4.533322906,6.321427251
10.27608387,-3.960913239,2.132615204,4.785548401,6.567979506
10.28608587,-4.081412659,2.264940033,5.062023468,6.885634628
10.29608888,-4.244124298,2.399510193,5.446124725,7.309617962
10.30609087,-4.433929596,2.479294281,5.817951508,7.723677333
10.31609388,-4.695884857,2.541265411,6.148613892,8.143391018
10.32609646,-5.041665802,2.664758606,6.597979431,8.720817912
10.33609946,-5.506149902,2.844684448,7.04854248,9.385726794
10.34610146,-6.006259918,3.041674805,7.331454163,9.953751251
10.35610446,-6.801556091,2.996768188,7.47680191,10.54250215
10.36610646,-8.055797882,2.315534821,7.492369537,11.24247225
10.37610946,-9.549242249,1.369352417,8.085885315,12.58748167
10.38611146,-10.39378601,0.9087602234,8.643326111,13.54856889
10.39611446,-9.586065674,1.230291595,9.304351501,13.41555923
10.40611646,-8.307125244,2.229912872,9.688602448,12.95568827
10.41611946,-8.290809174,3.209924927,9.20391037,12.79660505
10.42612146,-8.54048996,4.061504059,8.941356354,13.01474692
10.43612446,-8.721014557,4.725672913,9.109905853,13.46768221
10.44612646,-9.203311615,4.759652252,9.231153717,13.8769389
10.45612946,-9.597442017,3.444187775,9.167086945,13.71163031
10.46613146,-10.03588028,1.447040863,8.687035217,13.35205606
10.47613446,-10.68014053,-0.106129303,8.161178741,13.44178201
10.48613646,-11.31541946,-0.8005352783,7.797884216,13.76541219
10.49613946,-11.82900146,-0.287252655,7.690407715,14.11205728
10.50614246,-12.9459787,1.209035797,6.939269714,14.73816801
10.51614446,-14.2996138,3.333717499,6.431525574,16.02988298
10.52614746,-15.82988159,4.705614624,4.957540741,17.24253956
10.53614946,-16.26472733,5.292394409,4.414320374,17.66456956
10.54615246,-15.76312042,5.266049194,4.134851532,17.12612731
10.55615446,-14.22057816,4.482877808,4.421206055,15.55210917
10.56615746,-11.60880936,3.57696167,6.296955414,13.6824982
10.57615946,-9.861193542,2.588567047,6.917115784,12.32032095
10.58616246,-8.747060394,1.740281067,6.839876404,11.23937511
10.59616446,-7.690856781,1.194515991,6.616241455,10.21522381
10.60616746,-6.9912117,0.7485932922,6.579118652,9.629238558
10.61616946,-6.393654327,0.5159770203,6.340814209,9.019477411
10.62617246,-5.893244934,0.4227209473,6.18394043,8.552785984
10.63617446,-5.475463715,0.3775149536,5.967640228,8.107770984
10.64617746,-5.047204285,0.4192781067,5.622907104,7.567506163
10.65617946,-4.819677429,0.3423381042,5.270539856,7.150180157
10.66618246,-4.737797699,0.173638916,4.971162415,6.869449269
10.67618446,-4.660857697,-0.01721420288,4.672084351,6.599413836
10.68618746,-4.592749329,-0.0505947876,4.282145233,6.279544094
10.69618946,-4.598587189,-0.01841171265,4.109554138,6.167315327
10.70619246,-4.642296295,0.04864883423,3.937412109,6.087404679
10.71619446,-4.658462677,0.1481918335,3.443439331,5.794869262
10.72619746,-4.68615509,0.2891986084,3.216660919,5.691273393
10.73619946,-4.680616608,0.3995191956,3.163371735,5.66345373
10.74620246,-4.667444,0.4372407532,3.147055664,5.646252945
10.75620446,-4.676425323,0.4567002869,3.228486328,5.700934391
10.76620746,-4.680017853,0.5138813782,3.457959137,5.841585621
10.77620946,-4.710105286,0.5619314575,3.741619263,6.041570447
10.78621246,-4.781057739,0.5848338318,4.076323242,6.310067741
10.79621446,-4.89212677,0.5888754272,4.382586365,6.594447805
10.80621746,-5.010530548,0.6176156616,4.796325989,6.963591636
10.81621946,-5.173990631,0.6518943787,5.227130127,7.383632893
10.82622246,-5.28640686,0.6689588928,5.73921524,7.831487411
10.83622546,-5.367987213,0.6821315002,6.270310822,8.282354007
10.84622746,-5.400170288,0.7213499451,6.728807373,8.657888516
10.85623046,-5.431305542,0.7918533325,7.20182373,9.054964198
10.86623246,-5.637277222,0.8556207275,7.650889893,9.541860272
10.87623546,-5.977369995,0.8988807678,8.041577454,10.06001524
10.88623746,-6.450536041,0.9840536499,8.328830109,10.58050981
10.89624046,-6.992858276,1.0776091,8.352929993,10.9468145
10.90624246,-7.634573822,1.333127747,8.279432831,11.34076519
10.91624546,-8.286617889,1.96107193,8.395291901,11.95804187
10.92624746,-8.639434204,2.723137207,8.41175766,12.36175419
10.93625046,-8.720565491,3.263064423,7.984396362,12.26566089
10.94625246,-8.618028717,3.337609406,7.6242453,11.98078344
10.95625546,-8.696764984,2.7789711,7.766898651,11.98670581
10.96625746,-8.867859192,1.855391693,7.753875732,11.92493161
10.97626046,-8.655600586,1.328337708,8.101902008,11.9299924
10.98626246,-8.014184418,1.515149231,8.784931641,11.98740393
10.99626546,-7.775730286,2.105521545,9.384434967,12.36781396
11.00626746,-8.186925201,3.040327606,9.40284668,12.83288206
11.01627046,-8.677455139,4.227658539,8.928782501,13.14893461
11.02627246,-9.174122314,5.530848541,8.332422638,13.57144329
11.03627546,-9.673034821,6.785988464,7.473508759,13.98107919
11.04627746,-10.04845413,7.230863342,6.319558411,13.89941127
11.05628046,-10.51668045,6.086343384,4.436623993,12.9355238
11.06628246,-11.89471481,4.141886902,4.037254486,13.22644666
11.07628546,-13.69756577,2.516267395,4.245172119,14.55940919
11.08628746,-15.03997421,1.24960144,4.357738037,15.70834838
11.09629046,-15.76925766,0.6969506836,4.768633575,16.48924175
11.10629346,-14.95540009,1.129401398,4.683460693,15.71223546
11.11629546,-12.72863068,2.825973358,5.193150787,14.03470625
11.12629846,-10.91590027,4.442910919,5.718857574,13.09968198
11.13630046,-9.64848587,4.848267975,6.714736633,12.71560734
11.14630346,-8.546926575,4.663552094,7.237599335,12.13183894
11.15630546,-7.606132965,4.116739197,7.038363647,11.15075617
11.16630846,-6.803052979,3.360811157,6.51849472,10.00336718
11.17631046,-6.122867432,2.571053467,6.084247742,9.00654718
11.18631346,-5.471721497,1.798360291,5.822142792,8.189699784
11.19631546,-4.789440308,1.30693222,5.5579422,7.452350756
11.20631846,-4.180506592,1.04258194,5.220693512,6.768992038
11.21632046,-3.633693695,1.075663147,4.957540741,6.240031352
11.22632346,-3.256927185,1.267564087,4.768932953,5.912445764
11.23632546,-3.196752319,1.588796082,4.251758423,5.551661739
11.24632846,-3.48924408,1.95283905,4.017345886,5.668110141
11.25633046,-4.005370789,2.144440613,3.649111633,5.827318115
11.26633346,-4.372108154,2.349663849,3.35811676,5.992762142
11.27633546,-4.465513916,2.527793427,3.403472443,6.15744905
11.28633846,-4.37734726,2.659519501,3.445534973,6.172999616
11.29634146,-4.286935272,2.705174561,3.325933685,6.062806142
11.30634346,-4.203259277,2.588866425,3.326682129,5.952850738
11.31634646,-4.217928772,2.435585175,3.548221436,6.026016398
11.32634775,-4.324806519,2.296524353,3.877237244,6.245874172
11.33635075,-4.30355072,2.170636139,4.068689117,6.307649418
11.34635275,-4.30714325,2.123484192,4.254153442,6.415488259
11.35635575,-4.374802551,2.103425903,4.544699249,6.649630754
11.36635775,-4.496948547,2.192341003,4.976700897,7.05666048
11.37636075,-4.647984467,2.345472565,5.288203125,7.420922681
11.38636275,-4.874762878,2.429597626,5.627996521,7.832024169
11.39636575,-5.179229736,2.54261261,6.03410202,8.348633825
11.40636775,-5.511239319,2.718796234,6.422693939,8.88912871
11.41637075,-5.875282288,2.958896942,6.753805389,9.428037988
11.42637275,-6.249204712,3.141966248,6.962172089,9.868958994
11.43637575,-6.743776245,3.061733093,6.948101349,10.15523707
11.44637775,-7.566764832,2.549348602,6.875951385,10.53725846
11.45638075,-8.692274323,1.666634216,7.025340729,11.29994314
11.46638275,-9.493707733,1.023122406,7.748636627,12.29709866
11.47638575,-9.422455902,0.9991722107,8.506959686,12.73378904
11.48638875,-8.474028168,1.560205536,9.096583557,12.529614
11.49639075,-7.795189819,2.448757782,8.99329834,12.15075364
11.50639375,-7.893684998,3.277733917,8.51234848,12.06291338
11.51639575,-8.150251465,3.94205246,8.404572601,12.35326747
11.52639875,-8.614735565,4.425097961,8.817414093,13.09740249
11.53640075,-9.314680023,3.998634796,9.269174652,13.73571778
11.54640375,-9.822723541,2.456840973,9.220974884,13.69482907
11.55640575,-10.25487488,0.7173083496,8.89734787,13.59557977
11.56640875,-10.95751373,-0.7253915405,8.578211517,13.93481299
11.57641075,-11.33532806,-1.260678406,8.539591827,14.24793322
11.58641375,-11.50312912,-0.5387297058,8.261170807,14.17247869
11.59641575,-12.16939362,1.317709808,7.261848907,14.23253139
11.60641875,-13.69502106,3.282673645,5.812263336,15.23522081
11.61642175,-15.03234009,4.75755661,4.976850586,16.53404473
11.62642375,-15.21406219,5.691763916,4.661905518,16.89962213
11.63642675,-14.83999008,5.475463715,3.472329254,16.19453855
11.64642875,-13.57467133,4.689448242,4.02153717,14.91426792
11.65643175,-11.47438889,3.812272339,5.998925171,13.49748584
11.66643375,-9.82871109,2.861898651,6.708000641,12.23892553
11.67643675,-8.88567215,2.12019104,6.786138153,11.37989678
11.68643875,-7.825127563,1.651515656,6.693630524,10.4290371
11.69644175,-7.166197815,1.066382446,6.582411804,9.78875415
11.70644375,-6.790479126,0.7120692444,6.590644684,9.489691603
11.71644675,-6.390361176,0.6789880371,6.425388336,9.087538499
11.72644875,-6.049519958,0.7740403748,6.052364044,8.592260515
11.73645175,-5.785469055,0.808768158,5.683980103,8.150667944
11.74645375,-5.504802704,0.7842192078,5.324278107,7.698427757
11.75645675,-5.326972504,0.6735992432,5.082680511,7.393511559
11.76645975,-5.216951294,0.4068539429,4.833299103,7.123404464
11.77646175,-5.057532806,0.1679507446,4.593946838,6.834558734
11.78646475,-4.875361633,0.0904119873,4.335584106,6.524922599
11.79646675,-4.760550385,0.05553451538,4.276756439,6.399732001
11.80646975,-4.716392212,0.008981323242,3.846551056,6.08608176
11.81647175,-4.686753845,0.04685256958,3.494183807,5.846124977
11.82647475,-4.614005127,0.1643582153,3.351231079,5.704980866
11.83647675,-4.619693298,0.2839595032,3.418441315,5.753949964
11.84647975,-4.607119446,0.3945794678,3.468886414,5.780520348
11.85648175,-4.578977966,0.5023553467,3.562741241,5.823446167
11.86648475,-4.617298279,0.5704637146,3.760030975,5.981864691
11.87648675,-4.691693573,0.6207591248,3.985162811,6.186990634
11.88648975,-4.781207428,0.7200027466,4.232448578,6.425882771
11.89649275,-4.909939728,0.7863148499,4.585264893,6.763908139
11.90649475,-5.064418488,0.7794291687,4.95185257,7.125776331
11.91649775,-5.19404892,0.7478448486,5.333109741,7.481943304
11.92649975,-5.277425537,0.7171586609,5.754932556,7.841223474
11.93650275,-5.296436005,0.7117698669,6.222111053,8.202043444
11.94650475,-5.348078613,0.7066804504,6.656956787,8.568337982
11.95650775,-5.443879395,0.7117698669,7.095095673,8.971221868
11.96650975,-5.630840607,0.672102356,7.44297226,9.35713223
11.97651275,-5.980663147,0.6945556641,7.761809235,9.823259227
11.98651475,-6.466253357,0.7707472229,8.101303253,10.39411363
11.99651775,-7.029382324,0.9231303406,8.376281433,10.97389977
12.00651975,-7.752678223,1.284029846,8.654552765,11.68991171
12.01652275,-8.469986572,1.889820099,8.741372223,12.31761669
12.02652575,-8.790021057,2.453847198,8.45037735,12.43763296
12.03652775,-8.853489075,2.882705383,7.948920135,12.24253203
12.04653075,-8.874146118,2.96847702,7.567662964,12.03461042
12.05653275,-8.732690277,2.579286346,7.609575806,11.8666862
12.06653575,-8.550070038,2.15297287,8.220455475,12.05466209
12.07653775,-8.577014008,2.094145203,9.068741455,12.65672489
12.08654075,-8.945996704,2.499951324,9.989327087,13.64064769
12.09654275,-9.573192444,3.442840576,10.73432785,14.7893529
12.10654575,-10.34498749,4.918022919,10.8742868,15.79417073
12.11654775,-10.82758392,6.588549042,9.817634125,16.03220172
12.12655075,-10.75154205,7.701035614,8.19411026,15.55779705
12.13655375,-10.28466293,7.433092804,6.075266418,14.06890267
12.14655575,-10.24709106,5.664221191,4.224814453,12.44730228
12.15655875,-11.61315033,3.34763855,2.968027954,12.44512492
12.16656075,-13.3812735,1.416654053,3.25168808,13.84336897
12.17656375,-14.44301559,0.3022215271,3.582200775,14.88368905
12.18656575,-14.62279175,0.5164260864,3.239862671,14.98630857
12.19656875,-13.32708618,1.978435822,2.815794525,13.76423384
12.20657075,-11.20375168,3.935166779,3.512445831,12.38333012
12.21657375,-9.44146637,5.049299927,4.927303619,11.78622238
12.22657575,-8.698710938,5.281616821,6.164181519,11.89790662
12.23657875,-8.117020569,4.968318329,6.908882904,11.76022419
12.24658075,-7.748486938,4.265380096,6.964716797,11.25787712
12.25658375,-7.348219299,3.337459717,6.734196167,10.51115418
12.26658575,-6.61444519,2.405946808,6.454877014,9.550125784
12.27658875,-5.983058167,1.655557251,6.041436768,8.66237918
12.28659175,-5.38475235,1.301543427,5.783972168,8.00898915
12.29659375,-4.918771362,1.255888367,5.679489441,7.617622176
12.30659675,-4.491110687,1.360221405,5.451962585,7.193342304
12.31659875,-3.99938324,1.685944061,5.235812073,6.800823607
12.32660162,-3.611689453,2.118544464,4.709656219,6.301856318
12.33660363,-3.542233887,2.525997162,4.278852081,6.102184666
12.34660662,-4.087849274,2.659669189,3.79221405,6.17780214
12.35660862,-4.678071899,2.67478775,3.461252289,6.404616586
12.36661162,-4.948409729,2.713706818,3.545527039,6.664962529
12.37661362,-5.065017242,2.738106079,3.642076263,6.812954137
12.38661663,-4.9249086,2.714305573,3.516786804,6.632493414
12.39661862,-4.679419098,2.689906311,3.541635132,6.455674904
12.40662162,-4.538262634,2.546205139,3.670367432,6.367934157
12.41662462,-4.530329132,2.309996338,3.938609619,6.432154449
12.42662662,-4.489763489,2.116448822,4.168082428,6.481530909
12.43662963,-4.385580139,1.965412903,4.38782547,6.507624251
12.44663162,-4.367617493,1.971400452,4.721032562,6.726860394
12.45663462,-4.401447144,2.042652283,4.949756927,6.931468744
12.46663663,-4.529431,2.118095398,5.225932617,7.23273427
12.47663962,-4.712799683,2.176024933,5.534441071,7.587858942
12.48664163,-4.891977081,2.199076996,5.866450653,7.948749755
12.49664462,-5.072501678,2.158661041,6.235583038,8.323015475
12.50664662,-5.40226593,2.14129715,6.518045654,8.732385116
12.51664963,-5.808970184,2.211950226,6.822362823,9.229382043
12.52665262,-6.243067474,2.341730347,7.065906372,9.715277936
12.53665463,-6.814429321,2.313738556,7.172933807,10.16074862
12.54665762,-7.817493439,1.788780212,7.150181122,10.74420906
12.55665962,-9.238039398,0.9716294861,7.443870392,11.90363987
12.56666263,-10.0953067,0.496816864,7.954608307,12.8622641
12.57666462,-9.267228699,0.8346643066,8.821755066,12.82191697
12.58666763,-8.004754028,1.790726166,9.351204071,12.43896317
12.59666962,-7.717501373,2.62688736,8.976533203,12.1259438
12.60667262,-7.883655853,3.380121002,8.569828949,12.12514807
12.61667463,-8.003706207,4.027075653,8.372389526,12.26268966
12.62667762,-8.220156097,4.389472046,8.584498444,12.6701241
12.63667963,-8.628656616,4.044589233,8.745862885,12.9345481
12.64668262,-9.400601349,2.411335602,8.67850296,13.01930331
12.65668562,-10.13602203,0.510737915,8.389304352,13.16739243
12.66668763,-10.94523926,-0.9776170349,7.885601807,13.52540991
12.67669062,-11.7276622,-1.57966507,7.5260495,14.02408013
12.68669263,-12.43060043,-0.8373587036,7.583679657,14.58537603
12.69669562,-13.73498795,1.155746613,6.800208893,15.36972625
12.70669762,-15.40461594,3.406915283,5.405409393,16.67716147
12.71670063,-16.56410477,5.02669693,4.790488129,17.96067998
12.72670262,-16.43447433,5.799689484,3.613336029,17.79844212
12.73670563,-15.10449005,5.693260803,3.707490234,16.56213519
12.74670762,-12.42206818,4.728966064,5.139262848,14.25071649
12.75671062,-10.14739838,3.334465942,6.516399078,12.51206673
12.76671263,-9.278006287,2.018851776,6.877448273,11.72418261
12.77671562,-8.440647583,1.197210388,6.827751617,10.9222725
12.78671863,-7.608827362,0.6384223938,6.688092041,10.15048827
12.79672062,-7.009174347,0.3326083374,6.614744568,9.64333962
12.80672362,-6.311774597,0.3694317627,6.59348877,9.13504639
12.81672563,-5.646108856,0.5363346863,6.299350433,8.4763209
12.82672862,-5.155279541,0.6478527832,6.0715242,7.991246867
12.83673063,-4.87341568,0.7231462097,5.544170837,7.416936774
12.84673362,-4.80665451,0.6478527832,5.305567017,7.188371316
12.85673562,-4.820425873,0.3769161987,5.109175415,7.034361722
12.86673863,-4.805756378,0.1273851013,4.7364505,6.748739488
12.87674062,-4.894970856,-0.05284011841,4.41237442,6.590339884
12.88674363,-4.905149689,-0.08696914673,4.201163635,6.458934354
12.89674562,-5.008883972,-0.03682342529,3.969744873,6.391333896
12.90674862,-5.162165222,0.01002914429,3.606749725,6.297356108
12.91675163,-5.135820007,0.1948947144,3.427722015,6.177694498
12.92675362,-5.104684753,0.339793396,3.436104584,6.162798122
12.93675663,-5.065466309,0.4125421143,3.420686646,6.126192704
12.94675862,-4.96233078,0.5197192383,3.472928009,6.079149925
12.95676162,-4.89916214,0.6274951172,3.628753967,6.128898364
12.96676363,-4.890480194,0.6735992432,3.950884094,6.322975375
12.97676662,-4.903203735,0.6797364807,4.248465271,6.523258826
12.98676862,-4.871769104,0.739611969,4.601880341,6.742289132
12.99677162,-4.832550659,0.7688012695,4.922812958,6.941086996
13.00677362,-4.825964355,0.759969635,5.298232269,7.206854445
13.01677663,-4.835544434,0.7084767151,5.662125549,7.479578528
13.02677862,-4.85006424,0.6445596313,6.063590698,7.791387065
13.03678163,-4.89212677,0.6161187744,6.514153748,8.16986571
13.04678462,-4.984185333,0.5963598633,7.044800262,8.650257757
13.05678662,-5.244194641,0.6036946106,7.578440552,9.235734178
13.06678963,-5.740263062,0.6176156616,8.021519165,9.883159355
13.07679162,-6.447991333,0.6682104492,8.386759644,10.60003938
13.08679463,-7.163353729,0.8978329468,8.569080505,11.20485972
13.09679662,-7.840096436,1.332379303,8.566386108,11.68868332
13.10679962,-8.427924042,1.925895081,8.486901398,12.11472125
13.11680163,-8.723858643,2.529440002,8.27254715,12.2857158
13.12680462,-8.793314209,3.010090485,8.000113678,12.26314961
13.13680662,-8.923842773,3.135529633,7.907905426,12.3288882
13.14680962,-9.153914337,2.803220673,8.22225174,12.61973128
13.15681262,-9.356742554,2.367776184,8.704399109,12.99698269
13.16681463,-9.220076752,2.197280731,9.311835938,13.28714215
13.17681762,-9.047485657,2.561772766,9.943522339,13.68551471
13.18681962,-9.147178345,3.545227661,10.31519943,14.23526783
13.19682262,-9.438472595,4.957391052,10.16955231,14.73364466
13.20682462,-9.546098785,6.477779388,9.379644928,14.86833437
13.21682763,-9.630523224,7.522606659,7.946525116,14.57682578
13.22682962,-9.409283295,7.47096405,5.937552795,13.40165845
13.23683262,-9.233848114,6.002068634,3.992048492,11.71431731
13.24683462,-10.24694138,4.182751923,3.280128937,11.54358987
13.25683762,-12.09185486,2.567460938,3.202590179,12.76954946
13.26683963,-13.13129333,1.594035187,3.433260498,13.66598297
13.27684262,-13.96505951,1.205443268,3.516337738,14.45131868
13.28684562,-13.7435202,1.847458191,3.343596954,14.2645396
13.29684762,-12.26279938,3.249891815,4.028123474,13.31029016
13.30685062,-10.58284286,4.373305664,5.207520905,12.57937357
13.31685263,-9.312584381,4.793930969,6.195466461,12.16921553
13.32685562,-8.526269531,4.692591705,6.913523254,11.93794341
13.33685796,-8.042475586,4.29651535,7.104226685,11.55904384
13.34686096,-7.555089111,3.600163422,7.038213959,10.93512706
13.35686296,-6.988816681,2.842888184,6.821315002,10.17132785
13.36686596,-6.269562378,2.179318085,6.483317871,9.278483192
13.37686796,-5.667364655,1.747017059,6.217620392,8.592432372
13.38687096,-5.206024017,1.504521332,6.149062958,8.196172629
13.39687296,-4.753365326,1.413660278,5.928272095,7.728992647
13.40687596,-4.070934448,1.619033203,5.625002747,7.129826905
13.41687896,-3.689377899,1.866618347,5.116510162,6.578331823
13.42688096,-3.938609619,2.097438354,4.608616333,6.414923062
13.43688396,-4.446054382,2.129022675,4.208498383,6.481635269
13.44688596,-4.691094818,2.163151703,3.990252228,6.52745806
13.45688896,-4.696483612,2.241438904,3.910168762,6.50925698
13.46689096,-4.686604156,2.30041626,3.769760742,6.439508486
13.47689396,-4.560715942,2.311193848,3.606450348,6.256854723
13.48689596,-4.317471771,2.29098587,3.500470734,6.011861119
13.49689896,-4.069138184,2.210902405,3.507356415,5.809261917
13.50690096,-3.942651215,2.096390533,3.692671051,5.794408629
13.51690396,-3.951632538,1.9282901,3.893703003,5.873212537
13.52690596,-3.961811371,1.739083557,4.178261261,6.014834006
13.53690896,-4.030817871,1.669029236,4.454886017,6.235315607
13.54691196,-4.096381531,1.707349548,4.772226105,6.516864746
13.55691396,-4.217629395,1.810485077,5.098846893,6.860356665
13.56691696,-4.399800568,1.917362823,5.421575775,7.240718826
13.57691896,-4.633464661,2.00552948,5.758674774,7.658555896
13.58692196,-4.977000275,2.127974854,6.162235565,8.201948297
13.59692396,-5.466781769,2.330503693,6.561455383,8.852663278
13.60692696,-6.069727936,2.615211639,6.992109833,9.621357963
13.61692896,-6.631360016,2.90530838,7.340285797,10.30997323
13.62693196,-7.189698944,2.918930054,7.372019806,10.70320511
13.63693396,-7.994425507,2.327958984,7.224726105,11.02392396
13.64693696,-9.127419434,1.542841644,7.395371246,11.84827674
13.65693996,-9.87780899,1.132395172,8.119565277,12.83669621
13.66694196,-9.747879181,1.171014862,8.87504425,13.23475858
13.67694496,-8.799451447,1.694176941,9.375004578,12.96885855
13.68694696,-8.084388428,2.660417633,9.070837097,12.43845826
13.69694996,-7.916287994,3.532204742,8.613987122,12.22067347
13.70695196,-7.848179626,4.201463013,8.567882996,12.35535649
13.71695496,-8.169261932,4.38318512,8.859626312,12.82349916
13.72695696,-8.772357788,3.730542297,9.029822388,13.13045694
13.73695996,-9.446705475,2.102827148,8.912316742,13.1564249
13.74696196,-10.03393433,0.3414399719,8.713380432,13.29358559
13.75696496,-10.53179901,-0.8445437622,8.366701355,13.47715609
13.76696696,-10.99852844,-1.076860657,8.279732208,13.80873717
13.77696996,-11.66075134,-0.03562591553,7.917485504,14.09471418
13.78697296,-12.88011566,1.953886871,7.089407501,14.83154584
13.79697496,-14.86124588,3.712280273,5.874084778,16.40556387
13.80697796,-16.35304367,4.822371826,5.168452148,17.81544849
13.81697996,-16.57533142,5.175038452,4.753814392,18.00337152
13.82698296,-15.82254684,4.626578979,4.411775665,17.0652274
13.83698496,-13.28562241,3.787723389,5.703739014,14.94614499
13.84698796,-10.48374893,2.991678772,6.617588654,12.75349415
13.85698996,-9.020841064,2.112856293,6.555168457,11.34944795
13.86699296,-7.907156982,1.45796814,6.465654602,10.31763016
13.87699496,-7.107968903,1.00036972,6.254892883,9.520905759
13.88699796,-6.633755035,0.5369334412,6.189927979,9.089015996
13.89700096,-6.183191986,0.287252655,6.127208405,8.709595861
13.90700296,-5.901627502,0.2011816406,6.079008636,8.474905736
13.91700596,-5.556894379,0.2236349487,5.6959552,7.960715632
13.92700796,-5.314847717,0.1618135071,5.363047485,7.552222732
13.93701096,-5.114264832,0.006586303711,5.117258606,7.234782912
13.94701296,-5.032235413,-0.2365081787,4.9448172,7.059075471
13.95701596,-4.934189301,-0.406255188,4.788841553,6.887980165
13.96701796,-4.69902832,-0.4402345276,4.395309906,6.4492963
13.97702096,-4.565805359,-0.3860472107,4.111051025,6.156001264
13.98702296,-4.523742828,-0.2969824219,3.74191864,5.878299316
13.99702596,-4.517306213,-0.1538800049,3.395838318,5.653446061
14.00702896,-4.540358276,0.009879455566,3.300935669,5.61347728
14.01703096,-4.525389404,0.1260379028,3.132236481,5.505083122
14.02703396,-4.518054657,0.1996847534,3.081342316,5.472418327
14.03703596,-4.531376953,0.3189866638,3.238216095,5.578635412
14.04703896,-4.589905243,0.4546046448,3.540437622,5.814515808
14.05704096,-4.666396179,0.51717453,3.923640747,6.118633794
14.06704396,-4.689148865,0.6033952332,4.281097412,6.378087326
14.07704596,-4.713997192,0.6845265198,4.709656219,6.69859745
14.08704896,-4.718188477,0.7806266785,5.188809814,7.05651669
14.09705096,-4.713248749,0.7804769897,5.655988312,7.403651929
14.10705396,-4.679568787,0.7565267944,6.184838562,7.792491569
14.11705696,-4.596940613,0.689765625,6.735693054,8.183959954
14.12705896,-4.457131348,0.7069798279,7.298223267,8.580786862
14.13706196,-4.424499207,0.7261399841,7.823480988,9.017223922
14.14706396,-4.480033722,0.7436535645,8.274942169,9.439194387
14.15706696,-4.771477661,0.8279283142,8.699908447,9.956950907
14.16706896,-5.342390442,1.020128632,9.067843323,10.57391037
14.17707196,-6.30324234,1.374441833,9.370813293,11.37682276
14.18707396,-7.502099304,2.007625122,9.625284119,12.36762495
14.19707696,-8.802145844,2.949915619,9.525890808,13.30121684
14.20707896,-9.523495789,3.826343079,8.860225067,13.55881491
14.21708196,-9.366771698,4.191733246,7.978408813,12.99854018
14.22708496,-9.214987335,3.831582184,7.386090546,12.4157701
14.23708696,-9.388027496,2.949167175,7.444169769,12.33889423
14.24708996,-9.297016754,2.013912048,7.814349976,12.31074441
14.25709196,-8.514294434,1.690285034,8.346792755,12.04239272
14.26709496,-7.749983826,1.968406677,9.044641571,12.07238234
14.27709696,-7.815846863,2.731220398,9.589059448,12.66874454
14.28709996,-8.532406769,3.927233276,9.506580963,13.36413888
14.29710196,-9.09388916,5.29463974,8.887767792,13.77404974
14.30710496,-9.438173218,6.441255341,8.137228546,14.02794969
14.31710696,-9.445657654,7.013215942,7.22532486,13.80619302
14.32710996,-9.662855988,6.225104828,6.001170502,12.96675608
14.33711283,-11.02846619,4.373006287,5.37771698,13.02574721
14.34711483,-12.6129213,2.926564178,5.462141418,14.05295522
14.35711783,-14.22866135,1.900447998,5.443430328,15.35244085
14.36711983,-15.87403976,0.9237290955,5.168901215,16.71992684
14.37712283,-16.0699823,0.5929170227,4.844675446,16.79484331
14.38712483,-14.17836594,1.540446625,5.338049469,15.22805991
14.39712783,-11.64353714,3.123704224,5.693709869,13.33220977
14.40712983,-10.08108627,4.128414917,6.181695099,12.52539279
14.41713283,-8.98162262,4.457879791,6.962770844,12.20747373
14.42713483,-7.907606049,4.364024963,7.263794861,11.59041255
14.43713783,-7.019951935,3.899091797,7.084168396,10.70831844
14.44714083,-6.313421173,3.139870605,6.650969238,9.692959617
14.45714283,-5.678291931,2.348017273,6.307134247,8.805460055
14.46714583,-4.919220428,1.755699005,6.20384903,8.109805879
14.47714783,-4.123475189,1.410217438,5.966442719,7.38851809
14.48715083,-3.538042603,1.288071442,5.776188354,6.895014532
14.49715283,-3.212769012,1.369801483,5.597460022,6.597711689
14.50715583,-3.191363525,1.760039978,4.810546417,6.035221513
14.51715783,-3.412154388,2.20087326,4.346511383,5.948008228
14.52716083,-3.654051361,2.548749847,3.942351837,5.948979336
14.53716283,-3.896098022,2.819985809,3.5699263,5.989680589
14.54716583,-4.057163086,3.09720932,3.51723587,6.198727776
14.55716883,-4.173471222,3.199446716,3.44358902,6.285906988
14.56717083,-4.137545929,3.125650177,3.342998199,6.169652527
14.57717383,-4.051474915,2.93225235,3.332669678,6.009928453
14.58717583,-3.967050476,2.635120239,3.368744659,5.833505699
14.59717883,-3.900438995,2.349663849,3.626957703,5.821440263
14.60718083,-3.92094635,2.067201233,3.776796112,5.823343549
14.61718383,-3.949686584,1.889520721,4.113296356,6.007455334
14.62718583,-3.99938324,1.833237762,4.393363953,6.217513475
14.63718883,-4.093986511,1.916015625,4.624932404,6.466980839
14.64719083,-4.171076202,2.099533997,4.950205994,6.805178842
14.65719383,-4.300257568,2.305206299,5.322631531,7.220567682
14.66719683,-4.547094269,2.416724396,5.660179596,7.652075284
14.67719883,-4.96697113,2.486778717,6.040987701,8.206607277
14.68720183,-5.473517761,2.613265686,6.454128571,8.856880367
14.69720383,-5.950276337,2.744542694,6.860683136,9.487216461
14.70720683,-6.389163666,2.740950165,7.084467773,9.925920803
14.71720883,-7.125931549,2.301015015,7.1889505,10.38049035
14.72721183,-8.346942444,1.503623199,7.264393616,11.16708312
14.73721383,-9.736951904,0.7982899475,7.660919037,12.415119
14.74721683,-10.55365356,0.4517605591,8.458909607,13.53280617
14.75721983,-9.863139496,0.7936495972,9.168733521,13.48988787
14.76722183,-8.347990265,1.698817291,9.416618042,12.69833127
14.77722483,-7.66645752,2.74499176,8.98746048,12.12781912
14.78722683,-7.67693573,3.738775177,8.602311401,12.12078972
14.79722983,-7.635322266,4.584516449,8.389603729,12.23525185
14.80723183,-7.6441539,4.999004517,8.52522171,12.49410022
14.81723483,-7.801626434,4.496499481,8.878038025,12.64529327
14.82723683,-8.583151245,2.820883942,9.321266327,12.98128951
14.83723983,-9.569300537,0.8732839966,9.501790924,13.51362899
14.84724183,-10.21430923,-0.8240364075,9.291777649,13.83286959
14.85724483,-10.35741165,-1.72231842,8.9500383,13.7965772
14.86724683,-10.2493364,-1.437011719,8.365204468,13.30753715
14.87724983,-10.79704742,0.1064286804,6.988217926,12.86167757
14.88725283,-12.0846698,2.276765442,5.770500183,13.58387196
14.89725483,-14.12462769,4.270170135,5.242398376,15.65957218
14.90725783,-15.32887344,5.693859558,4.431534576,16.94204523
14.91725983,-15.4249736,6.158643036,4.126019897,17.11381707
14.92726283,-14.86019806,5.426515503,3.791914673,16.26810295
14.93726483,-13.17979248,4.299359436,5.404960327,14.87968473
14.94726783,-11.02517303,3.32533493,6.9421138,13.44638378
14.95726983,-9.758956146,2.361638947,7.192692719,12.3510887
14.96727283,-8.613837433,1.739233246,7.025041351,11.25052593
14.97727583,-7.60209137,1.238524475,6.983278198,10.39672595
14.98727783,-7.013066254,0.8957373047,6.885531464,9.868940527
14.99728083,-6.372099152,0.7439529419,6.731352081,9.298828658
