Time (s),Acceleration x (m/s^2),Acceleration y (m/s^2),Acceleration z (m/s^2),Absolute acceleration (m/s^2)
20.00880054,-11.33113678,-4.686304779,4.177512817,12.95406216
20.01880354,-11.78424454,-5.398673401,4.175566864,13.61798269
20.02880754,-11.9161203,-5.860762482,4.099524994,13.89778993
20.03881054,-11.97734299,-6.074667664,3.955823822,14.00024551
20.04881354,-12.23495728,-6.089486847,3.711681519,14.16165984
20.05881654,-12.36458771,-5.72993454,3.298390961,14.02121828
20.06881954,-12.1364621,-4.961732025,2.696941681,13.38603718
20.07882354,-11.58800262,-3.961362305,1.878743134,12.38966795
20.08882654,-11.07067841,-3.022814026,1.026864624,11.52179569
20.09882954,-10.60993652,-2.269730072,0.452359314,10.85942248
20.10883254,-10.16012192,-1.689386902,0.2176473999,10.30191613
20.11883554,-9.773176575,-1.102008362,0.2032772827,9.837211213
20.12883954,-9.323811035,-0.6909631348,0.3841012573,9.357265415
20.13884254,-8.832083588,-0.4544549561,0.7039860535,8.87174313
20.14884554,-8.275091858,-0.3020718384,1.105451202,8.354065777
20.15884854,-7.68157608,-0.2017803955,1.470541992,7.823670504
20.16885154,-7.051536255,-0.1947450256,1.625619507,7.239110992
20.17885554,-6.510261841,-0.2496807861,1.639540558,6.718180034
20.18885854,-6.146967316,-0.3251239014,1.629062347,6.367476491
20.19886154,-5.961353302,-0.4444258118,1.670975189,6.207044834
20.20886454,-5.859564972,-0.5304968262,1.659598846,6.113116789
20.21886754,-5.820795593,-0.5911207581,1.6416362,6.076681208
20.22887154,-5.864355011,-0.6894662476,1.609153748,6.120081632
20.23887454,-6.021977234,-0.8478369141,1.559307404,6.278094999
20.24887754,-6.290069733,-1.023122406,1.479223938,6.542160206
20.25888054,-6.587800598,-1.14781311,1.348695374,6.821698532
20.26888354,-7.023694153,-1.264121246,1.240919495,7.243629151
20.27888754,-7.492369537,-1.344504089,1.144819336,7.697655737
20.28889054,-7.899073792,-1.434317322,1.057550812,8.097595116
20.29889354,-8.297395477,-1.495240631,1.119971008,8.505107366
20.30889654,-8.772657166,-1.570084991,1.202000427,8.99274628
20.31889954,-9.284891968,-1.741179199,1.294807434,9.535064245
20.32890354,-9.757159882,-1.986369324,1.364412689,10.05034597
20.33890654,-10.2439476,-2.221081238,1.524429932,10.59224013
20.34890954,-10.81366287,-2.51566864,1.803449707,11.24794756
20.35891254,-11.47184418,-2.908601532,2.054028625,12.0117528
20.36891554,-12.1045784,-3.247646484,2.325264587,12.74656351
20.37891954,-12.71321274,-3.589984589,2.624043274,13.46845836
20.38892254,-13.31241669,-3.896547089,2.839145966,14.15854043
20.39892554,-13.77824799,-4.115541687,2.968926086,14.68306245
20.40892854,-14.00816986,-4.197870483,3.008743286,14.9299523
20.41893154,-13.92509262,-4.003424835,3.084934845,14.81392716
20.42893554,-13.76238098,-3.526067505,3.162623291,14.5546717
20.43893854,-13.8444104,-3.261567535,3.047063599,14.54613759
20.44894154,-14.40259964,-3.642824707,2.868784332,15.1305972
20.45894454,-14.82726654,-4.462071075,2.634970551,15.70671771
20.46894754,-14.62383957,-5.172793121,2.386038208,15.69419162
20.47895154,-14.13735123,-5.579048309,2.242636414,15.3629391
20.48895454,-13.45761475,-5.583239594,2.318977661,14.75322393
20.49895754,-12.72219406,-5.182822266,2.515069885,13.96572393
20.50896054,-12.26010498,-4.569248199,2.660567322,13.35165989
20.51896354,-12.38539444,-4.155358887,2.802172852,13.36103198
20.52896754,-12.84808228,-4.089046783,2.79184433,13.7690928
20.53897054,-13.27334793,-4.371808777,2.525248718,14.20110412
20.54897354,-13.45282471,-5.005740509,2.306553497,14.53809202
20.55897654,-13.350737,-5.76615921,2.261497192,14.71751134
20.56897954,-13.22889038,-6.41910141,2.360890503,14.892354
20.57898354,-13.05599991,-6.899751892,2.577789459,14.99035384
20.58898654,-12.62684235,-7.110513611,2.815345459,14.76220585
20.59898954,-12.13541428,-6.879843292,3.007545776,14.27045392
20.60899254,-11.69967041,-6.379433899,3.094365234,13.68044447
20.61899554,-11.43067978,-5.824088745,3.088677063,13.19546801
20.62899954,-11.28563141,-5.234165497,3.018323364,12.80125934
20.63900254,-11.10780121,-4.620591431,2.851719818,12.36387556
20.64900554,-10.74136322,-4.0344104,2.625540161,11.77059099
20.65900854,-10.32373169,-3.508703613,2.349364471,11.15392086
20.66901154,-9.903705139,-3.041974182,2.174528046,10.58610196
20.67901521,-9.445657654,-2.59290802,2.102378082,10.01816421
20.68901821,-8.993597717,-2.336341553,2.158211975,9.539453374
20.69902121,-8.594826965,-2.172582092,2.302212524,9.159221911
20.70902421,-8.113128662,-2.032772827,2.419269104,8.706772367
20.71902721,-7.688012695,-1.966460724,2.490071869,8.31702861
20.72903121,-7.301067352,-1.982926483,2.460283813,7.955537591
20.73903421,-7.00408493,-2.045795746,2.372416534,7.672733943
20.74903721,-6.795269165,-2.149679718,2.34247879,7.502267177
20.75904021,-6.518794098,-2.218386841,2.328857117,7.269077805
20.76904321,-6.243516541,-2.319726105,2.295326843,7.044938134
20.77904721,-5.998027039,-2.439327393,2.163900146,6.827086518
20.78905021,-5.792055359,-2.572101288,2.032623138,6.655461452
20.79905321,-5.600453796,-2.748733978,1.870061188,6.512891067
20.80905621,-5.412295074,-2.888842621,1.741628265,6.377430413
20.81905921,-5.213807831,-3.028951263,1.696871338,6.264001133
20.82906321,-5.025649109,-3.150797882,1.651964722,6.157407222
20.83906621,-4.806205444,-3.190615082,1.607357483,5.988591942
20.84906921,-4.608316956,-3.213816833,1.520837402,5.820493983
20.85907221,-4.496798859,-3.311713257,1.389560394,5.754956365
20.86907521,-4.416715393,-3.476520538,1.166823578,5.740648672
20.87907921,-4.375700684,-3.68339035,0.8786727905,5.786725051
20.88908221,-4.385580139,-3.875440979,0.6102809143,5.884284046
20.89908521,-4.423451385,-3.980522461,0.4249662781,5.965909617
20.90908821,-4.551285553,-4.136797485,0.3486250305,6.160262416
20.91909121,-4.70845871,-4.20176239,0.3043171692,6.317990151
20.92909421,-5.008584595,-4.289629669,0.2692900085,6.599951473
20.93909821,-5.584287415,-4.450395355,0.3049159241,7.14725531
20.94910121,-6.306984558,-4.678970032,0.4412823486,7.865465332
20.95910421,-7.061864777,-4.912484436,0.6291416931,8.625442408
20.96910721,-7.715256042,-5.036277008,0.9083111572,9.258201286
20.97911021,-7.994724884,-5.071304169,1.230590973,9.547151726
20.98911421,-8.067024536,-5.042713623,1.536854095,9.636792312
20.99911721,-8.303981781,-5.172044678,1.73294632,9.93525352
21.00912021,-8.814869385,-5.687123566,1.830243988,10.64871306
21.01912321,-9.36063446,-6.342760162,1.834884338,11.45508117
21.02912621,-9.723629608,-6.821315002,1.787582703,12.011443
21.03913021,-9.914632416,-7.051087189,1.864073639,12.30823046
21.04913321,-10.02929398,-6.978637848,2.064806213,12.39159185
21.05913621,-9.843230896,-6.421795807,2.373763733,11.99013804
21.06913921,-9.315278778,-5.462291107,2.703827362,11.13201353
21.07914221,-8.986562347,-4.670886841,2.929707642,10.54318138
21.08914621,-9.025930481,-4.066144409,3.164419556,10.39300258
21.09914921,-9.326206055,-3.605552216,3.413501587,10.56551557
21.10915221,-9.85445755,-3.689078522,3.655847626,11.13933821
21.11915521,-10.45291306,-4.249513092,3.878434753,11.93163899
21.12915821,-10.94404175,-5.081782379,4.054618378,12.72935553
21.13916221,-11.15375565,-5.796396332,4.245770874,13.26766919
21.14916521,-11.1344458,-6.220763855,4.451742554,13.50895251
21.15916821,-11.32874176,-6.408623199,4.603676605,13.80596536
21.16917121,-11.90189987,-6.427783356,4.587809601,14.28354355
21.17917421,-12.36159393,-6.113287354,4.238585815,14.42729692
21.18917821,-12.61531631,-5.549260254,3.619772644,14.24932451
21.19918121,-12.65408569,-4.672982483,2.894081726,13.79631687
21.20918421,-12.34767288,-3.61094101,2.232008514,13.05702043
21.21918721,-11.85998703,-2.568658447,1.632205811,12.24423923
21.22919021,-11.27979355,-1.855990448,1.087787933,11.4831061
21.23919421,-10.65484314,-1.272503815,0.7810757446,10.75895105
21.24919721,-10.10084518,-0.8005352783,0.6126759338,10.15102468
21.25920021,-9.634864197,-0.4589456177,0.5839356995,9.663447629
21.26920321,-9.120683441,-0.2411485291,0.6393205261,9.146242386
21.27920621,-8.561745758,-0.1913021851,0.7601193237,8.597550136
21.28921021,-7.99517395,-0.2273771667,0.876277771,8.046264326
21.29921321,-7.562872925,-0.2498304749,0.9250762939,7.62333446
21.30921621,-7.251520386,-0.282462616,0.8628057861,7.308130189
21.31921921,-6.980883179,-0.3673361206,0.7839198303,7.034358256
21.32922221,-6.811585236,-0.4691244507,0.7182064819,6.865390865
21.33922621,-6.644981689,-0.5604345703,0.6487509155,6.700055695
21.34922921,-6.501130829,-0.6866221619,0.5807922363,6.563038296
21.35923221,-6.39919281,-0.8714877319,0.4921765137,6.476989826
21.36923521,-6.427633667,-1.147364044,0.4993615723,6.548303657
21.37923821,-6.523584137,-1.381177826,0.4939727783,6.686464782
21.38924221,-6.663842468,-1.603465576,0.4716691589,6.870252549
21.39924521,-6.776258698,-1.767524414,0.5078938293,7.021380251
21.40924821,-6.935677185,-1.908531189,0.5647755432,7.215613677
21.41925121,-7.256460114,-2.075883179,0.7354206848,7.583294003
21.42925421,-7.668104095,-2.251617737,0.9355545044,8.046419395
21.43925821,-8.146509247,-2.483036499,1.23328537,8.605351589
21.44926121,-8.726403351,-2.692301331,1.554217987,9.263595169
21.45926421,-9.319470062,-2.957100677,1.79611496,9.940975586
21.46926721,-9.856702881,-3.274740143,2.049088898,10.58665575
21.47927021,-10.39378601,-3.557951202,2.245181122,11.21296761
21.48927321,-11.02532272,-3.786076813,2.438728638,11.90963963
21.49927721,-11.71987839,-4.048930206,2.661016388,12.68189234
21.50928021,-12.44347366,-4.384532318,2.871329041,13.50217356
21.51928321,-13.01693115,-4.607718201,3.066074066,14.14469419
21.52928621,-13.49339035,-4.543052673,3.255729675,14.60515958
21.53928921,-13.91865601,-4.327051849,3.327131195,14.95065767
21.54929321,-14.4416684,-4.252806244,3.240311737,15.39960282
21.55929621,-15.02934631,-4.498744812,2.986888733,15.97001753
21.56929921,-15.42961395,-5.040318604,2.709665222,16.45661217
21.57930221,-15.52227127,-5.563630371,2.630030823,16.69766302
21.58930521,-15.11871048,-5.779481506,2.741848297,16.41631948
21.59930921,-14.59435089,-5.673950958,2.818189545,15.91009081
21.60931221,-14.11205383,-5.242847443,2.853216705,15.32247885
21.61931521,-13.588293,-4.399800568,2.914140015,14.57711095
21.62931821,-13.32618805,-3.677253113,2.894081726,14.12392252
21.63932121,-13.31900299,-3.364852753,2.690355377,13.99843158
21.64932521,-13.44204712,-3.476520538,2.451003113,14.09901564
21.65932821,-13.47797241,-4.004472656,2.275717621,14.24325919
21.66933121,-13.30972229,-4.892575836,2.257455597,14.35904285
21.67933429,-13.07665695,-5.896837463,2.376308441,14.54023696
21.68933729,-12.81949173,-6.632557526,2.746039581,14.69254644
21.69934129,-12.16101105,-7.073091431,3.175496521,14.4222949
21.70934429,-11.41466309,-7.126081238,3.551065521,13.9170986
21.71934729,-10.72250244,-6.809339905,3.884122925,13.28252911
21.72935029,-10.12524445,-6.214027863,4.027973785,12.54429313
21.73935329,-9.707612915,-5.475763092,4.030668182,11.85192035
21.74935729,-9.517807617,-4.799020386,3.928879852,11.36025332
21.75936029,-9.455088043,-4.113745422,3.717519379,10.96090971
21.76936329,-9.252708893,-3.54298233,3.387156372,10.47082489
21.77936629,-8.975485382,-3.116369476,3.005749512,9.965220855
21.78936929,-8.733289032,-2.789149933,2.616708527,9.533984381
21.79937329,-8.493188324,-2.528841248,2.354004822,9.169003472
21.80937629,-8.276888123,-2.248623962,2.127974854,8.836937461
21.81937929,-8.054750061,-2.105521545,2.011666718,8.564988179
21.82938229,-7.80911087,-1.989512787,1.993404694,8.301447825
21.83938529,-7.483238525,-1.884730682,1.97858551,7.96654688
21.84938929,-7.213798828,-1.832788696,1.969753876,7.699216731
21.85939229,-7.039561157,-1.854194183,1.922302551,7.529190159
21.86939529,-6.839876404,-1.928439789,1.852397919,7.343988514
21.87939829,-6.620582428,-1.989812164,1.66498764,7.110812048
21.88940129,-6.490951996,-2.024689636,1.476379852,6.957838989
21.89940529,-6.459217987,-2.19862793,1.373094635,6.959946167
21.90940829,-6.334676971,-2.442620544,1.333726501,6.919057294
21.91941129,-6.158343658,-2.566712494,1.352138214,6.807458218
21.92941429,-5.973478088,-2.719095612,1.360371094,6.702725634
21.93941729,-5.834417267,-2.890788574,1.34674942,6.649121553
21.94942029,-5.709726562,-3.069965973,1.275198212,6.606950807
21.95942429,-5.524411926,-3.26575882,1.237626343,6.535749901
21.96942729,-5.470523987,-3.46574295,1.185085602,6.583497154
21.97943029,-5.516478424,-3.686833191,1.157692566,6.73531924
21.98943329,-5.592220917,-3.970193939,1.188678131,6.960483489
21.99943629,-5.686375122,-4.294419708,1.131047974,7.214996339
22.00944029,-5.824238434,-4.633614349,1.039288788,7.51480249
22.01944329,-5.859564972,-4.873565369,1.037492523,7.69171839
22.02944629,-5.964646454,-5.089266815,1.070873108,7.913558823
22.03944929,-6.114335175,-5.250780945,1.149459686,8.141071964
22.04945229,-6.418652344,-5.469625854,1.214125214,8.519976815
22.05945629,-6.817572784,-5.789510651,1.229692841,9.028282047
22.06945929,-7.062912598,-6.053411865,1.210083618,9.380449453
22.07946229,-7.01231781,-6.088289337,1.2461586,9.369780114
22.08946529,-6.953639832,-5.960904236,1.426533508,9.269330292
22.09946829,-7.147037659,-5.97557373,1.711540833,9.471905865
22.10947229,-7.711214447,-6.388564911,1.920206909,10.19626326
22.11947529,-8.356223145,-7.047195282,2.007625122,11.11395453
22.12947829,-8.778794403,-7.576494598,2.013313293,11.76961902
22.13948129,-9.03311554,-7.858059082,2.07333847,12.15092594
22.14948429,-8.93357254,-7.68277359,2.296524353,12.00448885
22.15948829,-8.581504669,-7.166497192,2.673290863,11.49553776
22.16949129,-8.366701355,-6.304140472,3.187770996,10.95014898
22.17949429,-8.136480103,-5.411846008,3.697311401,10.44799011
22.18949729,-8.264913025,-4.68031723,4.218976593,10.39297456
22.19950029,-8.862769775,-4.133654022,4.776567078,10.88353696
22.20950429,-9.558672638,-3.859723663,5.277724915,11.58102196
22.21950729,-10.47042664,-4.12452301,5.571713562,12.55728936
22.22951029,-11.32978958,-4.711452484,5.525908813,13.45725026
22.23951329,-12.0939505,-5.226531372,5.240153046,14.17883891
22.24951629,-12.74210266,-5.667813721,4.944667511,14.79645327
22.25952029,-13.29819626,-6.056106262,4.438869324,15.27160789
22.26952329,-13.46075821,-6.066584473,3.657344513,15.21090489
22.27952629,-13.27424606,-5.620512085,2.628084869,14.65273335
22.28952929,-12.70063889,-4.780458984,1.377734985,13.64027749
22.29953229,-11.84636536,-3.736829224,0.1657054138,12.42287097
22.30953629,-11.04268661,-2.821482697,-0.7258406067,11.42053137
22.31953929,-10.42087967,-2.200723572,-1.31636261,10.73176257
22.32954229,-9.949509888,-1.645079041,-1.551972656,10.2033157
22.33954529,-9.587113495,-1.135089569,-1.338217163,9.746383877
22.34954829,-9.258696442,-0.7429051208,-0.8589138794,9.328081307
22.35955229,-8.929231567,-0.4978646851,-0.3291654968,8.949156136
22.36955529,-8.515342255,-0.4288581848,0.07140151978,8.526433676
22.37955829,-7.919880524,-0.4261637878,0.4685256958,7.94516453
22.38956129,-7.207212524,-0.4143383789,0.7774832153,7.260858683
22.39956429,-6.592740326,-0.4713697815,0.8568182373,6.66487449
22.40956729,-6.114634552,-0.6478527832,0.8878038025,6.212621389
22.41957129,-5.744604034,-0.7768844604,0.9839039612,5.879803737
22.42957429,-5.480253754,-0.8232879639,1.110540619,5.651927524
22.43957729,-5.319787445,-0.8675958252,1.200054474,5.522045972
22.44958029,-5.297483826,-0.9791139221,1.298399963,5.541465638
22.45958329,-5.417833557,-1.125210114,1.441652069,5.7181622
22.46958729,-5.615722046,-1.276994476,1.621877289,5.983104122
22.47959029,-5.888005829,-1.453926544,1.845661926,6.339478132
22.48959329,-6.212830353,-1.595532074,2.077380066,6.742439583
22.49959629,-6.577172699,-1.664089508,2.260449371,7.151085649
22.50959929,-7.011269989,-1.737736359,2.299069061,7.580458631
22.51960329,-7.535479889,-1.83114212,2.240989838,8.072086104
22.52960629,-8.017028503,-1.946552124,2.113005981,8.516255367
22.53960929,-8.547225952,-2.063459015,1.998793488,9.017100975
22.54961229,-9.110654297,-2.202819214,1.977088623,9.579421362
22.55961529,-9.648186493,-2.389481049,1.935624847,10.12638958
22.56961929,-10.21415955,-2.674338684,1.92709259,10.73288538
22.57962229,-10.8251889,-3.012186127,2.001338196,11.4132964
22.58962529,-11.50357819,-3.378773804,2.100581818,12.17213488
22.59962829,-12.19963074,-3.836821289,2.240989838,12.98361364
22.60963129,-12.90825714,-4.298461304,2.353705444,13.80723728
22.61963529,-13.60011841,-4.602030029,2.446362762,14.56456631
22.62963829,-14.01011581,-4.618046722,2.500550079,14.96203366
22.63964129,-14.18929321,-4.338877258,2.498454437,15.04673295
22.64964429,-14.37370972,-4.135899353,2.381248169,15.14528102
22.65964729,-14.82801498,-4.434977417,2.274520111,15.64328913
22.66965129,-15.24459869,-5.192402344,2.179318085,16.2514079
22.67965371,-15.05943375,-5.925128632,2.136507111,16.32355221
22.68965671,-14.48328186,-6.306685181,2.240241394,15.9548868
22.69965971,-13.86282211,-6.160888367,2.517764282,15.37769552
22.70966271,-13.10719345,-5.60239975,2.850971375,14.53662412
22.71966671,-12.64166153,-4.70142334,3.065325623,13.83152952
22.72966971,-12.54720795,-3.863166504,3.109334106,13.49164339
22.73967271,-12.76889694,-3.453767853,2.952310638,13.55320551
22.74967571,-13.08174637,-3.537892914,2.722239075,13.82242236
22.75967871,-13.28846649,-4.05551651,2.574795685,14.13011425
22.76968271,-13.22874069,-4.92371109,2.584226074,14.34993852
22.77968571,-12.90646088,-5.949228516,2.651585999,14.45686552
22.78968871,-12.63193176,-6.69168457,2.894231415,14.58495519
22.79969171,-12.07449097,-7.084318085,3.272794189,14.37678951
22.80969471,-11.45073807,-6.978937225,3.571273499,13.87728221
22.81969771,-10.88970474,-6.564748535,3.742816772,13.25482064
22.82970171,-10.58688446,-5.987848206,3.754043427,12.72907266
22.83970471,-10.59152481,-5.350623322,3.72320755,12.43671348
22.84970771,-10.50171158,-4.677323456,3.54417984,12.0301501
22.85971071,-10.27074188,-4.143383789,3.242706757,11.53997033
22.86971371,-10.03303619,-3.73368576,2.901266785,11.09141892
22.87971771,-9.725126495,-3.348237305,2.586172028,10.60552046
22.88972071,-9.381141815,-3.075205078,2.32257019,10.141846
22.89972371,-9.034612427,-2.737357635,2.094145203,9.669684207
22.90972671,-8.713081055,-2.462678833,1.918260956,9.255392676
22.91972971,-8.504265289,-2.331252136,1.811832275,9.002221994
22.92973371,-8.209228821,-2.181713104,1.749861145,8.672561555
22.93973671,-7.827971649,-1.984573059,1.68609375,8.249762572
22.94973971,-7.375911713,-1.950444031,1.59717865,7.794824254
22.95974271,-7.022047577,-1.969753876,1.592388611,7.464903482
22.96974571,-6.836583252,-1.978735199,1.631008301,7.301674577
22.97974971,-6.648574219,-2.022444305,1.618584137,7.135379087
22.98975271,-6.412215729,-2.108665009,1.589095459,6.934565815
22.99975571,-6.193370819,-2.241438904,1.603166199,6.778792837
23.00975871,-6.010600891,-2.405348053,1.65570694,6.682393867
23.01976171,-5.810167694,-2.538271637,1.695973206,6.563322074
23.02976571,-5.596711578,-2.684667206,1.674717407,6.429253214
23.03976871,-5.455255737,-2.873873749,1.679507446,6.390595492
23.04977171,-5.258714447,-3.048710175,1.601220245,6.28590627
23.05977471,-5.047653351,-3.212319946,1.600920868,6.193605688
23.06977771,-4.967869263,-3.36754715,1.551224213,6.198902756
23.07978171,-4.84886673,-3.522624664,1.501078491,6.178481183
23.08978471,-4.902305603,-3.76302475,1.47548172,6.353739198
23.09978771,-5.02085907,-4.033063202,1.446741486,6.60058221
23.10979071,-5.186564484,-4.261338501,1.422641602,6.861732004
23.11979371,-5.406157837,-4.463268585,1.394051056,7.147774994
23.12979671,-5.696853333,-4.659660187,1.377435608,7.487583041
23.13980071,-6.090983734,-4.842280426,1.312919769,7.891230632
23.14980371,-6.580316162,-5.101840668,1.228195953,8.416519726
23.15980671,-6.989415436,-5.383405151,1.162033539,8.898499936
23.16980971,-7.202871552,-5.571114807,1.166075134,9.180327336
23.17981271,-7.244784393,-5.641468506,1.278341675,9.270772635
23.18981671,-7.12817688,-5.494174805,1.420995026,9.11131655
23.19981971,-6.918612671,-5.187163239,1.649420013,8.803093214
23.20982271,-7.043303375,-5.125940552,1.993255005,8.936243869
23.21982571,-7.551945648,-5.542075195,2.275717621,9.639780663
23.22982871,-8.160280609,-6.153852997,2.362836456,10.49014216
23.23983271,-8.564290466,-6.570736084,2.395917664,11.05721779
23.24983571,-8.873846741,-6.748715973,2.531086578,11.43226673
23.25983871,-9.129215698,-6.693780212,2.854264526,11.67459202
23.26984171,-9.314230957,-6.417155457,3.149001617,11.74099628
23.27984471,-9.308243408,-5.789810028,3.460204468,11.49514291
23.28984871,-9.098828888,-4.949906616,3.639830933,10.97900869
23.29985171,-8.971144409,-4.242328033,3.648812256,10.57320245
23.30985471,-9.17816391,-3.897445221,3.608396301,10.60421123
23.31985771,-9.593999176,-3.725901947,3.783532104,10.96550412
23.32986071,-10.06357269,-3.806434479,3.975133667,11.47022783
23.33986471,-10.55470139,-4.402195587,3.943848724,12.09690002
23.34986771,-10.83207458,-5.086422729,3.632346497,12.50597765
23.35987071,-10.97742233,-5.519621887,3.265908508,12.71362203
23.36987371,-11.33517838,-5.776787109,2.988984375,13.06872472
23.37987671,-11.83498901,-5.846242676,2.804268494,13.49479308
23.38988071,-12.2491777,-5.563181305,2.614163818,13.70493317
23.39988371,-12.34437973,-5.048850861,2.13890213,13.50738717
23.40988671,-12.20711517,-4.357288971,1.45796814,13.04320893
23.41988971,-11.84292252,-3.566932526,0.699944458,12.38820986
23.42989271,-11.33428024,-2.815944214,0.1459465027,11.67975817
23.43989671,-10.78252762,-2.297422485,-0.1213975525,11.02523421
23.44989971,-10.26879593,-1.964065704,-0.152233429,10.45604605
23.45990271,-9.775272217,-1.676813049,0.07918533325,9.918362729
23.46990571,-9.21094574,-1.404978333,0.4526586914,9.328471763
23.47990871,-8.734785919,-1.170416107,0.8858578491,8.857262729
23.48991171,-8.188571777,-0.9789642334,1.291514282,8.347400066
23.49991571,-7.653284912,-0.8158035278,1.601669312,7.861529745
23.50991871,-7.264543304,-0.7065307617,1.749861145,7.505650483
23.51992171,-6.957232361,-0.6776408386,1.748813324,7.205596941
23.52992471,-6.734944611,-0.7351213074,1.68729126,6.981893299
23.53992771,-6.611900482,-0.789458313,1.640588379,6.857988236
23.54993171,-6.496041412,-0.8488847351,1.542841644,6.730491785
23.55993471,-6.448440399,-0.9663903809,1.462758179,6.682511163
23.56993771,-6.463708649,-1.107846222,1.446741486,6.715646929
23.57994071,-6.565197601,-1.268312531,1.470691681,6.846412947
23.58994371,-6.675817566,-1.382225647,1.514849854,6.98368513
23.59994771,-6.844816132,-1.446891174,1.560953979,7.168094536
23.60995071,-7.108567657,-1.487905884,1.568288727,7.430015316
23.61995371,-7.44761261,-1.506467285,1.475930786,7.740461805
23.62995671,-7.853718109,-1.541195068,1.349743195,8.116524938
23.63995971,-8.278235321,-1.589095459,1.22864502,8.518448978
23.64996371,-8.63060257,-1.705253906,1.158890076,8.873455798
23.65996671,-9.00497406,-1.827998657,1.14317276,9.259480594
23.66996971,-9.490863647,-1.977537689,1.191372528,9.767625944
23.67997246,-10.0183667,-2.258353729,1.263372803,10.34717081
23.68997546,-10.54871384,-2.617307281,1.307980042,10.94698464
23.69997846,-11.07397156,-3.008892975,1.370400238,11.55700133
23.70998246,-11.6387471,-3.448678436,1.551074524,12.2376325
23.71998546,-12.31040039,-4.044589233,1.722019043,13.07172557
23.72998846,-12.87023621,-4.514462128,1.96930481,13.78047567
23.73999146,-13.28786774,-4.772525482,2.268233185,14.29997588
23.74999446,-13.55266708,-4.752616882,2.468666382,14.57245573
23.75999846,-13.64517471,-4.467908936,2.618504791,14.5948474
23.77000146,-13.70490051,-4.108057251,2.632276154,14.54748467
23.78000446,-13.94051056,-4.165088654,2.487826538,14.7605921
23.79000746,-14.26189224,-4.786895599,2.374961243,15.23011427
23.80001046,-14.28868652,-5.524561615,2.404749298,15.5071004
23.81001446,-13.97224457,-6.07391922,2.593506775,15.45452653
23.82001746,-13.63813934,-6.278394012,2.854863281,15.28290942
23.83002046,-13.13623306,-6.207441559,3.074007568,14.85067245
23.84002346,-12.49945724,-5.719456329,3.279979248,14.13176832
23.85002646,-12.14065338,-4.923860779,3.41904007,13.53993
23.86003046,-12.07973007,-4.438719635,3.342100067,13.29630563
23.87003346,-12.28210922,-4.356690216,3.037333832,13.38119402
23.88003646,-12.47775238,-4.627626801,2.710563354,13.58147223
23.89003946,-12.63028519,-5.212161255,2.451452179,13.88165504
23.90004246,-12.60244308,-5.911357269,2.382894745,14.12246097
23.91004646,-12.60902939,-6.434369659,2.454146576,14.36703068
23.92004946,-12.52385651,-6.669380951,2.677332458,14.43938133
23.93005246,-12.24768082,-6.612349548,2.855312347,14.20850663
23.94005546,-11.93692703,-6.233786774,2.945724335,13.78505047
23.95005846,-11.60416901,-5.669759674,2.969524841,13.25220702
23.96006246,-11.30389343,-5.090464325,2.921325073,12.73675681
23.97006546,-10.98939743,-4.614005127,2.76026001,12.23417077
23.98006846,-10.65544189,-4.191583557,2.490970001,11.71805215
23.99007146,-10.39767792,-3.726051636,2.247276764,11.27144266
24.00007446,-10.03303619,-3.304677887,2.090253296,10.76809501
24.01007746,-9.683213654,-3.000809784,2.001188507,10.33316222
24.02008146,-9.343869324,-2.769989777,1.957629089,9.940475288
24.03008446,-9.003327484,-2.542762299,1.88622757,9.543762379
24.04008746,-8.629704437,-2.378703461,1.83817749,9.1383218
24.05009046,-8.236172791,-2.321821747,1.784289551,8.741229185
24.06009346,-7.896678772,-2.254461823,1.691183167,8.384523495
24.07009746,-7.513924713,-2.231858826,1.633253632,8.006733156
24.08010046,-7.198081512,-2.245929565,1.600172424,7.7082507
24.09010346,-7.004533997,-2.285447388,1.533710632,7.525890949
24.10010646,-6.812633057,-2.346370697,1.475781097,7.354954416
24.11010946,-6.613846436,-2.499202881,1.462458801,7.219956057
24.12011346,-6.40383316,-2.624941406,1.479972382,7.077408762
24.13011646,-6.237978058,-2.806364136,1.429377594,6.987930324
24.14011946,-6.006110229,-3.005599823,1.313518524,6.843414447
24.15012246,-5.736670532,-3.201841736,1.323547668,6.701713044
24.16012546,-5.478906555,-3.378624115,1.347647552,6.576448272
24.17012946,-5.197342072,-3.448379059,1.393751678,6.391105263
24.18013246,-5.018014984,-3.522474976,1.434017944,6.296404672
24.19013546,-4.921765137,-3.673211517,1.440903625,6.30812636
24.20013846,-4.905898132,-3.876339111,1.452579346,6.419020809
24.21014146,-4.962779846,-4.117787018,1.476828918,6.615616175
24.22014546,-5.027595062,-4.379442902,1.386716309,6.810228657
24.23014846,-5.055137787,-4.520449677,1.374142456,6.919331674
24.24015146,-5.109474792,-4.606520691,1.360371094,7.012658201
24.25015446,-5.267546082,-4.830904083,1.345701599,7.272935362
24.26015746,-5.467979279,-5.113666077,1.261127472,7.592023488
24.27016046,-5.661826172,-5.349425812,1.250349884,7.888980096
24.28016446,-6.0423349,-5.584736481,1.331181793,8.334934767
24.29016746,-6.46236145,-5.750591583,1.431173859,8.768105707
24.30017046,-6.857090607,-5.860612793,1.566492462,9.155346664
24.31017346,-7.120842133,-5.816304932,1.777703247,9.364615559
24.32017646,-7.29193634,-5.615722046,2.051483917,9.429594686
24.33018046,-7.755971375,-5.566175079,2.30745163,9.821493267
24.34018346,-8.411308594,-5.919290771,2.406994629,10.56322577
24.35018646,-8.854536896,-6.542145538,2.370021515,11.26141616
24.36018946,-8.98746048,-7.001240845,2.274071045,11.6173671
24.37019246,-8.972491608,-7.079228668,2.39516922,11.67723939
24.38019646,-8.627309418,-6.730453949,2.734363861,11.27857366
24.39019946,-8.208330688,-5.945785675,3.209176483,10.6314568
24.40020246,-8.144862671,-5.077890472,3.702251129,10.28739146
24.41020546,-8.404871979,-4.447102203,4.039050751,10.3311433
24.42020846,-8.554261322,-3.751049652,4.098626862,10.2002207
24.43021246,-8.753646698,-3.373235321,4.026925964,10.2088775
24.44021546,-9.203760681,-3.639232178,3.952830048,10.65730205
24.45021846,-9.797426147,-4.456083527,3.74311615,11.39548849
24.46022146,-10.33256332,-5.41049881,3.509002991,12.17983843
24.47022446,-10.80108902,-5.942791901,3.487747192,12.81189604
24.48022846,-11.54384445,-6.382727051,3.575315094,13.66683677
24.49023146,-12.25546463,-6.552623749,3.545077972,14.34227559
24.50023446,-12.65633102,-6.274801483,3.262914734,14.49836064
24.51023746,-12.638069,-5.767805786,2.6701474,14.14630902
24.52024046,-12.32506989,-5.003794556,1.839225311,13.42862828
24.53024446,-11.91447372,-4.069437561,1.058598633,12.63469973
24.54024746,-11.59698395,-3.245401154,0.5426216125,12.0547544
24.55025046,-11.23847946,-2.587219849,0.2351609802,11.53483541
24.56025346,-10.89659042,-2.044298859,0.2173480225,11.08882685
24.57025646,-10.52311707,-1.598076782,0.4637356567,10.65386751
24.58025946,-10.07120682,-1.184486847,0.6909631348,10.16413528
24.59026346,-9.648785248,-1.030606842,1.064586182,9.761892796
24.60026646,-9.208101654,-1.011596375,1.479673004,9.380932549
24.61026946,-8.691675568,-0.9886940002,1.902992706,8.952324907
24.62027246,-8.058492279,-0.9385482788,2.218237152,8.410751854
24.63027546,-7.433092804,-0.965791626,2.291434937,7.838003328
24.64027946,-7.044650574,-1.077908478,2.113904114,7.433544175
24.65028246,-6.698270874,-1.225202179,1.814975739,7.047133461
24.66028546,-6.413862305,-1.284029846,1.491498413,6.709018544
24.67028846,-6.290818176,-1.356329498,1.133592682,6.534451423
24.68029167,-6.227350159,-1.513802032,0.8740324402,6.468030558
24.69029567,-6.116131439,-1.573527832,0.7668553162,6.361691654
24.70029867,-6.114933929,-1.63699585,0.7288343811,6.372077521
24.71030167,-6.190526733,-1.774859161,0.6909631348,6.476895578
24.72030467,-6.359824677,-1.93996582,0.6677613831,6.682570057
24.73030767,-6.621031494,-2.049388275,0.7098239136,6.967201758
24.74031167,-6.918013916,-2.185605011,0.725690918,7.291255935
24.75031467,-7.211703186,-2.285896454,0.8186476135,7.609478915
24.76031767,-7.57394989,-2.386038208,0.9698332214,7.999904484
24.77032067,-8.138575745,-2.556383972,1.18179245,8.6120931
24.78032367,-8.707692261,-2.766696625,1.347348175,9.235467602
24.79032667,-9.175469513,-3.009192352,1.438358917,9.762855923
24.80033067,-9.645641785,-3.319347382,1.534159698,10.31552803
24.81033367,-10.108629,-3.622317352,1.709894257,10.87332983
24.82033667,-10.59856018,-3.944297791,1.949096832,11.47544951
24.83033967,-11.16303635,-4.312532043,2.186503143,12.16520074
24.84034267,-11.69038971,-4.641847229,2.395019531,12.80422102
24.85034667,-12.20322327,-4.916376343,2.634671173,13.41755964
24.86034967,-12.60873001,-4.828209686,2.836451569,13.79627264
24.87035267,-12.95211594,-4.548890533,2.980601807,14.04755137
24.88035567,-13.47408051,-4.297413483,3.043770447,14.46662181
24.89035867,-14.1880957,-4.427792358,2.951711884,15.15321774
24.90036267,-14.78610214,-5.017565918,2.764600983,15.85710575
24.91036567,-15.0082402,-5.664670258,2.664159851,16.26141171
24.92036867,-14.73236389,-6.081852722,2.575244751,16.14507243
24.93037167,-14.50034637,-6.519392853,2.466121674,16.08863836
24.94037467,-14.44645844,-6.715335388,2.378553772,16.1075575
24.95037867,-14.29931442,-6.405779114,2.398612061,15.8511116
24.96038167,-14.18510193,-5.547164612,2.433339844,15.42430857
24.97038467,-14.04903488,-4.768034821,2.311193848,15.01503094
24.98038767,-14.1867485,-4.655169525,1.873953094,15.04812735
24.99039067,-14.35260361,-4.698878632,1.539997559,15.18052315
25.00039367,-14.3645787,-4.999453583,1.376387787,15.27187287
