Time (s),Acceleration x (m/s^2),Acceleration y (m/s^2),Acceleration z (m/s^2),Absolute acceleration (m/s^2)
15.00228475,1.179247742,-1.271455994,-3.907174988,4.274721273
15.01228675,1.458566895,-1.581461334,-2.475552063,3.27975538
15.02228975,2.125879211,-1.686692505,-0.6574328613,2.792223486
15.03229175,2.960094452,-1.527274017,-0.7753875732,3.419934353
15.04229475,3.259022827,-1.068478088,-1.193917236,3.631571778
15.05229675,2.897973633,-0.6791377258,-0.4761598206,3.014333658
15.06229975,2.633773041,-0.4948709106,0.4234693909,2.713113336
15.07230175,2.963387604,-0.1263372803,0.06047424316,2.966695861
15.08230475,2.70876709,0.3025209045,-0.4713697815,2.766067157
15.09230675,2.158511353,0.264200592,-0.4221221924,2.215211132
15.10230875,1.634301453,0.1555265808,-0.05328918457,1.642549693
15.11231175,0.899329834,-0.2076182556,0.867146759,1.266429229
15.12231375,0.5842350769,-0.1890568542,0.6044430542,0.8616406008
15.13231675,0.6423143005,1.10335556,-0.7183561707,1.464922094
15.14231875,-0.2975811768,0.1374142456,-0.978664856,1.03209599
15.15232175,-0.2386038208,-0.2393522644,-0.7364685059,0.810312995
15.16232375,0.1228944397,0.09220825195,-0.9551637268,0.9674415486
15.17232675,0.0896635437,-0.1836680603,-0.06915618896,0.2157685934
15.18232875,-0.117355957,-0.1529818726,0.6185137939,0.6478697302
15.19233075,0.09445358276,0.120050354,-0.02903961182,0.1554891181
15.20233375,0.144150238,-0.1016386414,-0.06242019653,0.1870988655
15.21233575,-0.3058140564,-0.5034031677,0.4168830872,0.7216151985
15.22233875,-0.5755531311,-0.4090992737,0.1148112488,0.7154056509
15.23234075,-0.8637039185,-0.001197509766,0.03592529297,0.8644515715
15.24234375,-1.113235016,0.2794688416,0.4311035156,1.226069034
15.25234575,-1.629661102,0.5629792786,0.7361691284,1.874749573
15.26234875,-2.329904938,0.763711853,0.6405180359,2.534161827
15.27235075,-2.704725494,0.8595126343,0.7354206848,2.931747866
15.28235275,-2.758463745,1.03674408,1.198557587,3.181273457
15.29235575,-7.005881195,1.072070618,2.343825989,7.464933154
15.30235775,-15.66971466,2.408790894,2.959346008,16.12761482
15.31236075,-25.8043895,9.157506866,2.683769073,27.51234388
15.32236275,-36.92147141,18.59822479,-1.296304321,41.36144849
15.33236575,-39.51527756,14.20620804,0.2357597351,41.99201222
15.34236775,-30.48785019,8.249644775,2.184706879,31.6597314
15.35237075,-27.50694901,6.812932434,4.52583847,28.69723864
15.36237275,-33.68145905,7.444020081,9.819430389,35.86468084
15.37237475,-39.09809509,7.851023712,13.57122849,42.1245517
15.38237775,-44.84000473,6.803202667,18.39000778,48.93977909
15.39237975,-29.84044647,6.545139313,17.81131119,35.36288875
15.40238275,-9.652377777,4.518503723,7.175927582,12.84831543
15.41238475,-17.63886978,6.176755371,9.941875763,21.16891418
15.42238775,-47.71283066,9.469308472,18.81198029,52.1543154
15.43238975,-45.36645996,9.51870575,14.88863892,48.68668213
15.44239275,-21.64663559,6.876699829,9.538913727,24.6344618
15.45239475,-14.31997147,5.344635773,8.159232788,17.32627467
15.46239675,-12.72818161,4.863236847,6.511159973,15.10141993
15.47239975,-11.91372528,4.98687973,4.235891418,13.59222556
15.48240175,-10.00579285,4.935835876,2.733765106,11.48702912
15.49240475,-8.382418671,4.171674957,1.650916901,9.507541287
15.50240675,-7.399562531,3.09601181,0.9557624817,8.077889371
15.51240975,-6.289770355,2.308948517,0.5141807556,6.719883647
15.52241175,-5.216801605,1.70600235,-0.1830693054,5.491718982
15.53241475,-4.345613251,1.106499023,-0.9409432983,4.581928514
15.54241675,-3.201093292,0.5688171387,-1.199006653,3.465280386
15.55241975,-2.208657074,0.07559280396,-1.334175568,2.581454007
15.56242175,-1.482217712,-0.3373983765,-1.737436981,2.308569747
15.57242375,-0.5035528564,-0.8620573425,-2.819985809,2.991492655
15.58242675,0.3158432007,-0.8792715454,-3.659889221,3.777256212
15.59242875,0.8741821289,-0.7274871826,-4.416715393,4.560790157
15.60243175,0.9672885132,-0.7729925537,-4.134252777,4.315693523
15.61243329,0.929866333,-0.918639679,-2.930755463,3.20903067
15.62243629,0.9919871521,-1.203497314,-1.582958221,2.222206342
15.63243829,1.076261902,-1.436113586,0.2387535095,1.810459929
15.64244129,1.571881256,-1.434916077,0.9714797974,2.339565735
15.65244329,2.13545929,-1.168619843,0.6557862854,2.521093883
15.66244529,2.734962616,-0.8878038025,0.3646417236,2.898478858
15.67244829,3.157683563,-0.7427554321,0.08652008057,3.245017233
15.68245029,2.952460327,-0.4004173279,0.3938310242,3.005404947
15.69245329,2.399210815,-0.2212399292,0.5120851135,2.463207423
15.70245529,2.178120575,-0.08397537231,-0.283510437,2.198099013
15.71245829,1.910177765,0.09924362183,-1.152902527,2.233341135
15.72246029,1.163829803,0.2576142883,-1.142873383,1.651370492
15.73246329,0.1378633118,-0.02859054565,0.05807922363,0.1523053126
15.74246529,0.8922944641,0.05343887329,0.8080197144,1.204965138
15.75246729,1.306333466,1.032253418,-1.876946869,2.508980628
15.76247029,0.3797602844,1.124910736,-1.680106201,2.057279486
15.77247229,0.1314266968,0.5057981873,-0.8195457458,0.9719876606
15.78247529,0.1919009399,0.7900570679,0.02874023438,0.8135368107
15.79247729,-0.2653981018,0.5641767883,0.8042774963,1.017641338
15.80248029,-0.2839595032,0.2585124207,0.5876779175,0.7020163857
15.81248229,-0.3918850708,0.02694396973,0.2113604736,0.4460640493
15.82248529,-0.3110531616,0.05014572144,0.008981323242,0.3151972825
15.83248729,-0.3611988831,0.3056643677,-0.03353027344,0.4743623278
15.84248929,-0.7295828247,0.6033952332,0.2267784119,0.9735529537
15.85249229,-1.075812836,0.9306147766,0.2281256104,1.440645138
15.86249429,-1.242566071,1.055155792,0.2971321106,1.656988738
15.87249729,-1.353335724,1.153351593,0.8922944641,1.989453917
15.88249929,-1.713337097,1.447938995,2.04175415,3.033283922
15.89250229,-2.842588806,1.915865936,2.226769409,4.087707843
15.90250429,-6.397695923,3.519032135,2.817441101,7.826370464
15.91250729,-29.62100281,10.08018814,6.131998444,31.88440693
15.92250929,-43.26872223,16.88668396,-3.85313736,46.60674936
15.93251129,-43.05107483,14.06969193,0.6047424316,45.29588269
15.94251429,-33.12566483,9.112450562,5.250331879,34.75503431
15.95251629,-25.66173615,10.57071808,7.495213623,28.74792184
15.96251929,-30.0922229,11.4184053,11.60042679,34.21245037
15.97252129,-37.53474609,11.59009827,15.7009996,42.30495161
15.98252429,-39.41363892,11.79187866,18.54792938,45.12769681
15.99252629,-30.20868073,9.438921661,14.62024704,34.86272016
16.00252929,-11.50312912,4.987478485,4.07886795,13.18461546
16.01253129,-12.32147736,4.024830322,3.546724548,13.43865017
16.02253329,-39.6169162,7.580835571,12.92038193,42.35452026
16.03253629,-52.18313461,9.851164398,16.77681244,55.69188822
16.04253829,-29.06490921,7.780220947,11.29176865,32.13728091
16.05254129,-14.65138229,5.665119324,6.796316986,17.11568008
16.06254329,-11.82525925,5.396727448,4.889132996,13.887586
16.07254629,-11.02861588,5.524860992,3.497177582,12.82126001
16.08254829,-11.34401001,5.475763092,2.551444244,12.8522532
16.09255129,-10.20188507,4.290527802,3.7676651,11.69112433
16.10255329,-8.639134827,2.752326508,2.953807526,9.535980844
16.11255529,-7.032974854,1.965562592,-0.001796264648,7.302477307
16.12255829,-5.414690094,1.542093201,-0.6709048462,5.669835409
16.13256029,-4.275558929,1.127455444,0.4770579529,4.447374982
16.14256329,-2.732866974,0.7467970276,0.8912466431,2.969947521
16.15256529,-1.5129039,0.206869812,-0.06750961304,1.528473382
16.16256829,-0.287252655,-0.2418969727,-1.57607254,1.620195323
16.17257029,0.3492237854,-0.6161187744,-3.194057922,3.27163042
16.18257329,1.098415833,-1.033450928,-2.978057098,3.338167498
16.19257529,1.474134521,-1.588197327,-2.292033691,3.154181634
16.20257829,1.483115845,-1.949845276,-1.693727875,2.978295372
16.21258029,1.89790329,-1.916464691,-1.487756195,3.080307177
16.22258229,2.133962402,-1.473535767,-1.429227905,2.961046368
16.23258529,2.182311859,-1.07880661,-0.8969348145,2.594378695
16.24258729,2.180515594,-0.6176156616,0.04176315308,2.266680728
16.25259029,2.276316376,-0.2877017212,0.3953279114,2.328233811
16.26259229,2.017654266,-0.06062393188,0.1927990723,2.027751336
16.27259529,1.638343048,0.2323168945,-0.1883084106,1.665412604
16.28259729,1.395997009,0.4444258118,-0.1933978271,1.477743101
16.29260029,1.032253418,0.2456391907,-0.36389328,1.121741526
16.30260229,0.3314108276,0.04101470947,-0.6405180359,0.722342507
16.31260429,-0.1884580994,0.2237846375,-0.3749702454,0.4756035156
16.32260729,-0.2791694641,0.2457888794,0.119002533,0.3905244753
16.33260929,-0.2701881409,0.2124082947,0.3938310242,0.5227062184
16.34261229,-0.2773731995,0.1369651794,0.4924758911,0.5815736028
16.35261429,-0.2788700867,-0.03263214111,0.536484375,0.6055153726
16.36261729,-0.1196012878,-0.1757345581,0.1713935852,0.273062015
16.37261929,0.02320175171,-0.1185534668,-0.09430389404,0.1532529615
16.38262229,0.001047821045,-0.1517843628,-0.1805245972,0.2358574165
16.39262429,-0.03802093506,-0.1907034302,-0.297431488,0.3553573974
16.40262629,-0.168848877,-0.2818638611,-0.5222639465,0.6170225355
16.41262929,-0.3920347595,-0.3519181824,-0.8312214661,0.9841071006
16.42263129,-0.8828640747,-0.2791694641,-1.012793884,1.372274031
16.43263429,-1.804946594,-0.0715512085,-0.9966275024,2.063060387
16.44263629,-3.024011536,0.2125579834,-0.8249345398,3.141710308
16.45263929,-3.905378723,0.5132826233,-0.1327738953,3.941201711
16.46264129,-5.667214966,0.8961863708,0.2392025757,5.742620774
16.47264429,-7.899522858,1.261277161,0.3956272888,8.009357178
16.48264629,-11.42798538,1.768422546,0.7403604126,11.58767888
16.49264829,-16.37205414,3.905378723,2.093097382,16.96104939
16.50265129,-21.79422867,10.59631485,1.142873383,24.26059462
16.51265329,-30.14386551,14.80885483,-2.279609528,33.66231467
16.52265629,-33.7802536,13.58290421,0.6227050781,36.41412613
16.53265829,-32.05134888,11.52558243,2.978356476,34.19062185
16.54266129,-31.04888351,9.869127045,6.111191711,33.14784307
16.55266329,-37.03254044,9.335636444,9.015901337,39.24091788
16.56266629,-39.28819977,8.828640747,12.68746628,42.21941898
16.57266829,-28.30748428,7.088808746,14.56710754,32.6154181
16.58267029,-21.88823318,5.078938293,13.62556549,26.27824958
16.59267329,-36.90874786,6.388415222,12.83595749,39.59582456
16.60267529,-46.30455917,6.889872437,12.10472809,48.35397589
16.61267838,-31.15067184,7.021748199,9.554331665,33.33098495
16.62268037,-17.93031372,6.389463043,6.31611557,20.05529117
16.63268337,-15.30567169,6.265371094,5.473966827,17.42075698
16.64268538,-15.14310974,6.33602417,5.35316803,17.26601815
16.65268837,-14.2000708,5.648354187,4.445755005,15.91573603
16.66269038,-12.31623825,4.632865906,3.103645935,13.51982948
16.67269237,-10.07629623,3.62605957,2.444117432,10.98425072
16.68269537,-7.766748962,2.676883392,2.01600769,8.458864058
16.69269738,-5.826184387,1.772015076,1.367556152,6.241367781
16.70270037,-4.269272003,0.940045166,0.6167175293,4.414828294
16.71270237,-3.111729126,0.2791694641,-0.3486250305,3.143617845
16.72270537,-2.143841858,-0.09744735718,-0.8756790161,2.317836845
16.73270737,-1.010548553,-0.2534230042,-0.4881349182,1.150524792
16.74271038,-0.7509883118,-0.5899232483,-1.913620605,2.138676391
16.75271237,0.1938468933,-0.5676196289,-2.168540497,2.249963677
16.76271437,1.091380463,-0.569715271,-3.268602905,3.492771358
16.77271737,1.373992767,-0.8454418945,-3.649411011,3.990091333
16.78271937,1.499581604,-1.154399414,-2.563868408,3.186660354
16.79272238,1.740730133,-1.33627121,-1.490899658,2.65302543
16.80272437,1.932331696,-1.062191162,-0.8107141113,2.349343146
16.81272737,2.208357697,-0.8256829834,-1.094523926,2.59934198
16.82272937,2.242337036,-0.6402186584,-0.5309458923,2.391622641
16.83273237,2.334245911,-0.3134481812,-0.03068618774,2.355397074
16.84273438,1.880240021,-0.1014889526,0.7179071045,2.0151906
16.85273637,1.98442337,0.02514770508,0.7831713867,2.133524301
16.86273937,1.863175507,0.1016386414,-0.167202301,1.873422
16.87274138,1.483564911,0.106129303,-0.6339317322,1.616817156
16.88274437,1.102307739,0.02544708252,-0.6715036011,1.290986829
16.89274638,0.6818321228,-0.09624984741,-0.2368075562,0.7281736712
16.90274937,0.1172062683,-0.3891906738,1.487007751,1.541557246
16.91275137,-0.5438191223,-0.3173400879,2.059267731,2.153375851
16.92275437,0.2194436646,0.7837701416,-1.132993927,1.395036342
16.93275637,0.05942642212,0.4064048767,-1.655557251,1.705745067
16.94275838,0.05538482666,-0.06137237549,-0.8391549683,0.8432171181
16.95276137,0.3049159241,0.1862127686,-1.312470703,1.360230959
16.96276337,0.137713623,0.1851649475,-0.9343569946,0.9624313447
16.97276638,0.01496887207,0.2650987244,-0.3195854187,0.4154951752
16.98276837,-0.2076182556,0.3315605164,-0.06391708374,0.3963875751
16.99277138,-0.172591095,0.2186952209,-0.09819580078,0.2953941452
17.00277337,-0.462538147,0.146844635,-0.5140310669,0.7069178325
17.01277637,-1.274898834,0.2574645996,-0.8509803772,1.554291691
17.02277838,-1.778152313,0.274379425,-0.4415817261,1.852593895
17.03278137,-2.567910004,0.3659889221,0.05882766724,2.594527004
17.04278338,-3.029550018,0.7821235657,-0.2240840149,3.136894042
17.05278537,-3.015179901,1.145867157,0.2802172852,3.2377219
17.06278837,-4.486620026,1.682800598,2.220332794,5.281236108
17.07279038,-18.0102475,3.379821625,5.702391815,19.19139082
17.08279337,-29.64884491,12.38524475,2.223925323,32.20860344
17.09279537,-41.75207611,17.76221329,-2.149080963,45.42411947
17.10279837,-42.37942154,12.3925795,1.609153748,44.18348982
17.11280037,-33.90644119,8.241711273,5.60584259,35.34116623
17.12280338,-33.60856064,8.194259949,8.390950928,35.59619786
17.13280537,-37.97692657,9.197324066,13.03579193,41.19186319
17.14280837,-43.2318988,9.77138031,18.42877716,48.00100806
17.15281037,-33.51186172,10.51907547,18.37473953,39.63996566
17.16281237,-12.09484863,6.486611023,9.10092453,16.46779625
17.17281538,-19.95635056,6.924300842,10.74315948,23.69846715
17.18281737,-49.37826736,8.998238068,17.52884857,53.16429355
17.19282037,-43.91163528,8.865015106,14.27281952,47.01631188
17.20282237,-19.9756604,6.906936951,8.414751434,22.74952369
17.21282537,-13.89380768,5.367388458,5.890849915,16.0171428
17.22282738,-11.37275024,5.148244171,3.815116425,13.05369601
17.23283037,-10.27238846,4.968917084,2.869682465,11.76635794
17.24283237,-9.458081818,4.425547028,1.594035187,10.56322519
17.25283438,-8.030500488,3.447929993,0.8351133728,8.779212588
17.26283737,-6.280489655,2.232008514,0.3993695068,6.677268028
17.27283938,-4.778363342,1.145268402,-1.02267334,5.01898961
17.28284237,-3.657344513,0.4013154602,-1.803749084,4.097649783
17.29284437,-1.908531189,0.2329156494,-0.2646496582,1.940819528
17.30284738,-1.408271484,-0.2552192688,-1.88503006,2.366791874
17.31284937,-0.3062631226,-0.3680845642,-2.159858551,2.21230023
17.32285238,0.6948550415,-0.4923262024,-3.296295319,3.404522205
17.33285437,1.09632019,-0.6559359741,-3.931274872,4.133653599
17.34285737,1.228794708,-0.7930508423,-3.175945587,3.49649774
17.35285938,1.382674713,-0.8958869934,-2.256707153,2.7941242
17.36286137,1.467398529,-1.039588165,-1.276395721,2.205263711
17.37286438,1.581012268,-0.9723779297,-0.4457730103,1.90888245
17.38286637,1.868863678,-0.756227417,0.0173638916,2.016143065
17.39286937,1.821562042,-0.4833448792,0.09056167603,1.886772897
17.40287138,1.657952271,-0.3330574036,0.4628375244,1.753268815
17.41287437,1.744921417,0.0426612854,0.5050497437,1.817043197
17.42287637,1.616039429,0.2008822632,0.3664379883,1.66919559
17.43287937,1.520538025,0.1866618347,0.2514770508,1.552455871
17.44288137,1.686243439,0.2046244812,-0.4504133606,1.757316223
17.45288438,1.704954529,0.2532733154,-0.7059320068,1.862621088
17.46288637,1.362766113,0.1660047913,-0.2002835083,1.387372536
17.47288837,0.7758366394,-0.03562591553,0.0347277832,0.7774302
17.48289137,0.7566764832,0.05867797852,-0.6685098267,1.011389042
17.49289337,0.5532495117,-0.02290237427,-0.8050259399,0.9770753834
17.50289638,0.4183799744,-0.3456312561,-0.7884104919,0.9571279287
17.51289837,0.5507048035,-0.2216889954,-0.8686436462,1.052123365
17.52290137,0.666713562,-0.2294728088,-0.5742059326,0.9093278819
17.53290337,0.2601589966,-0.6695576477,0.6524931335,0.9704315723
17.54290637,-0.1472937012,-0.880019989,1.604663086,1.836048538
17.55290838,0.7746391296,-0.2883004761,-0.3965254211,0.9167417059
17.56291137,0.2356100464,-0.8502319336,-1.299747162,1.570907101
17.57291337,-0.04251159668,-1.020727386,-1.514550476,1.826897583
17.58291538,0.05897735596,-1.074016571,-1.295555878,1.683880921
17.59291837,-0.6665638733,-0.4040098572,-1.525028687,1.712671555
17.60292038,-1.755249939,0.9184899902,-1.249152374,2.341988015
17.61292317,-2.817890167,1.625769196,0.2820135498,3.265449757
17.62292517,-3.331172791,1.835034027,1.920206909,4.260429159
17.63292817,-3.601360931,2.038760376,2.1950354,4.684498355
17.64293017,-3.870501251,2.493215332,2.363435211,5.175203245
17.65293317,-6.638395386,3.853436737,3.863765259,8.593366625
17.66293517,-21.85649918,9.059011688,6.304888916,24.4851766
17.67293817,-35.96436172,17.93315781,-1.024020538,40.2005234
17.68294017,-41.07982407,16.33238663,-1.478924561,44.23218304
17.69294217,-32.48933807,9.846374359,2.315534821,34.02748709
17.70294517,-26.18699387,7.285050659,4.214485931,27.50622661
17.71294717,-28.94620605,8.418942719,8.716823273,31.38063813
17.72295017,-35.27744019,8.505911865,13.01453613,38.55160792
17.73295217,-43.26288437,7.993227997,17.55130188,47.36683497
17.74295517,-38.04189148,7.107819214,18.40108475,42.85214722
17.75295717,-19.19817719,5.10154129,9.500892792,22.01959797
17.76296017,-7.271578674,4.516857147,3.135230255,9.116332797
17.77296217,-22.21470428,6.12421463,7.986492004,24.38817635
17.78296517,-51.26314774,7.628885651,16.93233902,54.52352077
17.79296717,-39.57650024,9.39581131,12.01865707,42.41495915
17.80296917,-16.93982346,7.832911377,6.379134521,19.72322176
17.81297217,-12.93714706,7.052733765,5.572162628,15.75308935
17.82297417,-13.37813004,6.91172699,4.835843811,15.81555306
17.83297717,-14.46666641,6.015091553,4.268822937,16.2384917
17.84297917,-14.30485291,4.670288086,3.795207825,15.51914978
17.85298217,-12.55035141,3.189567261,3.668122101,13.45881791
17.86298417,-10.42492126,2.213447113,3.263214111,11.14571208
17.87298717,-8.435857544,1.624421997,2.740201721,9.017269254
17.88298917,-6.594386902,1.103505249,2.221230927,7.04539064
17.89299217,-5.223687286,0.7432044983,1.320853271,5.439109776
17.90299417,-3.987258453,0.3969744873,0.5619314575,4.046181617
17.91299617,-2.778522034,0.08981323242,0.1426533508,2.783630918
17.92299917,-1.672472076,-0.2752775574,-0.0904119873,1.697384726
17.93300117,-0.5396278381,-0.4933740234,-0.3953279114,0.8312041195
17.94300417,0.4824467468,-0.5167254639,-0.2740800476,0.7582083757
17.95300617,0.605640564,-0.883762207,-3.08433609,3.265113359
17.96300917,1.526375885,-0.7244934082,-4.22167099,4.547221128
17.97301117,1.485211487,-1.019380188,-4.935835876,5.254280629
17.98301417,1.738933868,-1.42862915,-3.815116425,4.42944529
17.99301617,2.643053741,-1.681902466,-2.417023773,3.956833697
18.00301817,3.205883331,-1.531764679,-1.976789246,4.065917693
18.01302117,2.937790833,-1.263522491,-1.156644745,3.400725089
18.02302317,2.623743896,-0.666713562,-0.1167572021,2.709644119
18.03302617,2.079475708,-0.1056802368,0.5774990845,2.16076207
18.04302817,1.659299469,0.1119671631,0.3847000122,1.70698725
18.05303117,1.315614166,0.1469943237,0.7875123596,1.540332329
18.06303317,0.9854008484,-0.133971405,1.151255951,1.521299916
18.07303617,1.001267853,0.1475930786,-0.4799020386,1.120101333
18.08303817,0.5647755432,0.0007484436035,-1.727856903,1.817817772
18.09304117,0.02589614868,-0.1392105103,-1.657054138,1.66309308
18.10304317,0.2180964661,0.4373904419,-0.9891430664,1.103304343
18.11304517,0.1981878662,0.5135820007,-0.07933502197,0.5561824768
18.12304817,0.01841171265,0.3556604004,0.9383985901,1.003705746
18.13305017,-0.4616400146,-0.3583547974,3.507655792,3.556006021
18.14305317,0.3525169373,-0.255668335,1.473984833,1.53696642
18.15305517,0.2537223816,0.7171586609,-1.562151489,1.73752953
18.16305817,-0.6502478027,-0.2555186462,-0.9148974609,1.151151314
18.17306017,-0.4031117249,-0.1920506287,-1.066831512,1.156508531
18.18306317,-0.4987628174,-0.0758921814,-1.602118378,1.67967475
18.19306517,-1.15604599,0.3544628906,-1.112336884,1.642978884
18.20306817,-1.685794373,0.732127533,0.3739224243,1.875561615
18.21307017,-1.619931335,0.8626560974,1.432521057,2.32819021
18.22307217,-1.568588104,1.077758789,1.75510025,2.588901222
18.23307517,-1.671873322,1.35378479,2.123484192,3.022760125
18.24307717,-3.53714447,1.732048187,2.719993744,4.786412842
18.25308017,-12.6022934,3.419938202,4.380939789,13.77339499
18.26308217,-20.64461929,9.647887115,3.174149323,23.00776511
18.27308517,-31.74014603,16.8821933,0.004790039062,35.95059587
18.28308717,-35.69147919,14.63641342,1.898951111,38.62269151
18.29309017,-29.10248108,10.80992065,3.237317963,31.21360308
18.30309217,-25.18527695,9.235943756,5.178331604,27.32061402
18.31309517,-29.38404556,8.850195923,8.799451447,31.92457435
18.32309717,-36.53677139,9.162596283,13.87210281,40.14130131
18.33309917,-40.92654282,8.388406219,18.47982101,45.68206487
18.34310217,-36.72043945,7.675887909,18.67276978,41.90444201
18.35310417,-19.25939987,6.087241516,10.5292543,22.77815157
18.36310717,-13.35702393,5.533842316,7.851772156,16.4524717
18.37310917,-34.20087891,6.564000092,13.84680542,37.47692938
18.38311217,-45.95189255,7.261250153,13.87973694,48.54842201
18.39311417,-27.3279213,7.307354279,8.295449524,29.47926715
18.40311717,-14.63761093,6.905589752,6.98896637,17.62930726
18.41311917,-13.36735245,7.223528595,6.574178925,16.5555219
18.42312117,-13.0640831,7.587870941,5.134921875,15.95661228
18.43312417,-12.25232117,6.661746826,3.376079407,14.34908209
18.44312617,-10.27493317,5.056634674,2.648442535,11.75406541
18.45312917,-8.237070923,3.543431396,1.476529541,9.087650023
18.46313117,-6.799759827,2.391427002,0.5384303284,7.228109298
18.47313417,-5.063220978,1.559457092,0.1429527283,5.299863071
18.48313617,-3.497476959,0.8397537231,-0.3049159241,3.609779095
18.49313917,-2.254461823,0.348924408,-0.6466552734,2.371183121
18.50314117,-1.305884399,-0.06601272583,-1.251248016,1.809782678
18.51314417,-0.2718347168,-0.4567002869,-1.902992706,1.975816415
18.52314617,0.8277786255,-0.5972579956,-2.308798828,2.524378457
18.53314817,0.8906478882,-0.7503895569,-4.981490936,5.115817637
18.54315117,1.229543152,-0.7491920471,-4.411326599,4.640352083
18.55315317,1.389410706,-1.203048248,-3.37458252,3.842602553
18.56315617,1.797911224,-1.527124329,-1.493594055,2.792027344
18.57315817,2.678080902,-1.579216003,-0.7872129822,3.207139658
18.58316117,3.134032745,-1.426982574,-1.028960266,3.594050604
18.59316317,3.453318787,-1.231638794,-0.325872345,3.680833811
18.60316617,3.759282532,-0.6637197876,-0.1372645569,3.819891447
18.61316837,2.471660156,-0.01541793823,-0.5516029358,2.532510107
18.62317137,1.236279144,0.1595681763,0.1917512512,1.261196522
18.63317337,0.9964778137,0.0375718689,1.082848206,1.472052959
18.64317538,0.3141966248,0.0347277832,0.2008822632,0.3745386784
18.65317837,-0.005388793945,0.1609153748,-1.497785339,1.506414193
18.66318037,-0.3867956543,0.06466552734,-1.362915802,1.418214367
18.67318338,0.1323248291,0.3329077148,-0.5974076843,0.696586928
18.68318537,0.05852828979,0.3356021118,0.5855822754,0.6774665596
18.69318838,-0.01122665405,-0.1585203552,2.850821686,2.855247629
18.70319037,-0.2332150269,0.2308200073,3.92214386,3.935845472
18.71319337,-0.5116360474,1.247206421,-1.744172974,2.204412544
18.72319538,-0.1845661926,0.02424957275,-3.514541473,3.519467927
18.73319837,0.6147715759,-0.07319778442,-2.185006256,2.271024955
18.74320038,0.3421884155,0.3616479492,-1.119222565,1.224965836
18.75320237,0.08307723999,0.1642085266,-0.05284011841,0.191463694
18.76320537,-0.1297801208,0.04056564331,0.5730084229,0.5889202865
18.77320738,-0.7943980408,0.08382568359,0.2188449097,0.8282439779
18.78321037,-1.858385468,0.4189787292,-0.2167492676,1.917321039
18.79321237,-2.938688965,0.8659492493,0.1697470093,3.06831794
18.80321537,-3.993844757,1.35378479,0.7720944214,4.287150452
18.81321737,-5.275329895,1.592089233,1.008452911,5.601859593
18.82322038,-6.927893372,1.252445526,1.006357269,7.111756556
18.83322237,-10.08138565,1.526525574,2.183509369,10.42747957
18.84322537,-16.41726013,3.410657501,3.293151855,17.08812055
18.85322737,-23.46280884,10.51443512,0.6201603699,25.71850197
18.86323037,-31.61725159,14.12627426,-3.567830658,34.81280853
18.87323238,-33.36576553,10.60454773,-1.061742096,35.02653335
18.88323437,-31.10441803,9.868228912,2.043550415,32.6962209
18.89323737,-32.94124832,9.527238007,6.169270935,34.84184279
18.90323937,-36.44366501,9.088500366,8.968450012,38.61573065
18.91324237,-39.30691086,8.354277191,9.19223465,41.22286218
18.92324438,-38.58032181,6.772815857,8.646319885,40.11322865
18.93324737,-22.99563034,4.740492096,5.811365204,24.18766722
18.94324937,-17.88211395,4.894671478,3.023861847,18.78487553
18.95325237,-41.21304703,6.687493286,5.004542999,42.0509603
18.96325437,-45.66883118,6.14876358,7.769293671,46.73126746
18.97325738,-26.2223204,7.038812714,7.571554871,28.18658218
18.98325937,-19.88659561,7.900720367,6.644532623,22.406425
18.99326137,-18.44224915,7.529791718,5.018613739,20.54265807
19.00326438,-17.08591965,5.570366364,4.133354645,18.4402346
19.01326637,-16.162939,4.089795227,2.652933197,16.88209337
19.02326938,-13.80100067,3.530857544,1.424288177,14.31653489
19.03327137,-11.05376358,3.304528198,0.7339237976,11.5604602
19.04327437,-8.792416077,2.803220673,0.3505709839,9.235124613
19.05327638,-6.927743683,2.109413452,-0.2923420715,7.247670076
19.06327937,-5.345084839,1.348994751,-0.9428892517,5.592741628
19.07328138,-3.930077362,0.6448590088,-1.301244049,4.189819482
19.08328437,-2.482138367,0.1225950623,-1.221010895,2.768918205
19.09328637,-1.074315948,-0.3007246399,-1.289268951,1.704935335
19.10328838,-0.3866459656,-0.6393205261,-2.03831131,2.170930407
19.11329137,0.4779560852,-0.7023394775,-2.516417084,2.655951374
19.12329337,0.9262738037,-0.8882528687,-2.580334167,2.881857168
19.13329637,1.025966492,-1.127156067,-1.920655975,2.451939521
19.14329837,1.443298645,-1.290466461,-1.201251984,2.278469002
19.15330138,1.804796906,-1.361568604,-0.6680607605,2.357427859
19.16330337,2.271226959,-1.443747711,-0.7382647705,2.790683469
19.17330637,2.658022614,-1.350491638,-0.5418731689,3.030270353
19.18330837,2.758463745,-1.268611908,-0.1160087585,3.038413474
19.19331137,3.018473053,-1.216819611,-0.4752616882,3.2890277
19.20331338,2.433339844,-0.6664141846,0.2290237427,2.533318483
19.21331637,1.551972656,-0.2291734314,1.253792725,2.008266861
19.22331837,1.37833374,0.5688171387,0.2189945984,1.507088408
19.23332037,0.287252655,1.201401672,-1.202748871,1.724089589
19.24332337,-0.5619314575,0.560584259,-1.43446701,1.639425899
19.25332538,-0.1315763855,0.1058299255,-0.6349795532,0.6570474499
19.26332837,0.1207987976,0.1986369324,-0.3225791931,0.3976258496
19.27333037,0.119002533,0.1987866211,0.0513432312,0.237305396
19.28333337,0.3592529297,0.2049238586,0.3697311401,0.5547590209
19.29333537,0.3864962769,0.506995697,0.6062393188,0.8797443495
19.30333838,-0.1758842468,0.3257226562,2.728226624,2.753225568
19.31334037,-0.4929249573,0.8497828674,1.325343933,1.649740124
19.32334337,-0.9958790588,0.2185455322,-2.170785828,2.39830114
19.33334538,-1.064436493,-0.6355783081,-1.548978882,1.984016232
19.34334837,-0.5551954651,-0.04745132446,-1.889371033,1.969826523
19.35335038,-0.5448669434,0.00419128418,-1.561852112,1.654170358
19.36335237,-0.3032693481,0.08517288208,-0.9627978516,1.01301847
19.37335537,0.1899549866,0.02380050659,-0.6480024719,0.6756896955
19.38335738,0.5242098999,-0.06227050781,-0.603993988,0.8021735304
19.39336037,0.1797761536,-0.1248403931,-0.5881269836,0.6275332167
19.40336238,-0.8289761353,0.04670288086,-0.7337741089,1.108064544
19.41336537,-2.45953537,0.7225474548,-0.7385641479,2.667745502
19.42336737,-3.651356964,1.520687714,0.260458374,3.963929536
19.43337038,-4.311334534,1.917512512,1.347198486,4.907076875
19.44337237,-4.654720459,2.158062286,1.880389709,5.464386593
19.45337538,-9.006620636,1.930086365,2.291584625,9.491881202
19.46337737,-14.08795395,3.698957977,2.103425903,14.71655996
19.47337937,-23.84631134,12.26489502,0.05763015747,26.81562111
19.48338238,-37.0502037,16.45064072,-2.778372345,40.63324412
19.49338437,-38.17511444,11.60012741,-0.9255253601,39.90938381
19.50338737,-32.5580452,8.803942108,0.1196012878,33.72758527
19.51338937,-32.22109589,7.712262268,4.41357193,33.42390801
19.52339237,-35.44374435,8.496182098,8.624016266,37.45420912
19.53339438,-39.79968613,9.187294922,11.48666336,42.43070632
19.54339737,-36.64305038,9.921069031,12.15307755,39.86023138
19.55339937,-17.86564819,7.181466064,8.232131195,20.94093656
19.56340237,-20.76407089,6.18394043,6.655908966,22.66470568
19.57340437,-42.12959106,8.288563843,9.949659576,44.07491871
19.58340638,-50.12745941,7.122039642,11.58650574,51.93970303
19.59340937,-29.05338318,6.686595154,10.89793762,31.74231676
19.60341137,-16.81647995,5.689817963,7.301965485,19.19600808
19.61341454,-14.32101929,4.747976532,5.186115417,15.95401729
19.62341654,-13.97478928,4.148323517,3.954626312,15.10438322
19.63341954,-15.71417221,4.107907562,2.964585114,16.51056867
19.64342154,-15.19115982,4.079167328,2.84213974,15.98401392
19.65342454,-12.97756302,3.39089859,2.870131531,13.71688704
19.66342654,-10.36848862,2.510728912,2.100731506,10.87301194
19.67342954,-7.681127014,1.8194664,0.8863069153,7.943280817
19.68343154,-5.155878296,1.091979218,-0.2769241333,5.277517086
19.69343454,-3.38506073,0.6183641052,-0.7656578064,3.525229381
19.70343654,-1.723815308,0.09340576172,-1.366358643,2.201635708
19.71343854,-0.6231541443,-0.2887495422,-3.054398346,3.130662333
19.72344154,0.4411326599,-0.3391946411,-3.167113953,3.215627749
19.73344354,0.9882449341,-0.4544549561,-3.312312012,3.486340233
19.74344654,1.112037506,-0.8684939575,-2.496059418,2.867267303
19.75344854,1.385219421,-1.377285919,-0.6402186584,2.055633547
19.76345154,2.302062836,-1.403182068,-0.04415817261,2.696361096
19.77345354,2.545307007,-1.231638794,-0.08981323242,2.82906138
19.78345654,2.926863556,-1.032253418,-0.01257385254,3.103584298
19.79345854,2.861000519,-0.8663983154,0.1088237,2.991289456
19.80346154,2.359094238,-0.7222480774,0.806073761,2.595519759
19.81346354,2.733615417,-0.440533905,1.41815094,3.110928392
19.82346554,3.192411346,0.5514532471,0.4456233215,3.270194342
19.83346854,2.221230927,0.8144563293,-2.513423309,3.45173908
19.84347054,0.7785310364,0.3224295044,-1.914518738,2.091758437
19.85347354,0.6857240295,0.004490661621,-1.195414124,1.378133715
19.86347554,0.4155358887,0.1303788757,-0.7795788574,0.8929792388
19.87347854,-0.03158432007,0.3453318787,0.08442443848,0.3569021736
19.88348054,-0.159717865,0.4474195862,0.7523355103,0.8897768273
19.89348354,-0.4354444885,0.486638031,2.666405182,2.745204012
19.90348554,-0.6909631348,0.2577639771,3.742367706,3.814339834
19.91348854,-0.5387297058,0.4698728943,-0.1534309387,0.7311301428
19.92349054,0.3421884155,1.070424042,-2.126178589,2.404898321
19.93349354,0.6530918884,0.6165678406,-2.645149384,2.793474571
19.94349554,0.516126709,0.5625302124,-2.806364136,2.908351196
19.95349754,0.272283783,0.6276448059,-2.349065094,2.44666779
19.96350054,0.07349716187,0.3197351074,-0.6680607605,0.7442698109
19.97350254,0.1362167358,0.157023468,0.4058061218,0.4559495335
19.98350554,0.1727407837,-0.04969665527,0.5957611084,0.6222864567
19.99350754,0.1694476318,-0.176333313,0.2577639771,0.3553142343
