Time (s),Acceleration x (m/s^2),Acceleration y (m/s^2),Acceleration z (m/s^2),Absolute acceleration (m/s^2)
25.00858721,2.205513611,11.47184418,5.444029083,12.888171
25.01859021,1.558259583,10.82863174,4.960684204,12.01231977
25.02859421,1.312470703,10.03288651,4.733307037,11.17074691
25.03859721,1.514849854,9.662706299,4.793781281,10.89233685
25.04860021,2.00672699,9.974208527,5.073998566,11.36913587
25.05860321,2.611469421,10.90108109,5.252128143,12.37894145
25.06860621,3.083587646,12.03886505,5.290897522,13.50690124
25.07860921,3.464994507,13.04477325,5.207071838,14.46671674
25.08861221,3.729344788,13.68873413,4.959786072,15.02960188
25.09861521,3.759282532,13.74426865,4.635560303,14.98417649
25.10861821,3.686384125,13.328134,4.21119278,14.45554318
25.11862121,3.523822174,12.43089981,3.686533813,13.43633597
25.12862421,3.031495972,11.17635864,3.150049438,12.00099045
25.13862721,2.480192413,10.01148102,2.666105804,10.65313225
25.14863021,2.063908081,9.07981842,2.325114899,9.597342257
25.15863321,1.740580444,8.32987793,2.066901855,8.75720103
25.16863621,1.366208954,7.500003662,1.889520721,7.854098955
25.17863921,1.170715485,6.981032867,1.63579834,7.265069225
25.18864321,0.9487271118,6.503525848,1.519190826,6.745655814
25.19864621,0.5858816528,5.888604584,1.429676971,6.087930477
25.20864921,0.4125421143,5.358556824,1.24496109,5.516724603
25.21865221,0.2830613708,4.870122528,1.15020813,5.012104939
25.22865521,0.2510279846,4.416715393,1.054107971,4.547695408
25.23865821,0.2667453003,4.007466431,0.9282197571,4.122199918
25.24866121,0.2508782959,3.655997314,0.8511300659,3.762137514
25.25866421,0.2417472839,3.342249756,0.8261320496,3.451314147
25.26866721,0.2727328491,3.125201111,0.7744894409,3.231268959
25.27867021,0.2459385681,3.106789398,0.7292834473,3.2007
25.28867321,0.1014889526,3.356021118,0.632434845,3.416599418
25.29867621,-0.09295669556,3.892056427,0.5249583435,3.928399858
25.30867921,-0.1645079041,4.602479095,0.3597019958,4.619443928
25.31868221,-0.1878593445,5.265600128,0.2046244812,5.272922057
25.32868521,-0.1954934692,5.995332642,0.07634124756,5.999004848
25.33868821,-0.1871109009,6.854845276,0.01945953369,6.857426115
25.34869221,-0.09774673462,7.795339508,0.006137237549,7.795954729
25.35869521,0.08232879639,8.891809387,-0.007933502197,8.892194057
25.36869821,0.4273612976,9.99950592,-0.04146377563,10.00871998
25.37870121,1.015488281,11.00825821,-0.04011657715,11.05507009
25.38870421,2.061363373,11.79562088,0.193996582,11.97595614
25.39870721,3.269501038,12.20022949,0.496816864,12.64049302
25.40871021,4.30938858,12.26953537,0.8050259399,13.02921313
25.41871321,4.929848328,11.97599579,1.078058167,12.99577197
25.42871621,4.957391052,11.54115005,1.310973816,12.62903492
25.43871921,4.519551544,11.26153152,1.626218262,12.24308067
25.44872221,3.681893463,11.26677063,2.19159256,12.05402579
25.45872521,4.059558105,11.81058975,3.011886749,12.84684802
25.46872821,4.035158844,12.27896576,3.489842834,13.38784934
25.47873121,3.518882446,12.90571243,3.832929382,13.91514623
25.48873421,2.838846588,13.76327911,4.086202698,14.63502492
25.49873721,2.196831665,14.85406082,4.337829437,15.62964992
25.50874021,1.635199585,15.92059296,4.552632751,16.63927951
25.51874421,1.304986267,16.40723099,4.514761505,17.06702345
25.52874721,1.238524475,15.23591675,4.095034332,15.82518272
25.53875021,1.221010895,13.00151321,3.391497345,13.49194084
25.54875321,0.9458830261,10.87593338,2.805166626,11.27162727
25.55875621,0.3353027344,8.836873627,2.46073288,9.179214004
25.56875921,-0.3149450684,7.478149109,2.194736023,7.799921198
25.57876221,-0.7879614258,7.149881744,2.151176605,7.507945988
25.58876521,-1.404529266,7.406298523,2.694247284,8.005306284
25.59876821,-1.719474335,8.577463074,3.574416962,9.450181024
25.60877121,-1.816472626,10.67310516,4.544699249,11.74176468
25.61877421,-1.84760788,12.84044815,5.556145935,14.11245979
25.62877721,-1.992057495,14.377901,6.508166199,15.90750004
25.63878021,-2.299518127,14.42235855,7.090006256,16.23454337
25.64878321,-2.537822571,12.76620255,6.774013367,14.67323168
25.65878621,-2.599045258,10.76830719,5.715414734,12.4650488
25.66878921,-2.514920197,9.48233139,4.587809601,10.82993209
25.67879221,-2.159858551,8.733887787,3.560196533,9.675783389
25.68879621,-1.657652893,8.219257965,2.84333725,8.853732621
25.69879921,-1.102457428,7.946375427,2.27931015,8.339996977
25.70880221,-0.6457571411,7.886499939,1.896256714,8.136932659
25.71880521,-0.3983216858,7.224875793,1.869462433,7.473445001
25.72880821,-0.05388793945,6.66010025,1.828148346,6.906660961
25.73881121,0.4825964355,6.286028137,1.678160248,6.524053255
25.74881421,0.9526190186,6.018085327,1.607507172,6.301500877
25.75881721,1.353635101,5.789211273,1.502276001,6.132220506
25.76882021,1.768422546,5.514382782,1.428329773,5.96455042
25.77882321,2.159559174,5.243446198,1.407822418,5.842892076
25.78882621,2.467319183,4.941673737,1.322799225,5.679577542
25.79882921,2.797981567,4.719685364,1.161135406,5.60824092
25.80883221,3.147205353,4.65576828,0.935255127,5.696997627
25.81883521,3.483256531,4.686005402,0.7056326294,5.881295783
25.82883821,3.869603119,4.866230621,0.4129911804,6.23093817
25.83884121,4.32929718,5.269941101,-0.04355941772,6.820336554
25.84884421,4.583318939,5.787415009,-0.5700146484,7.404451477
25.85884721,4.594844971,6.31491806,-1.089883575,7.885343152
25.86885121,4.320764923,6.765032043,-1.580114136,8.181163044
25.87885421,3.821702728,7.1106633,-1.876946869,8.28793544
25.88885721,3.2341745,7.351811829,-1.950893097,8.26528921
25.89886021,2.742447052,7.58682312,-1.727856903,8.250235776
25.90886321,2.539918213,7.885302429,-1.304088135,8.386287903
25.91886621,2.509232025,8.447084198,-0.8363108826,8.851490987
25.92886921,2.498005371,9.252409515,-0.3680845642,9.59075591
25.93887221,2.494861908,10.20398071,0.1179547119,10.50521164
25.94887521,2.347268829,11.1450737,0.6587800598,11.40860771
25.95887821,2.094893646,11.86462738,1.294957123,12.11754415
25.96888246,1.866468658,12.40036331,1.985920258,12.6963221
25.97888546,1.713337097,12.98923874,2.778072968,13.3930406
25.98888846,1.729503479,13.64996475,3.623963928,14.22834616
25.99889146,1.885628815,14.14453629,4.456382904,14.94934284
26.00889446,1.805245972,14.29257843,5.318440247,15.35651386
26.01889746,1.432970123,14.20381302,6.119424591,15.53219447
26.02890146,1.037193146,14.25725189,6.598278809,15.74427783
26.03890446,1.041534119,14.39840836,6.682703247,15.90778046
26.04890746,1.618733826,14.1735759,6.375991058,15.62574206
26.05891046,2.617906036,13.32319427,5.862409058,14.78948199
26.06891346,3.312910767,12.40440491,5.331912231,13.90229934
26.07891646,3.392694855,11.40867554,4.738995209,12.81117994
26.08891946,3.056643677,10.41129959,4.202510834,11.63612165
26.09892246,2.771037598,9.678273926,3.941902771,10.81139367
26.10892546,2.72508316,9.335486755,3.988306274,10.51113591
26.11892846,2.994672546,9.536967773,4.302053833,10.88253119
26.12893146,3.362008667,10.16251694,4.662204895,11.67544463
26.13893446,3.579207001,10.94943054,4.78210556,12.4727417
26.14893746,3.676504669,11.65416504,4.732259216,13.10459945
26.15894046,3.806733856,12.28435455,4.61011322,13.66198131
26.16894346,3.943848724,12.74569519,4.41237442,14.05260605
26.17894646,3.911216583,12.77413605,4.142934723,13.98713963
26.18894946,3.709436188,12.38210129,3.789070587,13.46972179
26.19895346,3.262465668,11.65880539,3.407813416,12.57714664
26.20895646,2.717149658,10.74121353,3.1346315,11.5144468
26.21895946,2.399659882,9.86733078,2.95560379,10.57630266
26.22896246,2.165546722,9.17232605,2.805016937,9.833070619
26.23896546,1.94236084,8.668324127,2.569855957,9.247527694
26.24896846,1.661694489,8.113577728,2.301314392,8.5957792
26.25897146,1.50003067,7.563621368,2.039059753,7.97597799
26.26897446,1.396446075,7.076983337,1.752705231,7.423323408
26.27897746,1.273252258,6.596332855,1.525178375,6.889045473
26.28898046,0.9830058289,5.958808594,1.44853775,6.210632973
26.29898346,0.6671626282,5.40346344,1.403481445,5.622480172
26.30898646,0.4616400146,5.063071289,1.293909302,5.246141788
26.31898946,0.3243754578,4.829107819,1.192120972,4.98464183
26.32899246,0.2046244812,4.61714859,1.066083069,4.743043895
26.33899546,0.1695973206,4.525688782,0.9147477722,4.620323115
26.34899846,0.200433197,4.600982208,0.7289840698,4.66268469
26.35900146,0.2137554932,4.788242798,0.5969586182,4.830043488
26.36900546,0.232616272,5.051994324,0.5507048035,5.087242156
26.37900846,0.2932402039,5.348228302,0.5348377991,5.382897664
26.38901146,0.3384461975,5.677992554,0.5002597046,5.710026711
26.39901446,0.3776646423,6.057303772,0.5057981873,6.090106023
26.40901746,0.4207749939,6.439908142,0.5583389282,6.477747358
26.41902046,0.4590953064,6.88717804,0.5935157776,6.927932652
26.42902346,0.5864804077,7.448660431,0.5185217285,7.48968399
26.43902646,0.7957452393,8.093968506,0.4068539429,8.143160737
26.44902946,1.138083344,8.924142151,0.230969696,8.999382969
26.45903246,1.678010559,9.782756653,0.06706054688,9.92585232
26.46903546,2.307751007,10.35860916,0.1413061523,10.61350394
26.47903846,2.649939423,10.50246002,0.320483551,10.83635341
26.48904146,2.904859314,10.61562469,0.729433136,11.03003935
26.49904446,3.018473053,10.77294754,1.466500397,11.28353675
26.50904746,3.248095551,11.19013,2.409988403,11.89862086
26.51905046,3.330124969,11.75131302,3.394790497,12.67705378
26.52905346,3.358565826,12.30665817,4.289180603,13.45848691
26.53905746,3.327430573,12.74973679,4.91907074,14.06502184
26.54906046,3.193309479,12.98370026,5.162614288,14.33269982
26.55906346,2.816243591,13.05016205,4.822222137,14.19478016
26.56906646,2.175126801,13.2272438,4.128714294,14.02631231
26.57906946,1.526226196,13.76058472,3.657045135,14.31981275
26.58907246,1.102607117,14.38673264,3.460952911,14.83819441
26.59907546,0.952918396,14.80481323,3.475023651,15.23700554
26.60907846,1.263073425,14.65557358,3.712429962,15.17113468
26.61908146,1.668879547,13.88796982,3.877536621,14.5153765
26.62908446,1.479822693,12.42640915,3.62605957,13.02896111
26.63908746,1.012793884,10.57595718,3.085683289,11.06336582
26.64909046,0.6390211487,8.715326385,2.698288879,9.145820079
26.65909346,0.1606159973,7.244485016,2.482737122,7.659787481
26.66909646,-0.2549198914,6.866371307,2.355950775,7.263782977
26.67909946,-0.7550299072,7.853119354,2.636467438,8.318203791
26.68910246,-1.213975525,9.64264801,3.407064972,10.29866443
26.69910546,-1.50706604,11.82241516,4.364174652,12.69199625
26.70910946,-1.865420837,14.09454025,5.421126709,15.21592832
26.71911246,-2.334096222,15.61118637,6.367309113,17.02056904
26.72911546,-3.045267334,14.71544907,6.901847534,16.53643232
26.73911846,-3.407963104,11.85863983,6.616241455,14.00057864
26.74912146,-3.473526764,9.71988739,5.794151001,11.83696688
26.75912446,-3.026855621,8.05834259,4.732558594,9.823230176
26.76912746,-2.219883728,7.043153687,3.704646149,8.261858187
26.77913046,-1.469045105,6.778054962,2.987487488,7.551503432
26.78913346,-0.7872129822,6.723717957,2.434387665,7.194048286
26.79913646,-0.1158590698,6.684200134,2.056573334,6.994386938
26.80913946,0.4311035156,6.586154022,1.771266632,6.833788154
26.81914246,0.7833210754,6.286177826,1.569486237,6.526324434
26.82914546,0.9837542725,5.865402832,1.382824402,6.10597463
26.83914846,1.043629761,5.342989197,1.285377045,5.593647359
26.84915146,1.145118713,4.97984436,1.183439026,5.24506193
26.85915446,1.426234131,4.740941162,1.067280579,5.064558691
26.86915846,1.756447449,4.646936646,0.9608518982,5.059877884
26.87916146,2.109563141,4.681963806,0.8681945801,5.208147805
26.88916446,2.520009613,4.905149689,0.8454418945,5.579042383
26.89916746,2.954406281,5.274880829,0.7523355103,6.092527632
26.90917046,3.27503952,5.851332092,0.494122467,6.723698991
26.91917346,3.491639099,6.336772614,0.2619552612,7.239810171
26.92917646,3.639232178,6.639742584,0.01122665405,7.571678709
26.93917946,3.604354706,6.871760101,-0.2564167786,7.763904256
26.94918246,3.390599213,7.013665009,-0.4622387695,7.803930071
26.95918546,3.200344849,7.156468048,-0.580941925,7.860962765
26.96918733,3.082839203,7.424560547,-0.6855743408,8.068333722
26.97919033,2.968177643,7.862250366,-0.7571255493,8.437908416
26.98919333,2.830613708,8.436905365,-0.7050338745,8.926971428
26.99919633,2.689307556,8.974138184,-0.5150788879,9.382581603
27.00919933,2.534828796,9.462572479,-0.2005828857,9.798258439
27.01920233,2.403851166,9.965975647,0.169896698,10.25319638
27.02920533,2.289039917,10.55155792,0.5408253479,10.81053053
27.03920933,2.210004272,11.19626724,0.9548643494,11.45217381
27.04921233,2.130818939,11.91133026,1.472787323,12.18972028
27.05921533,2.020348663,12.84104691,2.113904114,13.16977164
27.06921833,1.922302551,13.82150803,2.831362152,14.2388884
27.07922133,1.823208618,14.65078354,3.642974396,15.20660417
27.08922433,1.619482269,15.07500137,4.463418274,15.80507804
27.09922733,1.19930603,14.84792358,5.319637756,15.81763938
27.10923033,0.5554948425,14.36637497,6.063740387,15.60353331
27.11923333,0.1318757629,14.07088943,6.709647217,15.58931321
27.12923633,0.4794529724,13.87988663,6.916217651,15.51499902
27.13923933,1.62996048,13.38426727,6.629863129,15.02499473
27.14924233,2.796334991,12.74494675,6.380332031,14.52452387
27.15924533,3.482059021,11.99590439,5.782924347,13.76476193
27.16924833,3.414399719,10.75154205,5.138514404,12.39589094
27.17925133,2.812201996,9.634115753,4.493505707,10.99619298
27.18925433,2.566413116,8.902137909,4.241878967,10.18960612
27.19925733,2.791694641,8.806187439,4.433779907,10.2469947
27.20926033,3.212619324,9.539512482,4.736151123,11.12449319
27.21926433,3.58863739,10.78851517,4.892875214,12.37782718
27.22926733,3.842359772,12.07853256,4.82895813,13.56368365
27.23927033,3.835923157,12.96259415,4.585115204,14.2746781
27.24927333,3.738176422,13.52287903,4.314328308,14.67840757
27.25927633,3.64252533,13.64367783,3.955973511,14.66518537
27.26927933,3.389102325,13.07890228,3.655548248,13.99666862
27.27928233,3.043471069,11.94426178,3.507655792,12.81529378
27.28928533,2.707419891,10.75812836,3.472029877,11.62421781
27.29928833,2.317630463,9.76314743,3.458557892,10.61376848
27.30929133,1.983076172,8.954978027,3.404220886,9.783299158
27.31929433,1.692979431,8.384664001,3.204536133,9.134430557
27.32929733,1.357077942,7.752079468,2.942131805,8.401936454
27.33930033,1.050964508,7.091054077,2.627635803,7.634922674
27.34930333,0.8286767578,6.483766937,2.247875519,6.912227081
27.35930633,0.6417155457,5.88785614,1.900447998,6.22015686
27.36930933,0.4767585754,5.384602661,1.612147522,5.640945328
27.37931233,0.340841217,4.929848328,1.412163391,5.139434085
27.38931633,0.1987866211,4.554279327,1.264270935,4.730682542
27.39931933,0.07020401001,4.29427002,1.12326416,4.43930242
27.40932233,-0.01691482544,4.132157135,1.056502991,4.265115153
27.41932533,-0.0802331543,4.132905579,0.9864486694,4.249756094
27.42932833,-0.1796264648,4.240531769,0.9478289795,4.348879755
27.43933133,-0.2814147949,4.378095703,0.8976832581,4.478029869
27.44933433,-0.3811074829,4.561314697,0.8657995605,4.658373489
27.45933733,-0.4837939453,4.803960114,0.8300239563,4.899084519
27.46934033,-0.6258485413,5.150788879,0.7825726318,5.2473548
27.47934333,-0.7695497131,5.556295624,0.7909552002,5.664824618
27.48934633,-0.8319699097,6.12660965,0.8361611938,6.239125361
27.49934933,-0.7933502197,6.875801697,0.9011260986,6.979833937
27.50935233,-0.6363267517,7.699389038,0.9904902649,7.788875032
27.51935533,-0.3513194275,8.563991089,1.066681824,8.637313172
27.52935833,0.1167572021,9.486822052,1.038540344,9.544212431
27.53936133,0.7973918152,10.36220169,0.9369017029,10.43498167
27.54936433,1.677711182,11.04178848,0.7421566772,11.19314988
27.55936733,2.949167175,11.64623154,0.8123606873,12.04127177
27.56937133,4.390669556,12.07613754,1.146615601,12.90061256
27.57937433,5.144651642,12.16729797,1.364861755,13.28056581
27.58937733,5.142705688,12.12897766,1.683099976,13.28127804
27.59938033,4.693639526,12.14289871,2.294428711,13.21910149
27.60938333,4.484674072,12.35665421,3.12759613,13.512256
27.61938633,4.437073059,12.43568985,3.892206116,13.76529214
27.62938933,4.421505432,12.3939267,4.498595123,13.90670656
27.63939233,4.153412933,12.58223511,4.88389389,14.12146943
27.64939533,3.604504395,13.07680664,5.014721832,14.46176887
27.65939833,2.963986359,13.85548737,4.927453308,15.00131799
27.66940133,2.439926147,14.79837662,4.611909485,15.69123638
27.67940433,2.193089447,15.41344757,4.109105072,16.10182449
27.68940733,2.128723297,15.28875687,3.539240112,15.83678534
27.69941033,1.85808609,14.39541458,3.024310913,14.82656067
27.70941333,1.326990509,12.8543692,2.541864166,13.17029934
27.71941633,0.7945477295,10.89973389,2.160756683,11.14021429
27.72941933,0.3719764709,8.876840515,1.948947144,9.09588143
27.73942333,-0.1646575928,7.136559448,2.096689911,7.440006819
27.74942633,-0.7426057434,6.52088974,2.469414825,7.01223758
27.75942933,-1.238823853,7.285799103,2.98958313,7.972149045
27.76943233,-1.711241455,8.917555847,3.716471558,9.811386775
27.77943533,-2.028431854,10.88237,4.730163574,12.03806296
27.78943833,-2.277663574,12.66216888,5.793701935,14.10975742
27.79944133,-2.612517242,13.45222595,6.640491028,15.22772966
27.80944433,-3.013533325,12.83236496,6.915469208,14.88538504
27.81944733,-3.252586212,11.04493195,6.299200745,13.12439594
27.82945033,-3.065625,9.346563721,5.106181641,11.08284264
27.83945333,-2.647993469,8.186925201,4.063450012,9.515736423
27.84945633,-2.169588318,7.47216156,3.201093292,8.413519484
27.85945933,-1.67322052,7.229665833,2.53318222,7.841221022
27.86946233,-1.21577179,7.183861084,2.061363373,7.571999741
27.87946533,-0.8186476135,7.180717621,1.777703247,7.442655326
27.88946833,-0.4400848389,7.164850616,1.589843903,7.352303221
27.89947133,-0.09954299927,6.975195007,1.469494171,7.129001846
27.90947533,0.2017803955,6.640341339,1.371897125,6.78357945
27.91947833,0.4719685364,6.308032379,1.325044556,6.462953649
27.92948133,0.7222480774,6.03993988,1.302890625,6.220935623
27.93948433,1.006357269,5.836812286,1.318158875,6.067839437
27.94948733,1.259780273,5.753735046,1.328487396,6.037995701
27.95949033,1.525627441,5.802234192,1.33971405,6.147218431
27.96949296,1.841919708,5.960904236,1.363813934,6.386316307
27.97949596,2.127525787,6.195017395,1.402733002,6.698676464
27.98949896,2.349963226,6.459517365,1.369801483,7.00885496
27.99950196,2.551444244,6.647975464,1.341360626,7.246012271
28.00950496,2.762056274,6.769522705,1.294508057,7.425034924
28.01950796,3.085832977,6.899302826,1.175206146,7.648781219
28.02951096,3.428021393,7.059020691,1.07177124,7.920214478
28.03951396,3.674409027,7.167245636,0.8957373047,8.10389024
28.04951696,3.827690277,7.240293732,0.6497987366,8.215552603
28.05951996,3.951632538,7.365433502,0.2573149109,8.362488945
28.06952296,3.913461914,7.580536194,-0.2167492676,8.533855716
28.07952596,3.695664825,7.902666321,-0.662971344,8.749263082
28.08952996,3.424129486,8.354127502,-1.023721161,9.086479741
28.09953296,3.078049164,8.904083862,-1.135239258,9.489249931
28.10953596,2.639910278,9.531429291,-0.9681866455,9.937537722
28.11953896,2.160157928,10.15488281,-0.6545887756,10.40271184
28.12954196,1.730700989,10.72804092,-0.3427871704,10.87215209
28.13954496,1.381177826,11.48696274,-0.03622467041,11.56975701
28.14954796,1.27190506,12.45559845,0.3585044861,12.52550201
28.15955096,1.377285919,13.50012634,0.9903405762,13.60628907
28.16955396,1.62876297,14.43672867,1.973496094,14.6617424
28.17955696,1.834285583,15.05718842,3.275638275,15.51816138
28.18955996,2.042053528,15.26765076,4.703369293,16.10567679
28.19956296,2.472857666,15.30207916,5.917943573,16.59188681
28.20956596,3.171754303,15.20313492,6.528374176,16.84680997
28.21956896,3.976181488,14.74987747,6.722819824,16.69027295
28.22957196,4.56445816,13.89799896,6.580465851,16.04029876
28.23957496,4.471800842,13.03773788,5.822142792,14.96251846
28.24957796,3.575165405,11.98303116,4.828808441,13.40493321
28.25958096,2.74858429,10.95212494,4.097579041,12.01224002
28.26958496,2.400558014,10.28077103,3.741170197,11.20059311
28.27958796,2.52509903,9.986483002,3.923041992,11.02253266
28.28959096,2.843187561,10.23661285,4.398004303,11.49845207
28.29959396,2.981799316,10.66083069,4.788093109,12.06110583
28.30959696,2.931503906,11.135793,4.947361908,12.53299608
28.31959996,2.828368378,11.68425247,4.919968872,12.98951566
28.32960296,2.804268494,12.08781326,4.813989258,13.30990773
28.33960596,2.874173126,12.31803452,4.626279602,13.4683818
28.34960896,2.976560211,12.31683701,4.344415741,13.3954594
28.35961196,3.012335815,11.83962936,3.921245728,12.83071154
28.36961496,2.742746429,11.01170105,3.361260223,11.83546739
28.37961796,2.392325134,10.26310776,2.816243591,10.90806254
28.38962096,2.1658461,9.609566803,2.291884003,10.11372314
28.39962396,1.948647766,8.866511993,1.832639008,9.261254169
28.40962696,1.706601105,8.133336639,1.470541992,8.439558399
28.41962996,1.340462494,7.242988129,1.408720551,7.49948067
28.42963296,1.000519409,6.459367676,1.395547943,6.683713333
28.43963696,0.7842192078,5.850583649,1.322050781,6.049144325
28.44963996,0.6789880371,5.408403168,1.241069183,5.590357976
28.45964296,0.6346801758,5.075944519,1.159189453,5.245164618
28.46964596,0.6048921204,4.871469727,1.0776091,5.025768911
28.47964896,0.5704637146,4.782704315,0.9996212769,4.91924101
28.48965196,0.51717453,4.750820618,0.9321116638,4.868942204
28.49965496,0.4270619202,4.74468338,0.8753796387,4.843623827
28.50965796,0.305514679,4.776118011,0.8469387817,4.860241535
28.51966096,0.1561253357,4.857249298,0.8539741516,4.934219058
28.52966396,-0.01975891113,5.052293701,0.8711883545,5.126892939
28.53966696,-0.2029779053,5.379812622,0.8813671875,5.455308607
28.54966996,-0.35102005,5.809718628,0.8734336853,5.885484858
28.55967296,-0.4152365112,6.256539459,0.8331674194,6.325415031
28.56967596,-0.3888912964,6.721322937,0.7747888184,6.776999054
28.57967896,-0.2809657288,7.156168671,0.7665559387,7.202589797
28.58968196,-0.02290237427,7.612419891,0.7182064819,7.646259325
28.59968496,0.4090992737,8.044122162,0.5963598633,8.0765654
28.60968796,0.8527766418,8.418343964,0.4936734009,8.475815979
28.61969196,1.446442108,8.792865143,0.2754272461,8.91529766
28.62969496,2.44202179,9.251062317,0.1320254517,9.568858612
28.63969796,3.696113892,9.797575836,0.06586303711,10.47177579
28.64970096,4.622687073,10.35531601,0.04565505981,11.34036551
28.65970396,4.968018951,10.77279785,0.1942959595,11.86474343
28.66970696,4.742737427,11.01723953,0.5159770203,12.00580516
28.67970996,3.996539154,11.18743561,1.022224274,11.92375709
28.68971296,3.321143646,11.62557449,1.840123444,12.22988273
28.69971596,3.184328156,12.30111969,2.782563629,13.00769587
28.70971896,3.035986633,12.72414001,3.644920349,13.57963174
28.71972196,2.854264526,12.78506332,4.336781616,13.79899797
28.72972496,2.460583191,12.74868896,4.728516998,13.81819138
28.73972796,1.858684845,12.97127609,4.922214203,13.99774644
28.74973096,1.287772064,13.65924545,5.01502121,14.60766172
28.75973396,0.8059240723,14.82232681,4.972509613,15.65492694
28.76973696,0.4484674072,16.03749985,4.668491821,16.70919927
28.77973996,0.4140390015,16.73834244,4.196373596,17.26131766
28.78974296,0.8104147339,16.24945908,3.594624939,16.66202331
28.79974696,1.400787048,14.49405945,3.026406555,14.87276371
28.80974996,1.614991608,12.18136871,2.473306732,12.53440018
28.81975296,1.32684082,9.836345215,2.006876678,10.12628993
28.82975596,0.75353302,7.624394989,1.827399902,7.876458682
28.83975896,0.1278341675,6.111191711,1.857786713,6.388613087
28.84976196,-0.3743714905,6.077212372,2.140548706,6.454038502
28.85976496,-0.76640625,7.498207397,2.707868958,8.008935448
28.86976796,-0.9798623657,9.568103027,3.736380157,10.31839438
28.87977096,-1.088686066,11.66239792,4.985233154,12.72985908
28.88977396,-1.280736694,13.50162323,6.185137939,14.90604064
28.89977696,-1.645079041,14.15306854,7.119195557,15.92791824
28.90977996,-2.283651123,12.78491364,7.414232025,14.95459513
28.91978296,-2.944227448,10.50350784,6.973398743,12.94683136
28.92978596,-3.074157257,8.640182648,5.82004715,10.86168255
28.93978896,-2.847378845,7.428602142,4.271367645,9.029744052
28.94979196,-2.403551788,6.809190216,2.985691223,7.8138649
28.95979496,-1.801354065,6.544839935,2.140997772,7.117842209
28.96979858,-1.187031555,6.38167923,1.704655151,6.711238551
28.97980258,-0.6119274902,6.349795532,1.470691681,6.546548142
28.98980558,-0.1776805115,6.239325256,1.350491638,6.386280426
28.99980858,0.189206543,5.9335112,1.252595215,6.067235701
29.00981158,0.4336482239,5.493725739,1.206940155,5.641434021
29.01981458,0.580941925,5.038821716,1.153501282,5.201709624
29.02981758,0.6668632507,4.665048981,1.114282837,4.842418283
29.03982058,0.7923023987,4.45683197,1.10455307,4.659520553
29.04982358,1.003064117,4.432582397,1.100062408,4.675902227
29.05982658,1.335971832,4.692591705,1.145717468,5.011776747
29.06982958,1.782642975,5.310207367,1.184187469,5.725243944
29.07983258,2.246079254,6.161487122,1.201102295,6.667191484
29.08983558,2.720592499,7.072642365,1.274898834,7.684351671
29.09983858,3.186872864,7.914641418,1.32803833,8.634893933
29.10984158,3.529360657,8.506959686,1.449435883,9.323390699
29.11984458,3.623215485,8.854686584,1.435814209,9.6744368
29.12984758,3.560046844,8.929081879,1.196012878,9.686737507
29.13985058,3.481460266,8.822204132,0.9005273438,9.526951287
29.14985358,3.353626099,8.666378174,0.5417234802,9.308403891
29.15985758,3.219505005,8.642577667,0.1486408997,9.223960935
29.16986058,3.15693512,8.79196701,-0.1923500061,9.343549742
29.17986358,3.149001617,8.972491608,-0.4216731262,9.518383532
29.18986658,3.094814301,9.122629395,-0.4945715332,9.645975514
29.19986958,3.006497955,9.421857147,-0.4439767456,9.899875626
29.20987258,2.796334991,9.749076691,-0.2182461548,10.14453632
29.21987558,2.549348602,10.08692413,0.1643582153,10.40539429
29.22987858,2.290836182,10.55829391,0.6213578796,10.82181068
29.23988158,2.110012207,11.35598511,1.066681824,11.59949824
29.24988458,2.012415161,12.45574814,1.512155457,12.70756037
29.25988758,1.921404419,13.6002681,2.014510803,13.88226714
29.26989058,1.78443924,14.5557312,2.662812653,14.9044995
29.27989358,1.53401001,14.93025238,3.590882721,15.43243537
29.28989658,1.371148682,14.68476288,4.591252441,15.44674427
29.29989958,1.654808807,14.10202469,5.286107483,15.15085558
29.30990258,2.517464905,13.56658813,5.440735931,14.83211214
29.31990558,3.502566376,12.76365784,5.427114258,14.30498171
29.32990858,4.183799744,11.88588318,5.248385925,13.65005326
29.33991258,4.183200989,11.312276,4.697830811,12.94358425
29.34991558,3.442241821,10.32118698,4.244723053,11.6787672
29.35991858,2.814597015,9.542805634,3.914060669,10.69144362
29.36992158,2.673440552,9.285341034,3.804338837,10.38449982
29.37992458,2.946921844,9.447004852,3.948489075,10.65461473
29.38992758,3.28087738,10.14949402,4.232747955,11.47573703
29.39993058,3.507506104,11.18848343,4.417613525,12.52996687
29.40993358,3.605851593,12.29528183,4.409530334,13.55064865
29.41993658,3.674858093,13.24011703,4.341871033,14.41031315
29.42993958,3.622317352,13.86072647,4.27316391,14.94994485
29.43994258,3.501817932,13.9572757,4.314477997,15.02274922
29.44994558,3.410208435,13.48066681,4.442910919,14.59785452
29.45994858,3.393892365,12.61845978,4.674179993,13.87775166
29.46995158,3.349135437,11.61419815,4.835694122,13.0188419
29.47995458,2.930755463,10.61801971,4.816234589,12.02197096
29.48995758,2.285896454,9.865085449,4.402345276,11.04200514
29.49996058,1.788331146,9.254056091,3.770359497,10.15141828
29.50996358,1.463955688,8.756640472,3.076701965,9.396170156
29.51996758,1.235530701,8.186476135,2.489024048,8.645239634
29.52997058,0.9988728333,7.594756622,2.093845825,7.941175318
29.53997358,0.8482859802,7.066654816,1.839225311,7.35118692
29.54997658,0.7216493225,6.502777405,1.648372192,6.747149221
29.55997958,0.5376818848,5.903573456,1.510059814,6.117316569
29.56998258,0.3330574036,5.304668884,1.41695343,5.500745061
29.57998558,-0.02514770508,4.735402679,1.459914093,4.955403122
29.58998858,-0.3245251465,4.393513641,1.458267517,4.640562772
29.59999158,-0.4251159668,4.25565033,1.365759888,4.489608378
29.60999458,-0.5213658142,4.207899628,1.270408173,4.426305289
29.61999758,-0.6138734436,4.286336517,1.241967316,4.504664711
29.63000058,-0.6746470642,4.528383179,1.238225098,4.742847696
29.64000358,-0.6375242615,4.864284668,1.166973267,5.042769985
29.65000658,-0.5981561279,5.129084015,1.10455307,5.280656311
29.66000958,-0.523611145,5.410199432,1.052012329,5.536348659
29.67001258,-0.5023553467,5.585035858,1.041085052,5.703406396
29.68001558,-0.6041436768,5.902076569,0.9577084351,6.009717369
29.69001858,-0.6661148071,6.380631409,0.8707392883,6.474129518
29.70002258,-0.6435118103,6.961573334,0.8177494812,7.03891504
29.71002558,-0.4716691589,7.592361603,0.7514373779,7.644022805
29.72002858,-0.1448986816,8.231831818,0.6340814209,8.257488114
29.73003158,0.33230896,8.891360321,0.5608836365,8.915228996
29.74003458,0.9608518982,9.51750824,0.4706213379,9.577457069
29.75003758,1.955383759,10.26265869,0.4558021545,10.45721974
29.76004058,3.406466217,11.10959747,0.7159611511,11.6421548
29.77004358,4.589456177,11.67497177,0.8809181213,12.5755354
29.78004658,5.176086273,11.93408295,1.037193146,13.04952009
29.79004958,5.18581604,12.05248672,1.187929688,13.17445639
29.80005258,4.800217896,12.2160965,1.783690796,13.24600537
29.81005558,4.555476837,12.45065872,2.739303589,13.5379118
29.82005858,4.545298004,12.80197815,3.759731598,14.09560074
29.83006158,4.367318115,13.2326326,4.690496063,14.70295162
29.84006458,3.859424286,13.764776,5.290747833,15.24323544
29.85006758,3.011737061,14.40738968,5.491330719,15.70981065
29.86007058,2.037862244,15.19490204,5.360652466,16.24113682
29.87007358,1.128203888,16.01908813,4.932991791,16.79935822
29.88007658,0.6391708374,16.55871597,4.42405014,17.15143824
29.89008058,0.6090834045,16.01325027,3.974385223,16.51032722
29.90008358,0.5417234802,14.11804138,3.490740967,14.55327555
29.91008658,0.2917433167,11.60865967,3.019371185,11.99844556
29.92008958,0.1365161133,9.15361496,2.609074402,9.519168699
29.93009258,-0.07274871826,7.147636414,2.340233459,7.521349036
29.94009558,-0.336051178,5.760620728,2.259551239,6.197035853
29.95009858,-0.6727011108,5.312303009,2.544558563,5.928563766
29.96010158,-1.09287735,6.287075958,3.349135437,7.206831008
29.97010462,-1.351988525,8.615484009,4.385580139,9.76154449
29.98010763,-1.388662262,11.31437164,5.393883362,12.6110018
29.99011062,-1.451232147,13.78184052,6.346801758,15.24227986
30.00011362,-1.820514221,15.05045242,6.945556641,16.67546543
