Time (s),Acceleration x (m/s^2),Acceleration y (m/s^2),Acceleration z (m/s^2),Absolute acceleration (m/s^2)
0.0003878333373,-0.2799179077,-6.083648987,-3.332220612,6.942105821
0.01039083333,-0.6256988525,-7.241940308,-3.046165466,7.8813909
0.02039283334,-0.8765771484,-8.075107727,-2.962938538,8.646083337
0.03039583333,-1.246607666,-8.200696564,-2.968776398,8.810169584
0.04039883333,-1.144070892,-7.846383362,-2.59171051,8.342157601
0.05040083334,-0.6698570251,-7.435487823,-3.21187088,8.127195221
0.06040383333,-0.2661465454,-7.084767151,-3.433110809,7.877246308
0.07040683334,0.1219963074,-7.261399841,-4.20879776,8.39385426
0.08040883333,0.3890409851,-8.04082901,-4.877008209,9.41230541
0.09041183333,0.6387217712,-8.63644043,-4.598886566,9.805397822
0.1004148333,0.2065704346,-8.851842499,-4.442910919,9.906424401
0.1104178333,-0.4722679138,-8.866511993,-4.969066772,10.17495437
0.1204198333,-1.21457428,-9.030121765,-5.699847107,10.74739721
0.1304228333,-2.238295441,-9.280401306,-6.041736145,11.29771616
0.1404258333,-3.581152954,-9.017996979,-6.281238098,11.55867112
0.1504278333,-4.772226105,-8.374185791,-7.067103882,11.95178175
0.1604308333,-4.288731537,-8.32748291,-6.893614655,11.63022411
0.1704338333,-2.934647369,-9.60986618,-6.256988525,11.83687411
0.1804354583,-2.337688751,-10.67774551,-6.550228729,12.74301904
0.1904384583,-2.218386841,-11.17246674,-7.519762573,13.64888575
0.2004414583,-1.836231537,-11.3785881,-8.04202652,14.05411698
0.2104444583,-1.416504364,-11.64727936,-8.327183533,14.38775822
0.2204464583,-1.120569763,-12.02030365,-8.751401367,14.91074788
0.2304494583,-1.122366028,-12.55304581,-9.074729004,15.53027273
0.2404524583,-1.483564911,-12.98160461,-8.406069489,15.53657065
0.2504544583,-1.986069946,-13.23802139,-8.53105957,15.87352077
0.2604574583,-2.545007629,-13.38336914,-9.80880249,16.78702593
0.2704604583,-3.251089325,-13.76806915,-10.02809647,17.34047372
0.2804624583,-3.550317078,-14.36876999,-10.81306412,18.3299934
0.2904654583,-3.268303528,-15.75503723,-12.59944931,20.43646567
0.3004684583,-3.303779755,-16.88099579,-12.45799347,21.23875186
0.3104714583,-3.46694046,-17.26345047,-13.12006668,21.95865542
0.3204734583,-3.701203308,-17.44876511,-12.84344193,21.97981597
0.3304764583,-3.793561249,-17.1993837,-10.84824097,20.68560462
0.3404794583,-3.438798981,-16.94491287,-9.5525354,19.75364127
0.3504814583,-3.900289307,-16.9179689,-8.021369476,19.12517442
0.3604844583,-4.827161865,-17.05658066,-6.44604538,18.86212969
0.3704874583,-5.592520294,-16.9869754,-4.576582947,18.46019307
0.3804894583,-6.391558685,-17.58543091,-3.007994843,18.9511856
0.3904924583,-6.831493835,-19.02154449,-2.814147949,20.40607487
0.4004954583,-6.223158875,-19.40549606,-3.574416962,20.69003239
0.4104984583,-5.317242737,-17.59007126,-3.913761292,18.78832629
0.4205004583,-4.638853455,-13.74411896,-3.791764984,14.99324011
0.4305034583,-4.042493591,-9.971364441,-4.081113281,11.50762134
0.4405064583,-2.201172638,-7.375612335,-4.228107605,8.781896846
0.4505084583,0.5430706787,-4.890031128,-3.342249756,5.947937762
0.4605114583,1.035696259,-2.393522644,-2.213297424,3.420570548
0.4705144583,1.581760712,-0.7688012695,-1.714235229,2.455936637
0.4805174583,2.234553223,-0.01646575928,0.0628692627,2.235498103
0.4905194583,1.796264648,0.3405418396,1.100062408,2.133699307
0.5005224583,0.5785469055,0.5620811462,1.067280579,1.337811485
0.5105254583,-0.3365002441,0.7523355103,0.7714956665,1.128913946
0.5205274583,-0.549357605,1.245260468,0.3788621521,1.412800036
0.5305304583,-0.6697073364,1.526076508,0.1471440125,1.673041776
0.5405334583,-0.7716453552,1.830393677,-0.06167175293,1.987355271
0.5505354583,-1.028361511,1.731299744,-0.2472857666,2.028811586
0.5605384583,-1.668430481,1.379980316,-0.3713777161,2.196799342
0.5705414583,-2.792742462,0.7924520874,-1.19586319,3.139662329
0.5805444583,-4.054917755,0.516126709,-2.580633545,4.834088774
0.5905464583,-4.600233765,0.08053253174,0.0001496887207,4.600938622
0.6005494583,-3.761527863,-0.7234455872,3.777544556,5.379805596
0.6105524583,-0.8620573425,-0.2772235107,3.287613373,3.410043611
0.6205544583,0.9663903809,0.1504371643,2.468516693,2.655205524
0.6305574583,1.422491913,0.07259902954,2.279459839,2.687878535
0.6405604583,1.783990173,0.1188528442,1.836081848,2.562799932
0.6505624583,1.689835968,0.2206411743,1.486259308,2.261237461
0.6605654583,1.654210052,0.2609074402,1.256487122,2.093619707
0.6705684583,1.582658844,0.2478845215,1.020877075,1.899590944
0.6805714583,0.9713301086,-0.04176315308,0.7849676514,1.249560144
0.6905734583,0.2784210205,-0.4572990417,0.5505551147,0.7679528714
0.7005764583,-0.1414558411,-0.7476951599,0.3035687256,0.8192751542
0.7105794583,-0.2392025757,-1.124761047,-0.2869532776,1.185178244
0.7205814583,0.2426454163,-1.776805115,-2.372715912,2.974171147
0.7305844583,0.03263214111,-2.647694092,-4.149221649,4.922132582
0.7405874583,-1.470991058,-3.185675354,-2.065105591,4.071486615
0.7505894583,-1.8991008,-3.468886414,-1.16891922,4.123848802
0.7605924583,-1.418001251,-3.212769012,-0.734223175,3.587714585
0.7705954583,-3.162323914,-2.46537323,-2.659519501,4.811590348
0.7805984583,-4.24861496,-1.515747986,-6.056255951,7.551586401
0.7906004583,-4.208947449,-0.2981799316,-7.858807526,8.919921839
0.8006034583,-3.159030762,-1.282982025,-9.887538757,10.45891681
0.8106064583,-3.031196594,-4.722978516,-8.562943268,10.23809925
0.8206084583,-3.886817322,-7.896978149,-4.216431885,9.759503605
0.8306114583,-2.17632431,-13.1158754,-1.767075348,13.41212624
0.8406144583,0.04430786133,-19.60293549,-8.449628906,21.3465049
0.8506164583,3.018922119,-28.94276321,-18.08688812,34.26270502
0.8606194583,-2.886447601,-38.73180679,-12.96394135,40.94567392
0.8706224583,-9.262139282,-41.98663834,-20.05604324,47.44375505
0.8806254583,-2.143392792,-29.6410611,-14.00218231,32.85190626
0.8906274583,-2.584076385,-13.50117416,-4.825964355,14.56877093
0.9006304583,-4.243375854,-8.936865692,-11.17126923,14.92216684
0.9106334583,-2.870430908,-7.718399506,-13.42483292,15.74926041
0.9206354583,-3.373534698,-10.75842773,-11.44340332,16.06474348
0.9306384583,-3.829486542,-16.32864441,-17.40670258,24.17194427
0.9406414583,-6.472240906,-21.52628586,-18.6578009,29.21274413
0.9506444583,-8.183332672,-26.50717804,-15.27857803,31.67068626
0.9606464583,-8.046517181,-29.01910446,-12.09574677,32.4524568
0.9706494583,-7.435338135,-27.98026474,-10.21371048,30.70015228
0.9806524583,-6.603218536,-25.38421326,-8.339308319,27.52280583
0.9906544583,-5.942193146,-23.29919907,-7.532635803,25.19728038
1.000657458,-5.771098938,-21.17227203,-6.065836029,22.76763169
1.010660458,-6.008056183,-20.36649765,-4.972958679,21.80874328
1.020663458,-6.119125214,-20.387005,-4.141737213,21.68473319
1.030665458,-5.541626129,-19.13081726,-3.518732758,20.22570813
1.040668458,-5.985902252,-14.07912231,-2.942131805,15.57911584
1.050671458,-6.931336212,-10.599608,-1.60541153,12.76606665
1.060673458,-6.87190979,-8.494685211,-2.117646332,11.12956634
1.070676458,-5.713917847,-6.560856628,-3.733236694,9.467351957
1.080679458,-3.326083374,-5.139562225,-4.722230072,7.731583753
1.090681458,-1.505269775,-3.936064911,-4.78794342,6.378310613
1.100684458,-0.5397775269,-2.039808197,-3.717220001,4.274330567
1.110687458,1.645677795,0.109871521,-2.583477631,3.065074848
1.120690458,3.081042938,0.7915539551,-1.662891998,3.589511533
1.130692458,3.359913025,0.2152523804,0.7798782349,3.455945483
1.140695458,2.864443359,-0.1872605896,2.599344635,3.872556626
1.150698458,2.080673218,0.03592529297,1.882185974,2.805907288
1.160700458,1.895059204,0.6909631348,0.8578660583,2.191942886
1.170703458,1.383273468,1.015338593,-0.1761836243,1.72493438
1.180706458,0.112565918,0.7300318909,-2.585573273,2.689015953
1.190710542,-1.995200958,0.01047821045,-4.830754395,5.226578678
1.200712542,-3.106040955,0.1582209778,-2.42795105,3.945563406
1.210715542,-2.974614258,0.822689209,1.003513184,3.245332992
1.220718542,-2.634820862,1.217568054,2.607876892,3.902021889
1.230720542,-2.138303375,0.8048762512,2.784659271,3.602012543
1.240723542,-0.8409512329,0.1658551025,2.107018433,2.27469417
1.250726542,0.1986369324,-0.09026229858,1.476080475,1.492118454
1.260728542,0.940045166,-0.2296224976,1.501677246,1.786461854
1.270731542,1.456620941,-0.2724334717,1.831591187,2.355990415
1.280734542,1.647324371,-0.3900888062,2.112257538,2.706931615
1.290737542,1.761836243,-0.4556524658,2.474803619,3.071862476
1.300739542,1.771715698,-0.2697390747,2.775827637,3.304081529
1.310742542,1.511856079,0.1633103943,2.785707092,3.173727004
1.320745542,0.9126521301,0.5522016907,2.484683075,2.70398051
1.330747542,0.2749781799,0.7696994019,1.74222702,1.924423331
1.340750542,-0.4998106384,0.6548881531,1.124761047,1.394193882
1.350753542,-1.106499023,0.3192860413,0.5565426636,1.279071304
1.360756542,-1.688937836,-0.1194515991,-0.03951782227,1.69361783
1.370758542,-2.021995239,-0.5885760498,-3.591930542,4.1637545
1.380761542,-1.504072266,-1.135838013,-7.858059082,8.0809315
1.390764542,-2.026336212,-1.60885437,-4.227359161,4.956310756
1.400766542,-2.799478455,-1.609303436,-2.274969177,3.949990117
1.410769542,-3.08313858,-1.33971405,-0.7348219299,3.441008647
1.420772542,-2.149829407,-1.666035461,-1.338815918,3.031479622
1.430774542,-1.403780823,-3.447780304,-4.356690216,5.730492061
1.440777542,-1.084494781,-5.656437378,-8.196804657,10.01793488
1.450780542,-0.6444099426,-9.412277069,-14.11624512,16.9786513
1.460783542,-2.347119141,-15.81057175,-14.58596832,21.6387065
1.470785542,-8.165819092,-20.64731369,1.737436981,22.27130107
1.480788542,-7.198231201,-22.32427643,9.429790649,25.2806013
1.490791542,-9.549990692,-27.72714111,-27.84449707,40.43899966
1.500793542,-2.521356812,-37.39478714,-25.85917557,45.53486913
1.510796542,3.471131744,-34.92357605,9.391320648,36.33045311
1.520799542,-3.02820282,-22.25512024,10.76142151,24.90519187
1.530802542,-5.225483551,-15.60085785,-16.53596329,23.32660554
1.540804542,-5.391937408,-12.53044281,-13.99649414,19.54448347
1.550807542,-7.491471405,-9.509125671,1.507814484,12.19914421
1.560810542,-7.11290863,-9.986033936,-13.51284988,18.24586131
1.570812542,-4.004173279,-14.50573517,-16.08120895,22.02396508
1.580815542,-2.580483856,-21.19727005,-14.15381699,25.61861998
1.590818542,-2.556383972,-27.25876511,-17.39278152,32.43584781
1.600821542,-3.00709671,-31.7510733,-18.85359375,37.04903891
1.610823542,-3.736380157,-32.92148941,-14.80541199,36.29029107
1.620826542,-3.016227722,-29.15292618,-11.40792709,31.4504616
1.630829542,-3.580853577,-23.83268967,-7.913144531,25.36606918
1.640831542,-4.048032074,-20.10963181,-5.919141083,21.34994347
1.650834542,-4.110901337,-18.84386398,-5.324577484,20.0085443
1.660837542,-4.750670929,-17.87552765,-4.302502899,18.98986293
1.670840542,-5.175487518,-16.21667725,-2.751727753,17.24350015
1.680842542,-5.255870361,-13.95413223,-1.641336823,15.00119882
1.690845542,-5.251828766,-11.68380341,-1.461710358,12.89300448
1.700848542,-4.446952515,-9.280550995,-1.53745285,10.40518019
1.710851542,-3.53714447,-6.506519623,-2.411185913,7.788453384
1.720853542,-2.063908081,-4.240082703,-3.686084747,5.985418837
1.730856542,-0.9554631042,-2.417472839,-4.557572479,5.246765821
1.740859542,-0.4583468628,-1.39704483,-4.70262085,4.927114669
1.750861542,-0.1700463867,-0.6881190491,-4.387526093,4.444413213
1.760864542,0.5872288513,0.2971321106,-2.727029114,2.805318699
1.770867542,1.044677582,0.8428971863,-1.08344696,1.725017169
1.780869542,0.7976911926,0.6743476868,-0.6346801758,1.222241779
1.790872542,1.124012604,0.5414241028,0.860710144,1.51570655
1.800875542,1.113384705,0.4014651489,1.995650024,2.320219556
1.810878542,0.7622149658,0.3535647583,1.36082016,1.599315854
1.820880542,0.3920347595,0.6433621216,0.4710704041,0.8885456644
1.830883542,-0.1734892273,0.6545887756,0.03143463135,0.6779182202
1.840886542,-1.092428284,0.05328918457,-0.06825805664,1.095855125
1.850888542,-2.026485901,-0.8479866028,-1.844614105,2.868506159
1.860891542,-2.840792542,-1.280287628,-8.670120392,9.213046526
1.870894542,-2.774929504,-0.412691803,-6.220464478,6.823835182
1.880897542,-2.646945648,0.09190887451,0.01362167358,2.648575854
1.890899542,-1.740580444,0.08202941895,3.204087067,3.647262403
1.900902542,0.02649490356,-0.1199006653,4.16898056,4.170788542
1.910905542,0.5899232483,-0.3480262756,4.073778534,4.130956702
1.920907542,0.09580078125,-0.3083587646,2.865191803,2.88332915
1.930910542,-0.3198847961,0.001197509766,2.48647934,2.506971724
1.940913542,-0.2977308655,0.4333488464,2.342927856,2.40119675
1.950916542,-0.1390608215,0.6574328613,2.271226959,2.368549721
1.960918542,0.3586541748,0.5574407959,2.370171204,2.461114502
1.970921542,0.4486170959,0.08816665649,2.29098587,2.336160721
1.980924542,-0.1540296936,-0.3712280273,1.893712006,1.935892702
1.990926542,-0.845741272,-0.5619314575,0.9485774231,1.389548268
2.000929542,-1.903142395,-0.8930429077,-2.512674866,3.27612753
2.010932542,-2.212698669,-1.041234741,-1.341660004,2.789311161
2.020935542,-1.480271759,-0.9250762939,0.4233197021,1.796154281
2.030937542,-1.942959595,-1.315314789,-0.1731898499,2.352687762
2.040940542,-2.713706818,-1.862127686,-2.168540497,3.941356631
2.050943542,-3.163820801,-1.74102951,-3.448678436,4.993428559
2.060945542,-3.146007843,-1.744322662,-3.672762451,5.14093483
2.070948542,-2.881058807,-2.919828186,-3.560944977,5.43196333
2.080951542,-2.973865814,-5.727689209,-3.902085571,7.541655877
2.090954542,-3.19899765,-9.545500031,-7.048991547,12.28976967
2.100956542,-3.221001892,-15.23412048,-11.15944382,19.15689083
2.110959542,-0.7455995178,-22.58727951,-8.598269806,24.17997845
2.120962542,1.334924011,-30.60505646,-14.02059402,33.69018492
2.130964542,0.6957531738,-39.02848984,-23.57327911,45.60051074
2.140967542,-2.393672333,-42.23587006,-15.30222885,44.98618226
2.150970542,-2.325114899,-30.06842239,-12.18496124,32.52674999
2.160973542,-5.110073547,-11.95668594,-11.0375972,17.05590051
2.170975542,-7.388635254,1.386865997,-6.662944336,10.04540469
2.180978542,-6.110443268,5.215753784,-9.29162796,12.28315736
2.190981042,-4.203858032,0.3251239014,-14.70062988,15.29335303
2.200983042,-3.871399384,-6.438710632,-18.5503244,20.0139767
2.210986042,-3.181783447,-13.83408188,-19.41073517,24.04749898
2.220989042,-3.821852417,-21.09697861,-19.43737976,28.93960598
2.230992042,-6.090834045,-26.79248474,-17.83720734,32.75822742
2.240994042,-9.151070251,-27.78911224,-14.6950914,32.74022842
2.250997042,-7.927514648,-24.27606766,-13.00330948,28.65761691
2.261000042,-5.588179321,-19.92970596,-11.84367096,23.84729481
2.271003042,-3.749103699,-17.83331543,-10.43285477,20.99827079
2.281005042,-3.092269592,-17.48828293,-8.966504059,19.89473212
2.291008042,-3.911665649,-18.05650131,-7.245832214,19.84541389
2.301011042,-5.260361023,-18.56529327,-6.099815369,20.23732344
2.311013042,-6.221961365,-18.56828705,-4.736151123,20.14758583
2.321016042,-6.443051605,-18.30812805,-3.29734314,19.68687224
2.331019042,-6.119723969,-17.98405197,-2.571203156,19.16998259
2.341022042,-5.643264771,-16.9830835,-2.294428711,18.04261526
2.351024042,-5.09570343,-14.7057193,-2.630030823,15.78421476
2.361027042,-4.612807617,-11.80235687,-2.63152771,12.94212347
2.371030042,-3.575464783,-8.89854538,-3.123554535,10.08586393
2.381032042,-2.77073822,-6.212530975,-3.886517944,7.834382754
2.391035042,-2.374661865,-4.667294312,-4.338278503,6.800243785
2.401038042,-1.48131958,-3.507206726,-3.556903381,5.21021769
2.411041042,-0.1154100037,-1.441053314,-1.657802582,2.199605311
2.421043042,0.6336323547,0.1335223389,-0.1101708984,0.6568529537
2.431046042,0.7999365234,0.9449848938,1.791773987,2.177923073
2.441049042,0.4418811035,1.063987427,2.452649689,2.709763578
2.451051042,0.1142124939,1.026864624,2.648741913,2.843119619
2.461054042,-0.02499801636,1.244362335,3.054847412,3.298659612
2.471057042,0.09415420532,1.726809082,2.686613159,3.195093878
2.481060042,-0.01691482544,2.111658783,2.204166412,3.052497093
2.491062042,-0.3790118408,2.107916565,1.758842468,2.771369526
2.501065042,-0.7723937988,1.848805389,1.052012329,2.263051809
2.511068042,-1.295705566,1.15844101,0.399818573,1.783449853
2.521070042,-1.560504913,0.3827540588,-0.04535568237,1.607399574
2.531073042,-1.484463043,-0.07933502197,-0.367635498,1.531365545
2.541076042,-1.1174263,-0.3254232788,-0.516126709,1.273156953
2.551078042,-0.6126759338,-0.4055067444,-0.5122348022,0.8956517249
2.561081042,-0.2481838989,-0.5195695496,-0.2368075562,0.6225958426
2.571084042,0.02155517578,-0.7376660156,0.1660047913,0.7564214215
2.581087042,0.2688409424,-0.902024231,0.390687561,1.019097609
2.591089042,0.4586462402,-0.7812254333,0.3625460815,0.9757608378
2.601092042,0.4014651489,-0.5601351929,0.3354524231,0.7664554966
2.611095042,0.1675016785,-0.2010319519,0.2010319519,0.3299765199
2.621097042,0.04251159668,0.1261875916,-0.2811154175,0.3110569434
2.631100042,0.02664459229,0.2573149109,-0.6975494385,0.7439731963
2.641103042,0.206869812,0.07649093628,-0.6921606445,0.7264518844
2.651106042,0.3927832031,-0.3502716064,-0.5758525085,0.7801121423
2.661108042,0.4975653076,-0.7015910339,-0.5989045715,1.048087735
2.671111042,0.519868927,-0.9327104187,-0.7866142273,1.326263311
2.681114042,0.4514611816,-1.210233307,-1.380130005,1.890301745
2.691116042,0.4825964355,-1.614392853,-2.807561646,3.274380246
2.701119042,0.3372486877,-2.148182831,-5.30167511,5.730286653
2.711122042,-0.7625143433,-2.932551727,-8.600515137,9.118670318
2.721125042,-1.983375549,-4.340823212,-11.57722504,12.52232663
2.731127042,-0.6219566345,-5.915847931,-12.48344055,13.82824554
2.741130042,0.1936972046,-9.799222412,-9.695787506,13.7866085
2.751133042,-6.602619781,-15.86386093,-1.942510529,17.29248446
2.761135042,-14.15127228,-20.58025314,-7.256759491,26.00895778
2.771138042,-14.89118362,-24.15317322,-16.64478699,32.89638369
2.781141042,-12.01087326,-29.90122009,-14.16489395,35.19926505
2.791144042,1.6416362,-30.15359528,-3.5500177,30.40619843
2.801146042,6.816524963,-20.18297928,6.553821259,22.2883431
2.811149042,3.040626984,-9.922266541,-1.422192535,10.47470369
2.821152042,-0.1796264648,-5.241051178,-16.80645081,17.60561478
2.831154042,-4.606221313,-6.122568054,-6.056106262,9.766244797
2.841157042,-7.264393616,-7.863896942,-7.717351685,13.1973409
2.851160042,-5.145250397,-12.09724365,-15.54397614,20.35760545
2.861163042,-5.074597321,-17.39981689,-17.36299347,25.09937665
2.871165042,-8.777596893,-23.79616562,-18.88383087,31.62123928
2.881168042,-10.37746994,-27.5415271,-19.57284805,35.34577737
2.891171042,-10.23586441,-25.31715271,-19.47091003,33.53874594
2.901173042,-7.487729187,-21.61505127,-15.80712891,27.8054285
2.911176042,-5.180127869,-19.76310242,-12.18436249,23.7880775
2.921179042,-3.764072571,-18.29630264,-10.57026901,21.46284044
2.931182042,-3.592678986,-17.28784973,-9.644593964,20.11952493
2.941184042,-4.229604492,-17.06601105,-8.795110474,19.65940628
2.951187042,-5.049150238,-17.58932281,-8.119116211,20.01994614
2.961190042,-5.118605804,-17.93001434,-6.539002075,19.75965809
2.971192042,-4.632716217,-17.80397644,-5.268144836,19.13627411
2.981195042,-4.556075592,-16.68460419,-4.375700684,17.84042035
2.991198042,-4.213737488,-15.19879395,-3.637884979,16.18620178
3.001201042,-3.534749451,-13.14686096,-3.17564621,13.97923945
3.011203042,-3.121608582,-10.29364426,-2.734214172,11.09862511
3.021206042,-2.789598999,-7.333400116,-1.810036011,8.05213327
3.031209042,-2.781066742,-5.046006775,-1.668729858,5.998431123
3.041211042,-2.553988953,-3.267405396,-2.371368713,4.777257285
3.051214042,-1.633103943,-1.932032318,-2.877765656,3.831620093
3.061217042,-0.8622070313,-0.8252339172,-3.082090759,3.305101425
3.071219042,-0.6617738342,0.06915618896,-3.382366333,3.447191494
3.081222042,-0.7438032532,0.6746470642,-3.308120728,3.457174379
3.091225042,-0.6014492798,1.173110504,-2.401306458,2.739379892
3.101228042,-0.1392105103,1.37953125,-1.265169067,1.877002612
3.111230042,0.6608757019,1.211131439,-0.5120851135,1.471674971
3.121233042,1.304986267,0.9699829102,-0.1547781372,1.633343894
3.131236042,1.538800049,0.7035369873,0.1877096558,1.702382095
3.141238042,1.380878448,0.3802093506,0.4526586914,1.502093316
3.151241042,0.882714386,-0.1282832336,0.01676513672,0.8921448005
3.161244042,-0.008681945801,-0.9735754395,-0.9071136475,1.33070646
3.171247042,-0.8153544617,-1.511407013,-1.546434174,2.310976571
3.181249042,-1.332528992,-1.391356659,-1.279239807,2.312565967
3.191251792,-1.973196716,-0.7915539551,-0.8307723999,2.282596269
3.201254792,-2.731370087,-0.02544708252,-0.8738827515,2.86787398
3.211256792,-3.027454376,0.3592529297,-1.178648987,3.268601551
3.221259792,-1.944905548,0.08562194824,-0.6176156616,2.042409806
3.231262792,-1.016386414,-0.05658233643,0.1363664246,1.027053409
3.241264792,-0.1538800049,0.06840774536,1.479223938,1.488778739
3.251267792,0.6177653503,0.08502319336,1.907034302,2.006400458
3.261270792,0.6081852722,0.01616638184,1.676813049,1.78377484
3.271273792,0.4308041382,-0.07349716187,1.409468994,1.475668284
3.281275792,0.4724176025,-0.1531315613,1.112336884,1.218162965
3.291278792,0.2583627319,-0.182769928,0.9208850098,0.9737480932
3.301281792,0.03353027344,-0.2055226135,0.7087760925,0.7387336281
3.311283792,-0.04355941772,-0.3974235535,0.2469863892,0.4699416774
3.321286792,0.2189945984,-0.6867718506,-1.366059265,1.544581537
3.331289792,0.05553451538,-0.9653425598,-1.419198761,1.717293063
3.341292792,-0.1407073975,-1.123114471,-0.135617981,1.139989879
3.351294792,0.1534309387,-1.606309662,-1.637744293,2.299125519
3.361297792,0.1667532349,-2.283501434,-2.455044708,3.356997164
3.371300792,0.03128494263,-3.419938202,-0.1053808594,3.421704426
3.381302792,-1.91077652,-7.258855133,-0.9674382019,7.568221814
3.391305792,-3.750450897,-11.18339401,-2.778222656,12.11827977
3.401308792,-5.938001862,-14.36023773,-7.757468262,17.36820681
3.411311792,-7.947423248,-20.52816147,-13.22484879,25.68002288
3.421313792,-8.594677277,-28.96012711,-7.690707092,31.17217373
3.431316792,-7.595505066,-37.73532898,-4.754263458,38.78465897
3.441319792,-4.75411377,-45.10255875,-12.05712708,46.92778193
3.451321792,-2.319875793,-39.35735596,-9.720785522,40.60636604
3.461324792,-3.262315979,-27.59526535,-8.527317352,29.06641561
3.471327792,-5.883365479,-24.82332962,-10.62550415,27.63535817
3.481329792,-7.36333786,-24.60583191,-10.33720367,27.68616059
3.491332792,-7.826923828,-24.87527161,-11.59922928,28.54088285
3.501335792,-8.21401886,-25.39184738,-11.73544601,29.15367408
3.511338792,-7.987090759,-25.40262497,-11.22575592,28.8981759
3.521340792,-7.14928299,-24.86643997,-11.09133545,28.15084024
3.531343792,-5.778433685,-24.34387665,-10.79510147,27.24974939
3.541346792,-4.471202087,-23.80933823,-9.681118011,26.08831694
3.551348792,-3.048859863,-23.37494156,-8.316555634,24.99697056
3.561351792,-1.989961853,-21.95679062,-6.772516479,23.06355528
3.571354792,-1.991758118,-18.43865662,-4.580325165,19.10315515
3.581357792,-2.819536743,-13.86312149,-3.401376801,14.55009584
3.591359792,-3.010539551,-9.995464325,-1.91661438,10.61348511
3.601362792,-2.539169769,-6.652466125,-1.073567505,7.201057968
3.611365792,-1.256786499,-4.404291229,-0.8473878479,4.657827788
3.621367792,0.1234931946,-2.711760864,-0.8946894836,2.858210424
3.631370792,0.9497749329,-1.40527771,-1.248553619,2.106125354
3.641373792,1.509910126,-0.2850073242,-1.489103394,2.139739863
3.651376792,2.1061203,0.5492079163,-1.008303223,2.398759563
3.661378792,2.383343811,0.7442523193,-0.192948761,2.504290011
3.671381792,1.834884338,0.8916957092,0.4186793518,2.082597938
3.681384792,1.06129303,0.9512718201,0.5110372925,1.514074002
3.691386792,0.5284011841,1.158890076,0.6725514221,1.440333098
3.701389792,0.1778302002,1.413360901,0.5754034424,1.536327354
3.711392792,-0.03502716064,1.69896698,0.417481842,1.749859077
3.721395792,-0.2933898926,1.859433289,0.3644920349,1.917400383
3.731397792,-0.8548722839,1.464255066,0.2715353394,1.717143256
3.741400792,-1.606159973,0.4680766296,0.05553451538,1.673896554
3.751403792,-2.197580109,-0.6562353516,-0.1660047913,2.29946967
3.761405792,-2.319576416,-1.314566345,-0.8990304565,2.813676454
3.771408792,-2.622845764,-1.775906982,-2.174528046,3.842100693
3.781411792,-2.651735687,-1.695524139,-1.462758179,3.470758671
3.791413792,-2.370320892,-1.486259308,-0.477507019,2.838203801
3.801416792,-1.620380402,-0.9098080444,-0.349972229,1.890995475
3.811419792,-0.7767347717,-0.1222956848,-0.5254074097,0.9456881549
3.821422792,-0.2273771667,0.3748205566,-0.7306306458,0.8520633581
3.831424792,0.2546205139,0.4730163574,-0.769100647,0.9381321259
3.841427792,0.3728746033,0.02230361938,-0.6159690857,0.7203824233
3.851430792,0.649050293,-0.3803590393,-0.7466473389,1.059915813
3.861432792,1.220711517,-0.5562432861,-1.018332367,1.684204267
3.871435792,1.565893707,-0.6918612671,-1.045875092,2.006128067
3.881438792,1.869911499,-0.7135661316,-1.051712952,2.260939135
3.891441792,2.058818665,-0.6553372192,-1.072220306,2.412023538
3.901443792,2.105521545,-0.6209088135,-0.9099577332,2.376293713
3.911446792,1.789528656,-0.5062472534,-1.03554657,2.128627678
3.921449792,1.176104279,-0.5075944519,-1.200353851,1.755483629
3.931451792,0.260458374,-0.7505392456,-1.573677521,1.762841077
3.941454792,-0.260458374,-0.6462062073,-2.996917877,3.076838928
3.951457792,-0.7815248108,-0.8571176147,-4.975054321,5.10848286
3.961460792,-1.52233429,-1.327589264,-6.891369324,7.181292787
3.971462792,-1.785636749,-1.760489044,-4.091441803,4.798720278
3.981465792,-2.653831329,-3.363206177,3.138972473,5.311038006
3.991468792,-6.578819275,-9.17576889,-3.467389526,11.81094357
4.001470792,-7.163952484,-14.98189499,-13.81507141,21.60174972
4.011473792,-0.8681945801,-20.37892181,-8.14725769,21.96433527
4.021476792,5.896388397,-31.04319534,-11.59997772,33.66016721
4.031479792,3.53714447,-41.82602234,-14.28838715,44.34056318
4.041481792,-7.599995728,-46.17717407,-18.78383881,50.42741259
4.051484792,-12.09290268,-44.5683197,-22.49596939,51.36771413
4.061487792,-12.40874588,-28.15390366,-2.157164154,30.84270777
4.071490792,-13.06692719,-16.4760878,-6.266269226,21.94247446
4.081492792,-12.46892075,-15.47332306,-13.81941238,24.20483154
4.091495792,-12.15053284,-15.13248184,-8.832532654,21.32231432
4.101498792,-9.922865295,-17.49082764,-12.2797142,23.56233622
4.111500792,-10.17209702,-22.93410828,-12.18196747,27.88987651
4.121503792,-8.615034943,-29.23989532,-8.475974121,31.63909675
4.131506792,-5.94638443,-33.54763733,-5.427114258,34.50010185
4.141509792,-2.804118805,-32.70474014,-5.715265045,33.31857387
4.151511792,-3.526815948,-26.12337616,-6.625372467,27.18022761
4.161514792,-5.424719238,-20.06846741,-5.26889328,21.44602992
4.171517792,-5.63278656,-15.17559219,-4.081861725,16.69396532
4.181519792,-6.806944885,-11.59638519,-1.947749634,13.58691933
4.191523542,-6.433022461,-9.08685379,0.2013313293,11.13531428
4.201526542,-4.14443161,-6.979685669,0.09565109253,8.117972317
4.211529542,-2.210603027,-4.606071625,-0.8065228271,5.172343823
4.221531542,-0.8794212341,-2.917582855,-1.903890839,3.593114492
4.231534542,0.9113049316,-1.304387512,-2.279759216,2.780144878
4.241537542,2.769840088,0.6258485413,-2.342927856,3.681441491
4.251539542,3.176244965,0.7929011536,-1.277443542,3.514126679
4.261542542,2.412383423,0.5010081482,0.6599775696,2.55072016
4.271545542,1.254092102,0.7622149658,1.368005219,2.006279375
4.281548542,0.7640112305,1.283281403,0.9021739197,1.744832972
4.291550542,0.6484515381,1.796564026,1.04018692,2.174884026
4.301553542,0.6869215393,2.058668976,1.063538361,2.416835327
4.311556542,0.2260299683,2.0079245,0.6918612671,2.135772075
4.321558542,-0.5396278381,1.165177002,0.3029699707,1.319328031
4.331561542,-1.023571472,0.02215393066,-0.2537223816,1.054781685
4.341564542,-1.756148071,-0.6737489319,-1.336420898,2.307382606
4.351567542,-2.394570465,-1.193617859,-0.7355703735,2.774843253
4.361569542,-2.328258362,-1.723815308,1.487456818,3.256509481
4.371572542,-1.268013153,-1.602567444,1.957030334,2.82949598
4.381575542,-0.2799179077,-0.6837780762,1.357227631,1.545306874
4.391577542,-0.6869215393,-0.121098175,1.08703949,1.291580745
4.401580542,-0.6475534058,0.2812651062,0.5845344543,0.9165784209
4.411583542,-0.2032772827,0.6734495544,-0.03876937866,0.704527516
4.421586542,0.100740509,0.936302948,-0.8976832581,1.301017714
4.431588542,0.6776408386,0.8524772644,-1.873953094,2.167398162
4.441591542,0.7077282715,0.4382885742,-2.203118591,2.355144944
4.451594542,0.5197192383,-0.002544708252,-2.101180573,2.16450326
4.461596542,0.5430706787,-0.3106040955,-1.982627106,2.078992762
4.471599542,0.4821473694,-0.5463638306,-1.702110443,1.851528958
4.481602542,0.1218466187,-0.6854246521,-1.40647522,1.569339382
4.491605542,-0.2802172852,-0.7704478455,-1.214424591,1.465243562
4.501607542,-0.4547543335,-0.9300160217,-1.222507782,1.601953989
4.511610542,0.09116043091,-1.101559296,-1.029259644,1.510337221
4.521613542,-0.03293151855,-1.39704483,-1.567091217,2.099665122
4.531615542,-0.7526348877,-1.407972107,-2.709665222,3.145016748
4.541618542,-0.8894503784,-1.236129456,-4.684957581,4.926252687
4.551621542,-1.061592407,-1.392703857,-7.343279572,7.549195807
4.561624542,-1.293160858,-2.3237677,-5.915548553,6.485821152
4.571626542,-1.564696198,-4.071383514,-0.1601669312,4.364641034
4.581629542,-2.203867035,-8.112529907,1.516346741,8.542217443
4.591632542,-4.171974335,-14.8702272,-3.490291901,15.83386133
4.601634542,-3.347788239,-22.05438766,-8.065527649,23.72038022
4.611637542,2.560275879,-29.17897202,-12.74330017,31.94306059
4.621640542,1.387464752,-34.44532059,-8.987011414,35.62543393
4.631643542,-5.138664093,-37.78517532,-0.3900888062,38.13499065
4.641645542,-8.976682892,-42.66981766,-27.09620316,51.33710549
4.651648542,-10.33271301,-35.40078369,-14.05876465,39.46681274
4.661651542,-10.59122543,-25.71038498,-0.1652563477,27.8069283
4.671653542,-7.035369873,-21.50458099,-12.98534683,26.087596
4.681656542,-8.465495911,-21.39740387,-11.8430722,25.87995117
4.691659542,-8.054001617,-23.58046417,-7.267088013,25.95603592
4.701662542,-5.629643097,-26.2634848,-8.688083038,28.23023737
4.711664542,-5.564528503,-28.62138153,-7.545059967,30.11769228
4.721667542,-6.603517914,-28.96177368,-5.511389008,30.21202066
4.731670542,-7.949967957,-27.94658478,-5.653593292,29.60028223
4.741673542,-8.871152344,-24.94068558,-5.96509552,27.13517101
4.751675542,-8.85408783,-20.98905304,-5.069657593,23.33745159
4.761678542,-7.512876892,-16.8290538,-4.666845245,19.01157057
4.771681542,-5.538782043,-12.71680527,-3.677253113,14.34982345
4.781683542,-4.222569122,-9.049581299,-2.404300232,10.27159536
4.791686542,-2.42675354,-6.381230164,-2.412832489,7.240924787
4.801689542,-1.047671356,-4.10820694,-3.025658112,5.208606967
4.811692542,-0.4550537109,-1.565744019,-3.530558167,3.888890482
4.821694542,0.3251239014,0.333356781,-3.842210083,3.870324355
4.831697542,1.369651794,1.435215454,-3.275338898,3.829312514
4.841700542,2.23724762,2.017354889,-2.195634155,3.727708009
4.851702542,2.473007355,2.032623138,-0.7848179626,3.295946212
4.861705542,1.94355835,2.161505127,0.4917274475,2.948104366
4.871708542,1.407822418,2.279609528,1.222358093,2.944952099
4.881711542,0.8714877319,2.242486725,1.081501007,2.637779749
4.891713542,0.7168592834,2.280956726,0.5792953491,2.460128842
4.901716542,0.5559439087,2.273921356,0.6827302551,2.438424197
4.911719542,-0.005239105225,1.236279144,0.3017724609,1.272587989
4.921721542,-0.3225791931,-0.1020877075,-0.6969506836,0.7747383373
4.931724542,-0.4751119995,-0.8084687805,-1.740879822,1.977375972
4.941727542,-1.062789917,-1.787732391,-2.750081177,3.447964035
4.951730542,-1.703757019,-2.488275604,-0.8367599487,3.129611905
4.961732542,-2.035018158,-2.735112305,1.379231873,3.677556088
4.971735542,-1.371897125,-2.444865875,1.568288727,3.212320096
4.981738542,0.3359014893,-1.076710968,0.8428971863,1.408052551
4.991740542,0.979712677,-0.2903961182,0.6363267517,1.203776794
