Time (s),Acceleration x (m/s^2),Acceleration y (m/s^2),Acceleration z (m/s^2),Absolute acceleration (m/s^2)
0.002345749999,4.93538681,-10.80992065,-0.412691803,11.89044751
0.01234875,5.780679016,-12.653936,-0.800684967,13.93482841
0.02235175,4.242477722,-13.90832748,-0.1016386414,14.54133835
0.03235575,1.803000641,-14.36323151,0.4050576782,14.48161947
0.04235875,-1.149759064,-14.0262822,-0.6617738342,14.08887798
0.05236175,-2.809208221,-13.18832474,-3.381019135,13.90161324
0.06236575,-1.566342773,-12.61366974,-4.849166107,13.60413562
0.07236875,1.138682098,-12.30965195,-3.602558441,12.87643411
0.08237175,2.853665771,-12.48748215,-1.981579285,12.96176204
0.09237575,3.055895233,-12.44976059,-2.232008514,13.01218262
0.10237875,3.241359558,-11.99156342,-2.475102997,12.666102
0.11238175,2.847229156,-12.01401672,-0.8686436462,12.37731205
0.12238575,1.050964508,-12.37820938,1.1665242,12.47739446
0.13238875,-2.616708527,-13.10404999,1.788031769,13.48185251
0.14239175,-6.453679504,-13.45896194,2.345472565,15.10943008
0.15239475,-7.870333557,-12.9405899,3.7185672,15.595793
0.16239875,-7.640860748,-13.13413742,3.964655457,15.70371968
0.17240175,-7.678881683,-13.70190674,3.185825043,16.02675742
0.18240475,-7.229067078,-14.23539734,0.7117698669,15.9816321
0.19240875,-5.75208847,-14.44675781,-2.79304184,15.79862069
0.20241175,-4.25445282,-13.39938583,-3.34644104,14.45138669
0.21241475,-2.279908905,-12.39377701,-1.902094574,12.74447554
0.22241875,-1.294957123,-13.54203918,-2.23724762,13.786552
0.23242175,-1.204844513,-13.91671005,-2.092049561,14.12455806
0.24242475,-1.35842514,-12.9884903,-1.072819061,13.10332552
0.25242875,-1.222956848,-12.36788086,-0.2188449097,12.43012444
0.26243175,-1.290765839,-11.94920151,0.2736309814,12.02182877
0.27243475,-1.482966156,-11.01394638,0.2740800476,11.11671369
0.28243775,-0.8195457458,-10.03782623,0.3969744873,10.07904755
0.29244175,-0.06092330933,-8.966653748,0.2472857666,8.970269858
0.30244475,0.8327183533,-8.19411026,-0.5047503662,8.251765614
0.31244775,0.9729766846,-7.814050598,-1.563648376,8.028142165
0.32245175,0.37676651,-7.427105255,-1.767374725,7.643785639
0.33245475,0.1513352966,-6.656058655,-1.177750854,6.761147555
0.34245775,0.060025177,-6.271208954,-0.6658154297,6.306740438
0.35246175,0.1948947144,-5.947881317,-0.07020401001,5.951487605
0.36246475,0.1317260742,-5.304818573,0.2338137817,5.311602464
0.37246775,-0.4734654236,-4.874014435,0.2900967407,4.905542002
0.38247175,-1.341210938,-4.590953064,0.6956034851,4.833172977
0.39247475,-2.003284149,-4.163591766,0.6291416931,4.663095865
0.40247775,-2.672392731,-3.864513702,0.5556445312,4.731267262
0.41248175,-3.412603455,-3.617826691,0.7394622803,5.028054968
0.42248475,-3.700454865,-3.349734192,1.117725677,5.11501672
0.43248775,-3.692671051,-3.147355042,1.275048523,5.016713265
0.44249075,-3.10424469,-2.918780365,1.127305756,4.407542647
0.45249475,-2.505040741,-2.873873749,0.6747967529,3.87165728
0.46249775,-2.070344696,-2.85621048,0.1757345581,3.532017568
0.47250075,-1.469943237,-2.88899231,-0.5348377991,3.285279464
0.48250475,-0.978664856,-3.187920685,-1.210682373,3.547728146
0.49250775,-0.7385641479,-3.886517944,-2.062411194,4.461394251
0.50251075,-0.7825726318,-4.918322296,-3.450774078,6.058890647
0.51251475,-0.7132667542,-6.399043121,-5.242697754,8.303154947
0.52251775,-0.3641926575,-8.324339447,-7.734865265,11.36905467
0.53252075,0.1740879822,-10.94029953,-10.89254883,15.43917357
0.54252475,1.638343048,-14.11010788,-13.37798035,19.51280786
0.55252775,2.065854034,-18.3127684,-13.39699081,22.78386715
0.56253075,2.545606384,-21.7885405,-14.1575592,26.10856357
0.57253475,3.027604065,-22.63338364,-13.3043335,26.42804819
0.58253775,2.553539886,-20.04272095,-7.902366943,21.69512923
0.59254075,0.8183482361,-15.77913712,-4.569098511,16.44772091
0.60254375,-0.8478369141,-11.30509094,-5.980214081,12.81744394
0.61254775,-0.2704875183,-6.97025528,-8.363408203,10.89055641
0.62255075,1.013841705,-3.690276031,-9.762548676,10.48586519
0.63255375,2.158511353,-2.756068726,-9.096583557,9.746944059
0.64255775,1.794468384,-4.722978516,-7.984995117,9.449168739
0.65256075,-0.2643502808,-7.476053467,-6.121520233,9.666140206
0.66256375,-3.011287994,-10.73597443,-2.207309875,11.36667142
0.67256775,-5.74041275,-14.25560532,2.352507935,15.54699055
0.68257075,-8.025411072,-16.23808273,6.144422607,19.1268524
0.69257375,-9.128916321,-17.54800873,4.929848328,20.38561081
0.70257775,-5.055287476,-16.36202499,-2.014211426,17.24322595
0.71258075,-2.538571014,-10.68088898,-4.824766846,11.99183502
0.72258375,-6.039041748,-5.122946777,-2.924318848,8.441933999
0.73258775,-8.852441254,-1.404978333,-3.810625763,9.739638031
0.74259075,-6.238277435,-1.430874481,-3.096760254,7.110093615
0.75259375,-0.9098080444,-4.528832245,3.270848236,5.660081304
0.76259775,0.5023553467,-8.549471283,8.098010101,11.78658507
0.77260075,-2.29802124,-10.95676529,7.133565674,13.27476427
0.78260375,-3.59567276,-11.84007843,5.323829041,13.4706895
0.79260675,-3.002755737,-13.36480774,4.140090637,14.30996081
0.80261075,-1.913021851,-14.29422501,3.000510406,14.73049842
0.81261375,0.4695735168,-14.32895279,0.6185137939,14.34998072
0.82261675,3.627706146,-14.21548874,-4.085005188,15.22917067
0.83262075,4.209546204,-13.42318634,-3.991599426,14.62310079
0.84262375,3.959266663,-12.13945587,-3.114273834,13.14309259
0.85262675,3.218756561,-10.66981201,-3.512146454,11.68505263
0.86263075,0.6523434448,-9.851912842,-3.223247223,10.38629199
0.87263375,-1.037342834,-9.543404388,-2.818339233,10.00478303
0.88263675,-1.27190506,-8.914262695,-2.171983337,9.262792964
0.89264075,-1.427281952,-8.092471619,-1.366508331,8.330220627
0.90264375,-1.365759888,-7.404651947,-0.3579057312,7.538054593
0.91264675,-0.7937992859,-6.916517029,0.7503895569,7.002243184
0.92265075,-0.5343887329,-6.821913757,1.35378479,6.97544349
0.9326545,-0.2396516418,-6.876400452,1.474882965,7.036874011
0.9426575,-0.403560791,-7.332202606,0.9431886292,7.403624866
0.9526615,-0.7954458618,-8.158035278,0.2880010986,8.201781413
0.9626645,-0.6747967529,-8.847950592,-0.1877096558,8.875630414
0.9726675,-0.7216493225,-9.019942932,-0.5959107971,9.06836578
0.9826705,-0.9156459045,-8.934470673,-0.6713539124,9.006324983
0.9926745,-0.6713539124,-8.697812805,-0.5794450378,8.742906852
1.0026775,-0.4652325439,-8.479866028,-0.3818559265,8.501198922
1.0126805,-0.2228865051,-8.052953796,0.5607339478,8.075528825
1.0226845,-0.01601669312,-7.880063324,0.4050576782,7.890483271
1.0326875,0.08337661743,-8.148006134,-0.1649569702,8.150102234
1.0426905,-0.1550775146,-8.460705872,-0.4658312988,8.474939037
1.0526945,-0.4167333984,-8.654253387,-0.8732839966,8.708179681
1.0626975,-0.4887336731,-8.861422577,-1.106648712,8.943620188
1.0727005,-0.2860551453,-9.357790375,-0.5313949585,9.37723034
1.0827045,-0.04760101318,-10.21550674,0.3716770935,10.22237682
1.0927075,-0.05523513794,-11.05600891,0.7107220459,11.078967
1.1027105,-0.2148033142,-11.50836823,0.2185455322,11.51244726
1.1127135,-0.2865042114,-11.46974854,-0.8632548523,11.50575617
1.1227175,-0.1639091492,-11.08834167,-1.890718231,11.24957789
1.1327205,0.1260379028,-10.60918808,-2.200124817,10.83564979
1.1427235,0.7089257812,-10.10847931,-1.648970947,10.26659802
1.1527275,1.486259308,-9.580227814,-0.6750961304,9.71830677
1.1627305,2.831212463,-9.390123138,-0.3748205566,9.814818746
1.1727335,5.124743042,-10.12344818,-0.499511261,11.35767167
1.1827375,6.859635315,-12.1457428,-0.2881507874,13.95194236
1.1927405,5.368436279,-14.11878983,0.09610015869,15.10528283
1.2027435,2.854713593,-15.05015305,0.0252973938,15.31852266
1.2127475,0.1398092651,-14.99087631,-0.5384303284,15.00119417
1.2227505,-2.167941742,-14.57923233,-2.123484192,14.89171487
1.2327535,-1.931583252,-14.0925943,-3.500021667,14.64863064
1.2427575,-0.5370831299,-13.27679077,-4.298161926,13.96552281
1.2527605,1.32100296,-12.70078857,-3.695515137,13.29330325
1.2627635,2.809058533,-12.13436646,-3.956422577,13.06854769
1.2727665,3.13582901,-11.9493512,-3.177292786,12.75600278
1.2827705,1.942660217,-11.8511554,-0.3345542908,12.013981
1.2927735,-0.926124115,-10.91575058,1.279090118,11.02938748
1.3027765,-5.121599579,-9.801617432,3.206781464,11.51459656
1.3127805,-6.655160522,-9.620943146,4.894072723,12.68091702
1.3227835,-6.278992767,-10.44318329,4.511618042,12.99386489
1.3327865,-6.20145401,-12.04455322,3.14286438,13.9070806
1.3427905,-6.141578522,-14.47385147,-0.6619235229,15.73688361
1.3527935,-5.723647614,-16.60781387,-4.567751312,18.15059161
1.3627965,-5.554948425,-17.01376968,-3.451073456,18.22733439
1.3728005,-4.550686798,-16.14841919,-1.44973526,16.83989088
1.3828035,-3.7384758,-15.38051605,-0.9813592529,15.85873707
1.3928065,-4.286186829,-15.57391388,-1.246308289,16.20097143
1.4028105,-4.222269745,-15.44248718,-0.6535409546,16.02264298
1.4128135,-2.713257751,-14.36936874,-0.02484832764,14.62330822
1.4228165,-1.047821045,-13.13024551,-0.1887574768,13.17334071
1.4328195,-0.8207432556,-11.80175812,-0.3357518005,11.83502613
1.4428235,0.04011657715,-10.02300705,-0.3112028503,10.02791737
1.4528265,1.383423157,-8.884923706,-0.2857557678,8.99652073
1.4628295,1.8791922,-8.109536133,-1.263073425,8.419696793
1.4728335,2.021546173,-7.625592499,-1.251846771,7.987704941
1.4828365,1.215622101,-6.748865662,-1.274449768,6.974894051
1.4928395,-0.3228785706,-5.646557922,-1.120569763,5.765721424
1.5028435,-0.4776567078,-5.027595062,-0.213306427,5.054737152
1.5128465,-0.08442443848,-4.768633575,0.7032376099,4.820947708
1.5228495,0.04176315308,-4.547543335,1.532513123,4.799009379
1.5328535,-0.6390211487,-4.282444611,1.119372253,4.472211322
1.5428565,-1.561403046,-3.689078522,1.089584198,4.151442344
1.5528595,-2.247127075,-3.220403137,0.8686436462,4.021830211
1.5628635,-2.710263977,-2.846181335,0.8982820129,4.031524475
1.5728665,-3.342549133,-2.480342102,1.305435333,4.362211946
1.5828695,-3.633693695,-2.254312134,1.091530151,4.413285753
1.5928725,-3.469185791,-1.897005157,0.9964778137,4.077603052
1.6028765,-3.065475311,-1.637295227,0.9315129089,3.597998172
1.6128795,-2.362088013,-1.593735809,0.6718029785,2.927588231
1.6228825,-1.909728699,-1.798659668,0.1649569702,2.628583479
1.6328865,-1.700763245,-2.218087463,-0.4414320374,2.829729643
1.6428895,-1.278042297,-3.030597839,-1.425036621,3.584500628
1.6528925,-0.9919871521,-4.172722778,-2.78016861,5.111261233
1.6628965,-0.5457650757,-5.630541229,-5.162314911,7.658351604
1.6728995,-0.07364685059,-7.811805267,-8.288414154,11.38979958
1.6829025,1.436562653,-11.13040421,-11.82765427,16.30469305
1.6929065,2.946772156,-15.90861786,-14.9405809,22.02245549
1.7029095,2.936743011,-22.09225891,-14.85630615,26.78436476
1.7129125,2.525997162,-26.07921799,-17.88870026,31.72557122
1.7229155,1.956581268,-23.92355072,-14.36427933,27.97314802
1.7329195,1.199904785,-18.60810425,-6.849157104,19.86485007
1.7429225,0.3329077148,-12.59795242,-4.962480469,13.54420338
1.7529255,0.442180481,-7.180118866,-8.550519104,11.17412222
1.7629295,1.173709259,-3.664828949,-9.642947388,10.38243704
1.7729325,2.27811264,-1.545985107,-8.610993347,9.040413352
1.7829355,2.743045807,-1.848206635,-7.694149933,8.374969328
1.7929395,0.9458830261,-4.871769104,-5.962401123,7.757516101
1.8029425,-2.273322601,-8.556057587,-3.078049164,9.372753263
1.8129455,-6.15460144,-13.04387512,0.1589694214,14.42383681
1.8229495,-9.164242859,-16.71753571,4.020938416,19.48402661
1.8329525,-11.21048767,-18.66064499,5.335654449,22.41347616
1.8429555,-8.27134964,-20.73637848,-1.135538635,22.35401676
1.8529585,-0.4355941772,-17.45235764,-7.42890152,18.97269372
1.8629625,-2.084714813,-9.044192505,-1.354233856,9.379627032
1.8729655,-6.996450806,-1.751058655,0.256716156,7.21681602
1.8829685,-9.493108978,0.817300415,-3.295247498,10.0819519
1.8929725,-5.366340637,-0.9554631042,-0.7319778442,5.499664821
1.9029755,-0.470022583,-4.679718475,5.874234467,7.525112411
1.9129785,-0.7923023987,-8.889713745,7.743547211,11.8159755
1.9229825,-3.081192627,-11.2604837,6.093079376,13.16882142
1.932985375,-4.039200439,-12.914095,5.106031952,14.46238404
1.942988375,-3.620072021,-14.84522919,3.966152344,15.78658023
1.952992375,-2.223625946,-15.8708963,2.839595032,16.27553875
1.962995375,-0.3820056152,-15.84275482,2.064357147,15.98125086
1.972998375,2.098785553,-14.85286331,-0.6189628601,15.01317969
1.983001375,4.657265167,-13.68199814,-5.285957794,15.3892346
1.993005375,3.722758484,-12.15801727,-4.840933228,13.60554847
2.003008375,2.040856018,-10.46788193,-4.277205505,11.49069764
2.013011375,0.2210902405,-9.637708282,-4.383933563,10.59023963
2.023015375,-0.9798623657,-8.880732422,-3.158432007,9.476456687
2.033018375,-1.702260132,-7.989635468,-1.465901642,8.299447698
2.043021375,-1.969753876,-7.392976227,-0.07214996338,7.65122431
2.053025375,-1.926942902,-7.127129059,1.102457428,7.464883787
2.063028375,-1.97858551,-6.794371033,1.704056396,7.278879485
2.073031375,-1.334025879,-6.548731842,1.89670578,6.947158167
2.083035375,-0.8385562134,-6.803651733,1.289268951,6.975318477
2.093038375,-0.586330719,-7.320826263,0.4851411438,7.360274643
2.103041375,0.1595681763,-7.945626984,0.1239422607,7.948195509
2.113044375,0.5626799011,-8.431366882,-0.2029779053,8.452559151
2.123048375,0.6402186584,-8.627459106,-0.6798861694,8.677855482
2.133051375,0.3776646423,-8.093369751,-0.6038442993,8.12464722
2.143054375,0.2029779053,-7.8219841,-0.4369413757,7.836807581
2.153058375,0.1116677856,-7.88635025,-0.2603086853,7.891435267
2.163061375,-0.1721420288,-7.929310913,-0.2174977112,7.934160932
2.173064375,-0.5601351929,-8.315507812,-0.4782554626,8.348062644
2.183068375,-1.080752563,-8.540639648,-0.9883946228,8.665302974
2.193071375,-1.264570312,-8.743916931,-1.675166473,8.992296931
2.203074375,-0.6518943787,-8.819360046,-1.925446014,9.050603309
2.213078375,0.02903961182,-9.15002243,-0.9865983582,9.203104373
2.223081375,0.2189945984,-9.854307861,0.3350033569,9.862432221
2.233084375,-0.02110610962,-10.69271439,0.818946991,10.72405057
2.243087375,-0.3668870544,-11.42349472,0.336051178,11.43432412
2.253091375,-0.155975647,-11.42349472,-0.7200027466,11.44722517
2.263094375,0.4436773682,-10.89239914,-1.415456543,10.99293982
2.273097375,0.8572673035,-10.36579422,-1.112636261,10.46052372
2.283101375,0.8996292114,-9.988129578,-0.4710704041,10.03962014
2.293104375,1.387165375,-9.71404953,-0.1862127686,9.814359951
2.303107375,2.513722687,-9.895322571,-0.2671943665,10.21310939
2.313111375,4.844675446,-10.97008759,-0.216000824,11.99418018
2.323114375,7.369924164,-12.77114227,-0.3445834351,14.74912183
2.333117375,6.52553009,-14.61875015,-1.621128845,16.09094334
2.343121375,3.182082825,-15.49113602,-1.900897064,15.92841348
2.353124375,0.1899549866,-15.23292297,-0.9836045837,15.26582796
2.363127375,-1.31396759,-14.85091736,0.362845459,14.91334684
2.373130375,-2.713257751,-14.75092529,0.609382782,15.01075987
2.383134375,-2.454146576,-13.80998199,-2.199675751,14.19778192
2.393137375,-0.3876937866,-12.19454132,-5.366640015,13.32883977
2.403140375,2.283651123,-12.30321533,-4.614154816,13.33696347
2.413144375,3.073708191,-12.99851944,-2.979404297,13.68524898
2.423147375,1.768422546,-13.48665436,-1.132544861,13.64916928
2.433150375,0.6465055847,-13.3812735,1.01444046,13.43523499
2.443154375,-3.136727142,-12.0554805,2.588567047,12.72298497
2.453157375,-7.181316376,-10.72534653,4.654421082,13.72107862
2.463160375,-7.177424469,-10.54557037,5.872138824,14.04302285
2.473164375,-7.020999756,-11.34670441,4.698878632,14.14643414
2.483167375,-6.961573334,-13.00675232,2.24428299,14.92232942
2.493170375,-5.740113373,-14.89223145,-2.827320557,16.2086767
2.503173375,-4.309089203,-15.67704941,-5.221142578,17.07625421
2.513177375,-4.210294647,-14.65198105,-3.059637451,15.54890707
2.523180375,-3.730093231,-13.77465546,-1.44509491,14.34374525
2.533183375,-3.990701294,-13.37244186,-1.000968475,13.99106272
2.543187375,-3.915557556,-13.56583969,-0.8351133728,14.14429255
2.553190375,-3.453767853,-13.38890762,-0.1073268127,13.82761291
2.563193375,-2.232158203,-12.86215302,0.6045927429,13.06839863
2.573197375,-1.046473846,-11.87390808,0.3667373657,11.92557323
2.583200375,-0.5755531311,-10.6407724,0.4888833618,10.66753512
2.593203375,0.02499801636,-9.214089203,0.5882766724,9.232883308
2.603206375,1.567240906,-7.940537567,0.1017883301,8.094364816
2.613210375,2.358046417,-7.449708252,-1.293609924,7.920351165
2.623213375,1.198108521,-6.914870453,-1.586550751,7.19500109
2.633216375,-0.2561174011,-5.622458038,1.279988251,5.772001424
2.643220375,-0.2067201233,-4.005370789,-0.2192939758,4.016692447
2.653223375,-1.704056396,-4.354295197,-5.27937149,7.052337073
2.663226375,-1.337917786,-4.978796539,0.4114942932,5.171824295
2.673230375,-0.3986210632,-5.153782654,1.869163055,5.496739481
2.683233375,-0.786763916,-4.792284393,1.53984787,5.094714774
2.693236375,-1.063837738,-4.741988983,1.15140564,4.994391374
2.703240375,-1.829196167,-4.440964966,0.9764195251,4.90117573
2.713243375,-2.881358185,-3.781885529,0.8674461365,4.832943817
2.723246375,-3.670217743,-3.23761734,0.9725276184,4.989837101
2.733249375,-3.678001556,-2.715503082,1.123114471,4.707763647
2.743253375,-3.295097809,-2.27811264,0.9383985901,4.11437221
2.753256375,-2.85501297,-2.024689636,0.6976991272,3.568928586
2.763259375,-2.481389923,-2.084415436,0.3775149536,3.262606504
2.773263375,-2.12258606,-2.425406342,-0.157023468,3.226859754
2.783266375,-1.970801697,-2.991828461,-0.8765771484,3.688290168
2.793269375,-1.942510529,-3.937711487,-2.074685669,4.85625777
2.803273375,-1.905986481,-5.171146545,-3.734583893,6.657376203
2.813276375,-1.448388062,-7.128925323,-5.987399139,9.42169585
2.823279375,0.02859054565,-9.918075256,-8.796008606,13.25665122
2.833282375,2.183060303,-13.24775116,-12.15622101,18.11194005
2.843286375,4.073778534,-17.43334717,-14.52040466,23.0512346
2.853289375,3.98770752,-22.52934998,-15.70189774,27.74928853
2.863292375,4.294419708,-25.51070023,-18.02297104,31.52880194
2.873296375,3.181783447,-22.98140991,-11.27186005,25.79387091
2.883299375,1.318308563,-17.106427,-5.576353912,18.04060712
2.893302375,1.426683197,-10.41953247,-7.785460052,13.08493294
2.903306375,1.380878448,-5.590424652,-9.251062317,10.89687235
2.913309375,1.311572571,-2.142644348,-8.247399445,8.621527997
2.923312375,1.25199646,-0.2110610962,-7.284751282,7.39456849
2.93331625,0.05748046875,-1.945204926,-6.613397369,6.893776249
2.94331925,-2.22317688,-5.848188629,-5.608836365,8.402551461
2.95332225,-4.518952789,-10.32283356,-3.04107605,11.67175953
2.96332525,-6.761439514,-14.93294678,0.3948788452,16.39713063
2.97332925,-8.488248596,-18.27444809,3.213966522,20.40429852
2.98333225,-8.040230255,-20.05080414,3.803590393,21.93507121
2.99333525,-2.797831879,-19.01016815,-1.081351318,19.24535469
3.00333925,-0.4046086121,-12.4297023,-1.465153198,12.52229537
3.01334225,-5.144052887,-5.43504776,-0.2661465454,7.488114465
3.02334525,-9.856104126,-1.488504639,-3.055595856,10.42569425
3.03334925,-8.599317627,-0.860710144,-2.793939972,9.082686066
3.04335225,-2.394121399,-3.376229095,2.99781601,5.110542144
3.05335525,-0.632434845,-7.198081512,7.815397797,10.64390878
3.06335925,-3.037483521,-9.823621674,6.578968964,12.20707506
3.07336225,-4.452790375,-11.36855896,5.611830139,13.43741465
3.08336525,-4.021686859,-13.4011821,4.556225281,14.71478289
3.09336825,-2.780467987,-14.67623062,3.2142659,15.27920982
3.10337225,-1.041085052,-15.2550769,2.279160461,15.45948906
3.11337525,1.059646454,-15.06182877,1.101559296,15.13918655
3.12337825,3.878734131,-14.27536423,-2.123035126,14.94449331
3.13338225,5.35780838,-13.13458649,-4.235442352,14.80413607
3.14338525,4.669389954,-11.61195282,-3.767964478,13.07050906
3.15338825,2.823129272,-9.763446808,-4.98223938,11.31890727
3.16339225,0.4752616882,-9.072184296,-5.176685028,10.45602551
3.17339525,-0.7831713867,-9.206604767,-3.987258453,10.0634566
3.18339825,-1.118474121,-8.553512878,-2.348915405,8.940412211
3.19340125,-1.354233856,-7.623945923,-0.6375242615,7.769487625
3.20340525,-0.8632548523,-7.009623413,0.6042933655,7.088384852
3.21340825,-0.7631130981,-6.586603088,1.354533234,6.767602391
3.22341125,-1.381626892,-6.549629974,1.62412262,6.887983736
3.23341525,-1.676363983,-6.789730682,1.034199371,7.069668117
3.24341825,-1.02611618,-7.230264587,0.2787203979,7.308031574
3.25342125,-0.5998027039,-7.802374878,-0.2887495422,7.830721124
3.26342525,-0.1683998108,-8.372389526,-0.4487667847,8.386099004
3.27342825,-0.03502716064,-8.719817047,-0.2186952209,8.722629411
3.28343125,0.04475692749,-8.617130585,0.1222956848,8.618114581
3.29343425,0.2508782959,-8.391399994,0.4224215698,8.405770266
3.30343825,-0.03308120728,-8.108338623,0.2737806702,8.113026898
3.31344125,-0.4822970581,-8.202642517,0.01930984497,8.216831968
3.32344425,-0.6192622375,-7.940537567,-0.5414241028,7.983029665
3.33344825,-1.126557312,-7.776029663,-1.425335999,7.985446225
3.34345125,-1.43805954,-8.368796997,-2.668351135,8.900835702
3.35345425,-1.002016296,-9.064999237,-2.504741364,9.457905536
3.36345825,-0.3748205566,-9.76554245,-0.7382647705,9.800578792
3.37346125,-0.169896698,-10.49153275,0.6304888916,10.51183335
3.38346425,-0.5960604858,-11.1715686,0.4318519592,11.19579069
3.39346825,-1.042881317,-11.29700775,-0.8469387817,11.37661157
3.40347125,-0.8479866028,-10.91455307,-1.965562592,11.1224991
3.41347425,-0.2730322266,-10.33899994,-1.66738266,10.47614582
3.42347725,0.3597019958,-9.790241089,-0.5255570984,9.810933512
3.43348125,1.561552734,-9.477541351,0.2769241333,9.609314439
3.44348425,3.17325119,-9.37350769,0.597557373,9.914093219
3.45348725,5.935307465,-10.07629623,0.8849597168,11.72786316
3.46349125,7.88994278,-11.787388,0.3944297791,14.18975996
3.47349425,7.293582916,-13.66268829,-1.753453674,15.58653274
3.48349725,4.784799957,-14.67997284,-3.240311737,15.77642334
3.49350125,1.372346191,-15.95068039,-1.53401001,16.08293274
3.50350425,-1.469194794,-16.72097855,0.9086105347,16.80997412
3.51350725,-1.967508545,-15.74949875,0.1704954529,15.87283432
3.52351125,-0.4631369019,-13.91117157,-2.864892426,14.21065793
3.53351425,0.4870870972,-13.26122314,-5.881718903,14.51523029
3.54351725,0.9063652039,-13.35687424,-3.948938141,13.95785441
3.55352025,1.173260193,-12.76425659,-2.032174072,12.97815539
3.56352425,0.1425036621,-12.50035538,-0.07110214233,12.50136982
3.57352725,-1.705553284,-11.89231979,2.054477692,12.18839861
3.58353025,-5.28176651,-10.66666855,3.294648743,12.35028687
3.59353425,-6.503076782,-9.64504303,4.853956146,12.60467187
3.60353725,-5.853727112,-9.533375244,5.857768707,12.62793803
3.61354025,-6.08679245,-10.59017761,5.072801056,13.22626987
3.62354425,-6.231242065,-12.94552963,0.693507843,14.38388224
3.63354725,-5.344785461,-15.04880585,-4.218976593,16.51765881
3.64355025,-4.95769043,-15.62166458,-3.858526154,16.83755691
3.65355325,-4.831502838,-15.24953842,-1.623673553,16.07881083
3.66355725,-4.803960114,-15.10299316,-0.988843689,15.87942843
3.67356025,-5.970334625,-15.18966293,-0.8711883545,16.34410367
3.68356325,-5.693410492,-15.21466095,-0.7942483521,16.26442933
3.69356725,-4.905598755,-15.10598694,0.119002533,15.88300671
3.70357025,-2.719095612,-14.14543442,0.5511538696,14.41494247
3.71357325,-0.7273374939,-12.14020432,1.062340851,12.20828197
3.72357725,0.4108955383,-10.31235535,0.8345146179,10.35422245
3.73358025,2.38229599,-8.683143311,-0.1228944397,9.004855078
3.74358325,4.273912354,-8.231382751,-0.5941145325,9.293813043
3.75358725,4.343667297,-8.238418121,-1.806144104,9.486892814
3.76359025,3.087629242,-7.351961517,-2.639161835,8.399402817
3.77359325,1.31980545,-6.220314789,-1.921703796,6.642826806
3.78359625,0.5367837524,-5.469326477,-0.6396199036,5.532701197
3.79360025,0.2426454163,-5.015619965,0.1517843628,5.023779346
3.80360325,0.1604663086,-4.325255585,0.795894928,4.400799251
3.81360625,-0.4912783813,-3.803889771,1.2952565,4.04828621
3.82361025,-1.484912109,-3.821403351,1.439855804,4.345258598
3.83361325,-2.633623352,-3.522325287,1.727108459,4.725002753
3.84361625,-3.631598053,-2.728825378,1.917961578,4.930879129
3.85362025,-4.096830597,-2.069296875,1.638792114,4.873566465
3.86362325,-4.543950806,-2.016307068,1.745520172,5.268759227
3.87362625,-4.364923096,-1.987866211,1.717827759,5.094614599
3.88363025,-3.541784821,-1.671573944,1.080902252,4.062849843
3.89363325,-2.851420441,-1.758393402,0.6060896301,3.404392828
3.90363625,-2.26643692,-1.804347839,0.09475296021,2.898514372
3.91363925,-1.691632233,-1.960173798,-0.4712200928,2.631719838
3.92364325,-1.287023621,-2.713856506,-1.224004669,3.243398583
3.93364575,-0.9922865295,-3.824247437,-2.521356812,4.686869017
3.94364875,-0.960402832,-5.470823364,-4.54350174,7.176049745
3.95365275,-0.6987469482,-7.925718384,-6.991511078,10.59181223
3.96365575,-0.02754272461,-11.04612946,-10.21281235,15.04391141
3.97365875,1.58310791,-15.13352966,-14.49480789,21.01498053
3.98366275,2.661764832,-20.71976303,-15.69097046,26.12661719
3.99366575,1.931433563,-25.95243164,-18.64358047,32.01315724
4.00366875,1.775308228,-26.18489822,-16.64418823,31.07779941
4.01367275,2.199226685,-21.08754822,-7.742349701,22.57133728
4.02367575,1.355730743,-14.60527817,-4.416416016,15.3185145
4.03367875,0.3585044861,-8.466244354,-6.975793762,10.97576957
4.04368275,1.068777466,-3.77230545,-9.103469238,9.911898196
4.05368575,1.468745728,-1.790726166,-8.823551331,9.122443329
4.06368875,1.264570312,-4.124822388,-9.041049042,10.01767765
4.07369175,0.1631607056,-8.314010925,-7.711962891,11.34124203
4.08369575,-1.729054413,-12.87682251,-3.281625824,13.40041996
4.09369875,-4.465364227,-16.5358136,2.750979309,17.34763662
4.10370175,-7.352410583,-18.06009384,6.427483978,20.53137797
4.11370575,-7.741451569,-17.72658737,5.196893005,20.02922038
4.12370875,-4.743336182,-12.9566066,-2.015408936,13.94398673
4.13371175,-4.670288086,-5.375920715,-2.932402039,7.701369752
4.14371575,-8.494086456,-0.8421487427,-4.073179779,9.457775253
4.15371875,-10.77444443,0.9270222473,-6.08679245,12.4095554
4.16372175,-6.407126312,-0.3849993896,-2.377955017,6.84501002
4.17372475,-0.2685415649,-4.692741394,5.724246368,7.406816648
4.18372875,-0.1158590698,-10.01806732,9.56780365,13.85344588
4.19373175,-3.601959686,-13.03519318,7.797285461,15.61051041
4.20373475,-4.500990143,-14.41711945,5.61168045,16.11220664
4.21373875,-4.189038849,-15.57511139,3.865860901,16.58544608
4.22374175,-2.215093689,-15.57166855,2.374661865,15.90668163
4.23374475,0.9970765686,-14.74493774,-0.8767268372,14.80459391
4.24374875,3.528462524,-13.96775391,-4.789739685,15.18189063
4.25375175,3.054697723,-12.87487656,-3.740421753,13.75079559
4.26375475,2.232756958,-11.25943588,-3.237168274,11.92641432
4.27375875,0.8900491333,-10.09710297,-2.936743011,10.55311022
4.28376175,-0.2269281006,-9.291927338,-2.016456757,9.510915196
4.29376475,-1.408271484,-8.426427155,-1.52457962,8.678262855
4.30376775,-2.252216492,-7.955506439,-0.9966275024,8.328014662
4.31377175,-2.626288605,-7.822882233,-0.5539979553,8.270537588
4.32377475,-2.49935257,-7.386988678,0.2534230042,7.802473211
4.33377775,-2.20790863,-7.089407501,1.430724792,7.561847173
4.34378175,-1.818717957,-7.223378906,1.785936127,7.659928569
4.35378475,-1.147214355,-7.067552948,1.494492188,7.314363427
4.36378775,-0.3905378723,-7.294031982,1.209035797,7.403863177
4.37379175,0.1137634277,-8.045619049,0.9114546204,8.097881052
4.38379475,0.680634613,-8.803343353,0.7206015015,8.85897196
4.39379775,1.032852173,-8.95348114,0.4939727783,9.026384506
4.40380175,0.4511618042,-8.541687469,0.5138813782,8.569016622
4.41380475,-0.1782792664,-7.986641693,0.3634442139,7.996894443
4.42380775,-0.425565033,-7.729177094,-0.2139051819,7.743838813
4.43381075,-0.6135740662,-7.760761414,-0.7914042664,7.825101377
4.44381475,-0.7948471069,-7.887697449,-1.4730867,8.063345298
4.45381775,-0.8487350464,-8.087082825,-2.206411743,8.425527436
4.46382075,-1.022972717,-8.759334869,-2.554587708,9.181412685
4.47382475,-0.822689209,-9.319020996,-1.782942352,9.523647058
4.48382775,-0.05418731689,-9.761051788,-0.3339555359,9.766913258
4.49383075,0.3432362366,-10.17958145,0.6364764404,10.20523355
4.50383475,0.08262817383,-10.39543259,0.5363346863,10.40958697
4.51383775,-0.2863545227,-10.45021866,-0.6360273743,10.47347124
4.52384075,-0.1010398865,-10.45665527,-1.962119751,10.63963169
4.53384475,0.4790039062,-10.36309982,-2.112107849,10.58698646
4.54384775,1.018482056,-10.12105316,-1.313069458,10.25656737
4.55385075,1.66858017,-9.852960663,-0.7261399841,10.01959445
4.56385375,2.795885925,-9.563762054,-0.5689668274,9.980292881
4.57385775,4.991669769,-10.20667511,-0.4986131287,11.3728448
4.58386075,7.408394165,-11.94201645,0.09894424438,14.05367749
4.59386375,6.608307953,-14.03601196,-0.3436853027,15.51765077
4.60386775,3.843557281,-15.0799411,-1.716929626,15.6564812
4.61387075,1.226699066,-15.50071609,-2.13306427,15.69480657
4.62387375,-1.135688324,-15.50715271,-0.9313632202,15.57655323
4.63387775,-2.234253845,-15.14954636,-0.03966751099,15.31346527
4.64388075,-1.698517914,-14.33883224,-1.453926544,14.51209756
4.65388375,-1.292412415,-13.49608475,-4.856201477,14.40129599
4.66388775,0.2543211365,-13.31556015,-5.43504776,14.38431665
4.67389075,2.424059143,-13.07321411,-2.411036224,13.51288591
4.68389375,1.531016235,-12.54660919,-0.09415420532,12.64002682
4.69389675,-0.675844574,-12.36368958,1.012943573,12.4235116
4.70390075,-5.25841507,-11.13130234,2.024689636,12.47622495
4.71390375,-7.057523804,-10.48973648,4.085753632,13.28670751
4.72390675,-6.445147247,-11.05930206,5.238356781,13.83070739
4.73391075,-6.829248505,-11.8391803,4.77042984,14.47625042
4.74391375,-7.721093903,-13.53111191,1.773062897,15.67960562
4.75391675,-6.920259247,-15.51508621,-3.846551056,17.41849142
4.76392075,-5.54506897,-15.9385556,-4.448150024,17.45197362
4.77392375,-4.787194977,-15.07515106,-1.979483643,15.94038176
4.78392675,-3.836222534,-14.59509933,-0.8217910767,15.11320179
4.79392975,-4.079616394,-14.65108292,-0.6551875305,15.2225744
4.80393375,-4.068240051,-14.5835733,-0.3115022278,15.1435868
4.81393675,-2.427651672,-14.38014633,-0.2877017212,14.58646199
4.82393975,-1.520238647,-13.49189346,0.1345701599,13.57793887
4.83394375,-1.327738953,-11.99500626,0.5477110291,12.08068927
4.84394675,-0.7391629028,-10.29379395,1.175206146,10.386995
4.85394975,0.614172821,-8.64227829,1.002315674,8.72185869
4.86395375,2.144290924,-7.727829895,-0.98989151,8.080669753
4.87395675,2.036964111,-7.41019043,-1.698068848,7.870424563
4.88395975,1.290017395,-6.775061188,-1.072369995,6.97965446
4.89396275,0.2887495422,-5.883664856,-0.6586303711,5.927451594
4.90396675,-0.4397854614,-5.172793121,-0.4671784973,5.212432798
4.91396975,-0.2583627319,-4.641847229,-0.05254074097,4.649328718
4.92397275,0.1013392639,-4.464915161,0.5575904846,4.500738183
4.933977375,-0.5149291992,-4.044439545,1.225202179,4.257201392
4.943980375,-1.263522491,-3.640279999,1.203048248,4.036762644
4.953983375,-1.807491302,-3.241060181,1.09167984,3.868237425
4.963987375,-2.642155609,-2.739303589,0.9909393311,3.932776522
4.973990375,-2.9767099,-2.737207947,0.8289761353,4.12799111
4.983993375,-3.514242096,-2.968027954,0.9075627136,4.688577345
4.993997375,-3.662134552,-2.700234833,0.9767189026,4.653652054
