Time (s),Acceleration x (m/s^2),Acceleration y (m/s^2),Acceleration z (m/s^2),Absolute acceleration (m/s^2)
5.018960333,-1.104702759,-10.8941954,-1.498533783,11.05212492
5.028964333,-2.543660431,-10.90257797,-0.5176235962,11.20733461
5.038968333,-3.650159454,-10.49437683,0.2707868958,11.11435714
5.048972333,-3.812571716,-10.16027161,0.9659413147,10.89494676
5.058976333,-2.139051819,-10.1231488,1.409618683,10.44225594
5.068980333,0.4321513367,-11.16962265,0.3180885315,11.18250443
5.078984333,1.644480286,-12.91649002,-2.623444519,13.28241285
5.088988333,2.144290924,-14.23973831,-5.106181641,15.27878338
5.098992333,1.756746826,-14.60512848,-6.464606781,16.06820084
5.108996333,0.2767744446,-14.47639618,-6.058800659,15.69559543
5.118999333,-2.105371857,-14.32446213,-3.357368317,14.86252764
5.129003333,-3.727398834,-14.06026154,-0.8548722839,14.57104194
5.139007333,-3.581003265,-13.4303714,0.6427633667,13.91443873
5.149011333,-2.548749847,-12.84673508,1.552421722,13.18881121
5.159015333,0.2067201233,-12.21669525,1.165925446,12.27394632
5.169019333,4.173022156,-10.79525116,1.061442719,11.6223157
5.179023333,5.874084778,-8.999884644,2.884651337,11.12762369
5.189027333,5.048850861,-8.862021332,4.030368805,10.96677664
5.199031333,3.530707855,-10.05339386,3.41544754,11.18936584
5.209035333,2.873873749,-11.63485519,3.289409637,12.42776011
5.219038333,4.674629059,-13.20015015,2.690056,14.25947131
5.229042333,6.914421387,-14.18644913,1.520538025,15.85486039
5.239046333,6.68584671,-13.91087219,0.2927911377,15.4369245
5.249050333,5.150190125,-12.91858566,-0.8048762512,13.93061878
5.259054333,5.033432922,-12.14229996,-1.501527557,13.22971958
5.269058333,4.747377777,-12.14709,-2.379152527,13.25706445
5.279062333,4.003724213,-12.23151443,-2.63272522,13.13662799
5.289066333,3.711232452,-11.84112625,-2.50279541,12.65896923
5.299070333,3.362158356,-11.27814697,-2.680026855,12.06993173
5.309074333,2.995720367,-10.44647644,-2.582729187,11.17021489
5.319077333,2.169139252,-9.445208588,-2.013013916,9.897947029
5.329081333,0.7060816956,-8.593928833,-1.739832001,8.796657293
5.339085333,-0.7322772217,-8.120164032,-1.585802307,8.305905296
5.349089333,-1.438209229,-7.862250366,-1.467099152,8.126241845
5.359093333,-1.781295776,-7.448211365,-1.546284485,7.812801219
5.369097333,-1.729653168,-7.360942841,-1.213077393,7.658115718
5.379101333,-0.9370513916,-7.646698608,-0.2951861572,7.709552502
5.389105333,-0.5126838684,-7.77408371,0.6481521606,7.817884848
5.399109333,0.4206253052,-7.294181671,-0.3511697388,7.314733904
5.409113333,1.429078217,-6.425987091,-0.2749781799,6.588716692
5.419116333,1.685494995,-5.331014099,0.2389031982,5.596220103
5.429120333,2.101330261,-4.501738586,0.7057823181,5.017904727
5.439124333,2.507585449,-3.896996155,1.623673553,4.910283049
5.449128333,2.832409973,-3.16157547,2.160307617,4.762880925
5.459132333,2.953807526,-2.534978485,2.016905823,4.383948439
5.469136333,2.619103546,-2.395618286,1.65211441,3.915120992
5.479140333,2.046993256,-2.505040741,1.105900269,3.418833998
5.489144333,1.572779388,-2.738106079,0.3852987671,3.181087085
5.499148333,1.277293854,-3.094963989,-0.4077520752,3.372913198
5.509152333,1.202449493,-3.738026733,-1.147513733,4.090906551
5.519156333,1.357077942,-4.4697052,-2.23021225,5.176270066
5.529159333,1.468296661,-5.244643707,-3.642076263,6.551862499
5.539163333,1.714085541,-6.13244751,-5.459297333,8.387426844
5.549167333,2.081421661,-7.06620575,-7.671247559,10.63539463
5.559171333,2.435136108,-8.28182785,-10.30067963,13.43958932
5.569175333,3.190914459,-10.07135651,-13.1464119,16.86541736
5.579179333,4.882247314,-13.19161789,-15.54562271,20.96476823
5.589183333,6.305936737,-17.78840881,-17.65069519,25.84065338
5.599187333,6.520290985,-21.99705688,-16.9059938,28.499076
5.609191333,6.129603424,-22.50360352,-11.79322586,26.13550048
5.619195333,5.044509888,-19.1887468,-8.461903381,21.56986074
5.629198333,3.780688019,-13.61029724,-8.491541748,16.48150704
5.639202333,2.948119354,-7.170089722,-8.540639648,11.53447528
5.649206333,2.073188782,-2.021246796,-9.455387421,9.888776548
5.659210333,1.277593231,1.062640228,-7.941286011,8.113289852
5.669214333,0.9951306152,2.559377747,-4.115691376,4.947687833
5.679218333,2.386187897,1.887874146,-0.9297166443,3.181561646
5.689222333,5.247637482,-1.706152039,-0.05418731689,5.518295949
5.699226333,8.350085907,-6.239474945,-1.044228516,10.47594365
5.709230333,11.04747665,-11.63141235,-1.229393463,16.08875079
5.719234333,10.67220703,-17.01391937,-1.861229553,20.17011727
5.729237333,6.488556976,-20.72709778,-4.081562347,22.09916526
5.739241333,4.413272552,-21.20520355,-9.920170898,23.82325383
5.74924575,2.269430695,-16.63520691,-8.199349365,18.68447898
5.75924975,-1.412612457,-6.86367691,11.28263763,13.28169593
5.76925375,3.164868622,-0.2010319519,13.09012894,13.46878921
5.77925775,9.542506256,0.1667532349,3.157533875,10.05272363
5.78926175,9.065747681,-2.467618561,-5.682333527,10.98024757
5.79926575,4.215982819,-6.145021362,-6.568041687,9.933527585
5.80926975,0.3237767029,-9.271569672,-0.2719844055,9.281207413
5.81927375,-0.4484674072,-11.38936569,2.811004486,11.73969847
5.82927675,-0.4694238281,-13.14955536,2.862497406,13.46569925
5.83928075,1.064137115,-12.83191589,3.913312225,13.45750593
5.84928475,2.648143158,-12.03078186,4.478985901,13.10777209
5.85928875,2.787503357,-11.82495987,3.691772919,12.6975997
5.86929275,1.006357269,-11.93288544,2.248324585,12.18447673
5.87929675,-2.15881073,-12.78820679,-2.884950714,13.28614456
5.88930075,-3.95956604,-14.03646103,-5.732179871,15.67029953
5.89930475,-1.805245972,-13.66717896,-3.955225067,14.34205351
5.90930875,0.1642085266,-11.80759598,-3.589385834,12.34220312
5.91931275,1.54329071,-10.29783554,-2.653981018,10.74573303
5.92931675,2.25356369,-9.859546967,-1.62053009,10.24281863
5.93931975,2.054926758,-9.125024414,-0.7102729797,9.380473455
5.94932375,1.891915741,-8.052804108,-0.205821991,8.274621554
5.95932775,1.989363098,-7.157216492,-0.1766326904,7.430646846
5.96933175,2.151326294,-6.356980591,-0.06227050781,6.711429406
5.97933575,2.508932648,-5.804928589,-0.5634283447,6.348967668
5.98933975,1.231638794,-6.366710358,-0.6905140686,6.521406641
5.99934375,0.6357279968,-7.676336975,-0.9096583557,7.756144517
6.00934775,0.8132588196,-8.540190582,-1.119971008,8.651622978
6.01935175,0.4156855774,-8.722661133,-1.299896851,8.828779279
6.02935575,-0.007185058594,-8.807983704,-1.676214294,8.966065074
6.03935875,-0.02664459229,-9.079519043,-2.309846649,9.368765529
6.04936275,-0.04101470947,-9.030421143,-2.864892426,9.474059153
6.05936675,-0.1116677856,-8.67730545,-2.683469696,9.083452493
6.06937075,0.1715432739,-8.366401978,-2.326312408,8.685495873
6.07937475,0.3260220337,-8.262967072,-2.077829132,8.526446452
6.08937875,0.2740800476,-8.281079407,-1.703307953,8.458880186
6.09938275,0.309256897,-8.256380768,-1.14437027,8.341045889
6.10938675,0.3855981445,-8.134085083,-0.4439767456,8.155313692
6.11939075,0.2950364685,-8.202193451,-0.2258802795,8.210605692
6.12939475,0.2543211365,-8.801547089,-0.2671943665,8.809273706
6.13939775,0.3341052246,-9.555978241,-0.5071453857,9.575256805
6.14940175,0.3073109436,-10.37282959,-1.235530701,10.45067318
6.15940575,0.1466949463,-11.14941467,-2.238744507,11.37290394
6.16940975,-0.1504371643,-11.86223236,-3.197051697,12.28642859
6.17941375,-0.4426295471,-12.02329742,-3.701802063,12.58804752
6.18941775,-0.5858816528,-11.49848877,-3.624862061,12.07054789
6.19942175,-0.8289761353,-10.86231171,-3.034938812,11.30875195
6.20942575,-1.355131989,-10.6500531,-2.053729248,10.93059091
6.21942975,-2.050585785,-10.8742868,-0.7714956665,11.09280042
6.22943375,-2.895129547,-11.14941467,-0.01930984497,11.5191838
6.23943675,-3.716321869,-11.32934052,0.2092648315,11.92513298
6.24944075,-3.664080505,-11.48411865,0.6712042236,12.0731513
6.25944475,-2.327210541,-11.88977509,0.3736230469,12.12114907
6.26944875,-0.1154100037,-13.12500641,-1.12206665,13.17338781
6.27945275,2.316582642,-14.16249893,-2.691403198,14.60091032
6.28945675,3.05978714,-14.71529938,-5.167554016,15.89358196
6.29946075,1.757944336,-14.40364746,-5.800288239,15.6268606
6.30946475,-0.8015830994,-14.31069077,-3.191812592,14.6842117
6.31946875,-2.042053528,-14.15351761,-1.260528717,14.35552075
6.32947275,-1.431772614,-13.72136627,-0.2972817993,13.7990667
6.33947575,0.1222956848,-12.97965866,0.2176473999,12.98205937
6.34947975,2.643652496,-11.31107849,0.9204359436,11.65232155
6.35948375,4.526287537,-9.129814453,2.423310699,10.47440812
6.36948775,4.157454529,-8.759185181,3.650758209,10.36029868
6.37949175,2.863395538,-9.622290344,3.320844269,10.57428542
6.38949575,1.946252747,-11.61644348,2.750230865,12.09518205
6.39949975,4.320016479,-13.70879242,2.480641479,14.58585322
6.40950375,7.705077209,-14.45499069,1.191971283,16.42363438
6.41950775,7.526797943,-14.21279434,-0.3969744873,16.08769092
6.42951175,5.652844849,-13.15644104,-1.218316498,14.37118265
6.43951475,5.040019226,-12.01042419,-1.65450943,13.12971761
6.44951875,4.163442078,-11.27290787,-2.336790619,12.24227479
6.45952275,3.460354156,-10.81486038,-2.583028564,11.64505442
6.46952675,2.770139465,-10.32298325,-2.756517792,11.03793668
6.47953075,2.542313232,-10.0156723,-2.692900085,10.67842494
6.48953475,2.072739716,-9.606573029,-2.552342377,10.15366667
6.49953875,1.720522156,-9.015901337,-2.455344086,9.501336116
6.50954275,1.142424316,-8.510701904,-2.039658508,8.82594964
6.51954675,0.245489502,-8.223149872,-1.508562927,8.363983561
6.52955075,-0.8101153564,-7.999215546,-1.200952606,8.129331055
6.53955375,-1.229842529,-7.877817993,-0.9627978516,8.031158614
6.54955775,-0.6325845337,-8.086184692,-0.6065386963,8.133537684
6.55956175,0.2728825378,-8.221503296,-0.800684967,8.264906396
6.56956575,0.4638853455,-8.060887299,-0.5745053101,8.094637114
6.57956975,0.7951464844,-7.34462677,-0.001646575928,7.387543775
6.58957375,1.541195068,-6.472091217,0.6111790466,6.681076769
6.59957775,2.360291748,-5.629792786,0.05029541016,6.104758273
6.60958175,2.343077545,-4.941673737,0.9485774231,5.550671205
6.61958575,2.650538177,-4.316573639,1.597478027,5.311317789
6.62958975,3.10304718,-3.522175598,1.765428772,5.015113308
6.63959275,3.348237305,-2.941533051,1.905238037,4.846982743
6.64959675,3.160677338,-2.866239624,1.724863129,4.602212906
6.65960075,2.69709137,-3.055446167,1.344055023,4.291449294
6.66960475,2.189796295,-3.328478394,0.5406756592,4.02073456
6.67960875,1.769021301,-3.653302917,-0.3640429688,4.075363279
6.68961275,1.413660278,-4.054468689,-1.144220581,4.443691311
6.69961675,1.111438751,-4.496050415,-2.124382324,5.095367081
6.70962075,0.9891430664,-4.906796265,-3.475472717,6.09376437
6.71962475,1.219514008,-5.663023682,-5.14599884,7.748442147
6.72962875,1.141376495,-6.726412354,-7.261699219,9.96391685
6.73963175,1.53161499,-7.927065582,-9.314979401,12.32692397
6.7496355,2.763852539,-9.883946228,-11.3534404,15.30463599
6.7596395,4.97759903,-13.04222855,-14.17986282,19.89835991
6.7696435,6.432723083,-17.34278549,-17.35505997,25.36434981
6.7796475,6.457421722,-20.87933121,-17.18426514,27.80186568
6.7896515,5.706134033,-20.45795746,-12.98744247,24.89501257
6.7996555,4.481979675,-16.90704163,-9.980495453,20.13818482
6.8096595,3.575913849,-11.97225357,-8.756341095,15.25763824
6.8196635,2.875520325,-7.376061401,-8.289012909,11.4622264
6.8296675,2.271676025,-3.89984024,-8.415350189,9.549208589
6.8396705,1.400787048,-1.397942963,-7.22292984,7.489136423
6.8496745,1.761985931,-1.021775208,-4.064647522,4.546424801
6.8596785,3.886068878,-2.540367279,-1.167871399,4.787370974
6.8696825,6.592590637,-6.088439026,-1.093925171,9.040354714
6.8796865,9.43787384,-10.92997101,-2.323318634,14.62653542
6.8896905,10.03468277,-16.10351257,-2.48992218,19.13681499
6.8996945,6.828949127,-18.89086624,-3.016227722,20.31248393
6.9096985,5.266198883,-17.33575012,-6.659651184,19.30316132
6.9197025,4.69678299,-12.19783447,-4.794529724,13.92244417
6.9297055,1.839674377,-4.099075928,9.362879791,10.38510199
6.9397095,4.605622559,1.1572435,10.99583405,11.97745123
6.9497135,9.248517609,0.5352868652,2.868934021,9.69806127
6.9597175,7.838000793,-3.220852203,-5.295388184,9.992461227
6.9697215,2.523602142,-7.827223206,-6.10550354,10.24261511
6.9797255,-1.186732178,-11.7143399,-0.02814147949,11.7743316
6.9897295,-1.335373077,-13.80414413,3.337759094,14.26458034
6.9997335,-0.4463717651,-14.36981781,3.509452057,14.79889068
7.0097375,1.086590424,-13.37304062,3.466341705,13.85764839
7.0197415,2.332449646,-12.20082825,3.0457164,12.7897193
7.0297445,2.076931,-11.7290094,1.013692017,11.95453367
7.0397485,0.5783972168,-11.87600372,-1.940564575,12.047398
7.0497525,-1.46724884,-12.26549377,-3.221900024,12.76619742
7.0597565,-2.588716736,-12.18570969,-3.492387543,12.93791891
7.0697605,-1.238524475,-12.42341537,-4.264781342,13.19331468
7.0797645,0.9160949707,-11.5233371,-3.396137695,12.04824797
7.0897685,1.964814148,-10.37297928,-2.143093414,10.77274539
7.0997725,2.128274231,-9.956994324,-1.189576263,10.25116476
7.1097765,2.118843842,-9.409732361,-0.7482939148,9.674321997
7.1197805,1.912423096,-8.640482025,-0.6580316162,8.87402374
7.1297835,1.576671295,-7.5353302,-0.4399351501,7.711072334
7.1397875,1.496438141,-6.644233246,-0.2456391907,6.815093627
7.1497915,1.504820709,-6.100563812,-0.5819897461,6.310315068
7.1597955,0.7711962891,-6.719975739,-1.09632019,6.85235256
7.1697995,0.1285826111,-7.820038147,-1.056652679,7.892150847
7.1798035,0.2592608643,-8.321046295,-1.2063414,8.412032288
7.1898075,0.2791694641,-8.656947784,-1.616937561,8.811082091
7.1998115,0.1245410156,-8.87863678,-1.900747375,9.080668594
7.2098155,0.03263214111,-8.812174988,-2.091450806,9.057022653
7.2198185,0.05104385376,-8.745713196,-2.129920807,9.001481402
7.2298225,0.2793191528,-8.668174438,-2.141746216,8.933215778
7.2398265,0.4819976807,-8.546627197,-1.965412903,8.782938352
7.2498305,0.6283932495,-8.460705872,-1.719773712,8.656560723
7.2598345,0.6903643799,-8.4152005,-1.404229889,8.559442974
7.2698385,0.6249504089,-8.196654968,-1.038540344,8.285787937
7.2798425,0.528999939,-7.989036713,-0.7289840698,8.039649638
7.2898465,0.5159770203,-7.931256866,-0.5053491211,7.964072168
7.2998505,0.6978488159,-8.101153564,-0.02439926147,8.131191633
7.3098545,0.8755293274,-8.542136536,0.2457888794,8.590405134
7.3198575,0.8791218567,-9.522298279,-0.3339555359,9.568622997
7.3298615,0.7798782349,-10.65738785,-1.185834045,10.75148028
7.3398655,0.3972738647,-11.61330002,-2.070045319,11.80303569
7.3498695,0.01886077881,-12.17583023,-2.922073517,12.52156984
7.3598735,-0.1585203552,-11.9240538,-3.267555084,12.36467161
7.3698775,-0.2713856506,-11.18953125,-3.190465393,11.63865667
7.3798815,-1.043929138,-10.78552139,-2.875819702,11.21104807
7.3898855,-2.262095947,-10.9340126,-1.82410675,11.31357924
7.3998895,-3.373983765,-11.07651627,-0.6938072205,11.59975635
7.4098935,-3.985911255,-10.96140564,-0.1938468933,11.66522519
7.4198965,-3.932322693,-10.97742233,0.3436853027,11.6655511
7.4299005,-2.728376312,-11.12486572,1.248254242,11.52236145
7.4399045,-0.8104147339,-11.89681046,-0.1957928467,11.92598868
7.4499085,1.216669922,-13.43022171,-2.579585724,13.729727
7.4599125,2.370021515,-14.24318115,-5.250331879,15.3639577
7.4699165,2.321372681,-13.80144974,-7.120393066,15.70250883
7.4799205,0.5766009521,-13.59712463,-6.567293243,15.11104257
7.4899245,-1.778302002,-13.93108017,-3.713328094,14.52673942
7.4999285,-3.170556793,-13.8045932,-1.090182953,14.2059045
7.5099315,-2.848576355,-13.17904404,0.3603007507,13.48819505
7.5199355,-1.917063446,-12.59016861,1.488504639,12.82197816
7.5299395,0.3218307495,-11.99560501,2.49935257,12.25744173
7.5399435,4.233646088,-10.47581543,3.783831482,11.91569758
7.5499475,5.859415283,-9.541608124,3.959865417,11.87668166
7.5599515,4.81368988,-9.429341583,2.913241882,10.98048593
7.5699555,3.535348206,-10.21969803,2.651735687,11.13429912
7.5799595,3.959116974,-12.46308289,1.997895355,13.22855351
7.5899635,5.962850189,-14.18734726,1.419647827,15.45483111
7.5999675,7.320676575,-14.67982315,0.6128256226,16.41539121
7.6099705,5.886359253,-14.49046692,-0.4885839844,15.64805327
7.6199745,4.711602173,-13.67975281,-1.723665619,14.5707191
7.6299785,4.578379211,-12.89807831,-2.695594482,13.9494878
7.6399825,3.914210358,-12.34782257,-2.872975616,13.26814809
7.6499865,2.909050598,-11.6891922,-2.778222656,12.36197034
7.6599905,2.752326508,-11.02232895,-2.807112579,11.70243213
7.6699945,3.05739212,-10.29379395,-2.596350861,11.04766392
7.6799985,3.065774689,-9.385333099,-2.256856842,10.12802323
7.6900025,2.266287231,-8.547375641,-1.866169281,9.037492791
7.7000055,0.8375083923,-7.826923828,-1.433568878,8.001079718
7.7100095,-0.2574645996,-7.332052917,-1.050066376,7.41133776
7.7200135,-0.9286688232,-7.03806427,-1.065184937,7.178536996
7.7300175,-1.13853241,-7.068151703,-1.425785065,7.299855313
7.7400215,-1.104702759,-7.581284637,-0.6821315002,7.691654459
7.750025458,-1.587448883,-8.450676727,1.177601166,8.678748505
7.760029458,-0.9424401855,-8.098758545,-0.2227368164,8.156451138
7.770033458,0.1499880981,-6.761289825,-0.4971162415,6.781199089
7.780037458,1.171613617,-5.567073212,0.204175415,5.692685677
7.790041458,1.909279633,-4.697381744,0.4087998962,5.087028732
7.800044458,2.39636673,-4.087549896,1.387614441,4.937216979
7.810048458,3.085084534,-3.459456024,2.379302216,5.210245829
7.820052458,3.362457733,-2.994971924,2.390678558,5.098168573
7.830056458,3.004252625,-2.802921295,1.972148895,4.557551194
7.840060458,2.39756424,-2.865042114,1.361119537,3.976107015
7.850064458,1.963616638,-2.864143982,0.5457650757,3.515248294
7.860068458,1.76093811,-2.786605225,-0.2044747925,3.302708229
7.870072458,1.541793823,-3.068918152,-0.9358538818,3.559664212
7.880076458,1.352736969,-3.689677277,-2.063758392,4.438773977
7.890079458,1.345102844,-4.456382904,-3.612886963,5.892503921
7.900083458,1.531914368,-5.350473633,-5.012177124,7.489742936
7.910087458,1.562899933,-6.337670746,-6.441854095,9.170943837
7.920091458,2.287393341,-7.435787201,-8.245303802,11.33614284
7.930095458,2.904859314,-9.031169586,-10.16446289,13.90383176
7.940099458,3.876189423,-11.54429352,-12.5624762,17.49603856
7.950103458,5.151687012,-15.77734085,-15.72659637,22.86460577
7.960107458,5.775439911,-21.27795227,-18.48865265,28.77389852
7.970111458,5.807473297,-24.12458267,-15.60609695,29.31335016
7.980115458,5.629942474,-21.43722107,-10.11491592,24.36313247
7.990118458,4.967569885,-15.91655136,-8.751251678,18.83076641
8.000122458,3.477268982,-9.580078125,-9.38413559,13.85392714
8.010126458,1.990111542,-3.897894287,-9.369466095,10.34122907
8.020130458,0.8114625549,-0.3074606323,-8.426277466,8.470841484
8.030134458,0.01077758789,1.4929953,-5.898783417,6.084800483
8.040138458,0.5740562439,1.649569702,-2.432441711,2.994560644
8.050142458,2.899620209,-0.749790802,0.1492396545,2.998709068
8.060146458,6.508465576,-4.618196411,-0.01077758789,7.980474823
8.070150458,10.07180557,-9.445208588,0.1715432739,13.80878922
8.080153458,11.66359543,-14.45424225,-0.2233355713,18.57456476
8.090157458,10.90332642,-18.4733844,-2.85381546,21.64007211
8.100161458,10.41608963,-20.17010605,-7.485334167,23.90310291
8.110165458,8.090825043,-17.15777023,-8.71712265,20.87675158
8.120169458,0.550405426,-8.656648407,6.358028412,10.75476792
8.130173458,-0.07963439941,-1.272354126,11.27096191,11.34283074
8.140177458,5.886359253,-0.7027885437,3.754642181,7.017155756
8.150181458,6.308032379,-3.977678375,-3.722758484,8.33499421
8.160185458,1.937271423,-7.300917664,-5.584586792,9.393829301
8.170188458,-0.1414558411,-9.591604156,-0.5990542603,9.61133425
8.180192458,-0.02769241333,-11.27635071,2.585573273,11.56901211
8.190196458,0.6032455444,-12.47625549,2.686014404,12.77636606
8.200200458,1.949845276,-12.81634827,1.946103058,13.10908069
8.210204458,2.994073792,-12.22462875,1.850002899,12.72118457
8.220208458,3.117267609,-11.70356232,1.476828918,12.20130124
8.230212458,2.019300842,-11.72347092,0.2585124207,11.89891486
8.240216458,0.2799179077,-11.90354645,-1.689536591,12.02610934
8.250220458,-0.8898994446,-12.38359818,-2.985541534,12.76945116
8.260224458,-0.8069718933,-12.54137009,-3.270997925,12.98601535
8.270227458,-0.01062789917,-12.21055801,-2.687211914,12.50275761
8.280231458,0.383203125,-11.65476379,-1.776954803,11.7956743
8.290235458,1.24496109,-10.72923843,-1.733245697,10.93940703
8.300239458,1.91541687,-9.901609497,-1.462758179,10.19069938
8.310243458,1.933978271,-9.024732971,-0.8298742676,9.266864003
8.320247458,1.463656311,-8.065827026,-0.2671943665,8.20190516
8.330251458,1.255439301,-7.358248444,-0.1805245972,7.466762158
8.340255458,1.086291046,-6.7934729,-0.4626878357,6.895315969
8.350259458,0.7309300232,-6.820716248,-0.8205935669,6.908675896
8.360262458,1.050515442,-7.222630463,-1.716330872,7.49771733
8.370266458,0.3365002441,-7.86060379,-1.800605621,8.07121459
8.380270458,0.08232879639,-8.357121277,-1.730251923,8.534753997
8.390274458,-0.3041674805,-8.916807404,-1.773212585,9.096496853
8.400278458,-0.9253756714,-9.049581299,-1.778451691,9.26898766
8.410282458,-0.9077124023,-8.922196198,-1.890418854,9.165326521
8.420286458,-0.5586383057,-8.675509186,-2.057770844,8.933697848
8.430290458,-0.2957849121,-8.319848785,-1.853595428,8.52896175
8.440294458,-0.008831634521,-8.200397186,-1.666634216,8.368050049
8.450297458,0.06855743408,-8.338859253,-1.537003784,8.479602255
8.460301458,0.1371148682,-8.40472229,-1.562899933,8.549901371
8.470305458,0.1242416382,-8.461604004,-1.547631683,8.60286825
8.480309458,0.007783813477,-8.520281982,-1.381177826,8.631507275
8.490313458,-0.09280700684,-8.647367706,-1.16427887,8.725888303
8.500317458,-0.07828720093,-9.03311554,-0.9642947388,9.084776804
8.510321458,-0.1251397705,-9.591304779,-1.031055908,9.647375996
8.520325458,-0.2014810181,-10.06297394,-1.634451141,10.19683625
8.530329458,-0.2646496582,-10.67969147,-2.5015979,10.97195704
8.540333458,-0.4787045288,-11.20764359,-3.145558777,11.6505353
8.550336458,-0.77927948,-11.45193558,-3.123255157,11.89574831
8.560340458,-0.8192463684,-11.10854965,-2.716101837,11.46508828
8.570344458,-0.8840615845,-10.53389465,-2.097588043,10.77703007
8.580348458,-1.446891174,-10.5597908,-1.177301788,10.72327913
8.590352458,-2.305805054,-11.00137253,-0.5222639465,11.25254167
8.600356458,-2.84213974,-11.17770584,-0.1833686829,11.53483811
8.610360458,-2.913241882,-11.05600891,0.1068777466,11.43388535
8.620364458,-1.92245224,-10.95437027,1.120270386,11.17806139
8.630368458,-0.8367599487,-11.22111557,0.02514770508,11.25229907
8.640371458,1.257534943,-12.29213837,-1.857637024,12.49515406
8.650375458,2.619253235,-13.46494949,-3.808979187,14.23635047
8.660379458,2.409539337,-13.86237305,-6.327641602,15.42758291
8.670383458,0.9669891357,-13.7315451,-6.505920868,15.22555107
8.680387458,-1.687740326,-13.94425278,-3.755839691,14.5394974
8.690391458,-3.576662292,-13.79501312,-0.9419911194,14.28223538
8.700395458,-3.175795898,-13.31855392,0.1360670471,13.6926284
8.710399458,-1.938019867,-13.25044556,0.7578739929,13.4128521
8.720403458,0.1281335449,-13.15853668,0.9740245056,13.19515932
8.730406458,3.27623703,-12.31788483,0.8948391724,12.77750965
8.740410458,5.317392426,-10.2984343,2.350412292,11.82610879
8.750414958,5.351222076,-9.643396454,3.368744659,11.53165701
8.760418958,3.954476624,-10.02974304,2.975063324,11.18412413
8.770422958,2.93928772,-11.39146133,3.015179901,12.14479779
8.780426958,4.643643494,-13.05465271,2.304906921,14.04635106
8.790430958,6.851402435,-13.42363541,1.426832886,15.13841322
8.800434958,6.570436707,-13.08189606,0.7065307617,14.65625562
8.810438958,4.662055206,-12.31339417,-0.2601589966,13.16898315
8.820441958,4.437522125,-11.67302582,-1.349743195,12.56076992
8.830445958,4.54350174,-11.64039368,-2.124232635,12.67495709
8.840449958,3.988905029,-11.72092621,-2.350262604,12.60219064
8.850453958,3.744912415,-11.44879211,-2.394720154,12.28144513
8.860457958,3.362757111,-10.8876091,-2.170636139,11.59999261
8.870461958,3.035088501,-10.19200562,-2.187700653,10.857015
8.880465958,2.661465454,-9.453441467,-1.909878387,10.00492826
8.890469958,1.762434998,-8.695866852,-1.386865997,8.980405042
8.900473958,0.38963974,-8.16716629,-0.8411009216,8.219603099
8.910477958,-0.8036787415,-7.7131604,-1.037791901,7.824049777
8.920480958,-1.322499847,-7.330406342,-1.539698181,7.606216764
8.930484958,-1.337169342,-7.216493225,-1.900597687,7.581429145
8.940488958,-1.582808533,-7.817942505,-0.6710545349,8.004737475
8.950492958,-1.233435059,-8.413853302,0.110919342,8.50450425
8.960496958,-0.2432441711,-8.051905975,-1.128203888,8.134199504
8.970500958,0.4218228149,-6.926695862,-0.3839515686,6.950141643
8.980504958,1.03315155,-5.834417267,0.5911207581,5.954599123
8.990508958,2.07812851,-5.173840942,0.9523196411,5.656338117
9.000512958,2.775079193,-4.701573029,1.700912933,5.718300296
9.010515958,3.281176758,-4.195475464,2.223775635,5.771768651
9.020519958,3.467838593,-3.649261322,2.467468872,5.606372743
9.030523958,3.126099243,-3.49508194,2.172282715,5.167872525
9.040527958,2.628833313,-3.503464508,1.403631134,4.599479156
9.050531958,2.281854858,-3.312012634,0.6177653503,4.069142823
9.060535958,1.957629089,-3.270249481,-0.2600093079,3.820268074
9.070539958,1.703757019,-3.186274109,-1.022074585,3.754965664
9.080543958,1.426234131,-3.466042328,-2.238894196,4.365803527
9.090547958,1.316961365,-4.315974884,-3.60031311,5.772718677
9.100550958,1.529369659,-5.237009583,-5.10154129,7.469334941
9.110554958,1.762584686,-6.276148682,-6.892117767,9.486729382
9.120558958,2.267335052,-7.773484955,-8.813522186,11.96854419
9.130562958,3.31365921,-9.731263733,-10.51802765,14.70737015
9.140566958,4.824168091,-12.48059647,-12.48658401,18.30171211
9.150570958,6.018235016,-16.32071091,-16.01310059,23.64326855
9.160574958,6.079457703,-21.2616362,-19.02004761,29.16811943
9.170578958,6.019881592,-23.4885553,-15.9120607,29.00249782
9.180582958,5.87618042,-20.66228256,-10.80034058,24.04385106
9.190585958,4.610412598,-15.34638702,-9.087302856,18.42136184
9.200589958,2.85740799,-9.256750488,-9.018296356,13.23562916
9.210593958,1.575024719,-3.570075989,-9.040599976,9.846755473
9.220597958,0.6484515381,0.5436694336,-7.741900635,7.788009456
9.230601958,-0.04760101318,2.379751282,-4.512366486,5.101659859
9.240605958,0.4104464722,1.953138428,-0.8011340332,2.150588702
9.250609958,2.572250977,-0.8348139954,0.8354127502,2.830424695
9.260613958,5.960305481,-5.269342346,0.7390132141,7.989827953
9.270617958,8.782386932,-10.760224,1.00276474,13.92545431
9.280621958,9.543105011,-15.92493393,-0.296383667,18.56777362
9.290624958,7.676486664,-20.46065186,-4.80321167,22.3749316
9.300628958,6.234984283,-23.11328568,-11.70281387,26.64685453
9.310632958,3.562741241,-19.85950195,-10.89314758,22.92931764
9.320636958,-0.5623805237,-8.688532104,11.38876694,14.33565047
9.330640958,2.195783844,-0.6718029785,15.42317734,15.59317752
9.340644958,8.178093567,0.7366181946,5.533692627,9.901796546
9.350648958,8.397537231,-1.883982239,-4.858895874,9.88316193
9.360652958,4.301305389,-5.883066101,-7.257507935,10.28509194
9.370655958,1.738634491,-9.039402466,-0.0,9.205088095
9.380659958,1.439107361,-10.64780777,4.130510559,11.51121009
9.390663958,1.879341888,-11.51375702,4.354893951,12.4524547
9.400667958,2.278861084,-12.18346436,4.094734955,13.05361505
9.410671958,2.987337799,-12.54241791,3.642824707,13.39800754
9.420675958,3.004701691,-12.46847168,3.446283417,13.28035721
9.430679958,1.546434174,-12.3500679,2.7192453,12.74009148
9.440683958,-1.227746887,-13.15389633,-0.4546046448,13.21888863
9.450687958,-4.774471436,-14.76649292,-7.96358963,17.44315483
9.460690958,-2.794239349,-14.08825333,-6.267915802,15.67078249
9.470694958,-0.5704637146,-11.64263901,-2.474803619,11.91642249
9.480698958,0.808768158,-10.05204666,-2.319426727,10.3478253
9.490702958,1.661844177,-9.562115479,-1.742676086,9.860664199
9.500706958,1.697919159,-9.094787292,-0.4348457336,9.262136696
9.510710958,1.5527211,-8.076305237,0.2285746765,8.227386917
9.520714958,1.447938995,-7.028933258,0.1065783691,7.17731071
9.530718958,1.793869629,-6.194867706,-0.4448748779,6.464693945
9.540722958,1.777104492,-5.585185547,-1.179996185,5.978694587
9.550726958,1.095272369,-6.762337646,-1.322649536,6.976978845
9.560729958,1.156944122,-7.935747528,-1.507814484,8.160153984
9.570733958,0.3185375977,-8.462502136,-1.389710083,8.581765711
9.580737958,-0.2119592285,-8.968599701,-1.566492462,9.106843907
9.590741958,0.1140628052,-9.072932739,-2.216889954,9.340541734
9.600745958,0.02335144043,-9.018745422,-2.631976776,9.394978235
9.610749958,0.1285826111,-8.989705811,-2.912044373,9.450468056
9.620753958,0.2905458069,-8.895551605,-2.911295929,9.3643419
9.630757958,0.1480421448,-8.865015106,-2.541265411,9.223255347
9.640761958,0.07918533325,-8.777596893,-1.910327454,8.983419645
9.650764958,0.2201921082,-8.72655304,-1.191222839,8.81023407
9.660768958,0.2303709412,-8.439001007,-0.7159611511,8.472450008
9.670772958,0.2103126526,-8.156987457,-0.3347039795,8.166560019
9.680776958,0.1796264648,-7.977360992,-0.103434906,7.980053437
9.690780958,0.3694317627,-8.150999908,-0.06915618896,8.159660649
9.700784958,0.6150709534,-8.763675842,-0.2856060791,8.789874708
9.710788958,0.800684967,-9.537566528,-0.9669891357,9.619840939
9.720792958,0.7469467163,-10.35531601,-1.74581955,10.52798105
9.730796958,0.4819976807,-11.24671234,-2.335293732,11.49671506
9.740799958,0.06975494385,-11.93707672,-3.018622742,12.3130317
9.750803958,-0.5049000549,-11.87690186,-2.731669464,12.19744809
9.760807958,-0.749790802,-11.40508301,-1.958527222,11.59628965
9.770811958,-1.225351868,-11.01439545,-1.337618408,11.16277821
9.780815958,-2.050286407,-10.94673615,-0.6292913818,11.1548516
9.790819958,-2.817740479,-11.16273697,0.1755848694,11.51421678
9.800823958,-3.220852203,-11.42050095,0.3031196594,11.86986151
9.810827958,-2.949915619,-11.40538239,-0.02574645996,11.78072207
9.820831958,-1.754950562,-11.33742371,-0.3281176758,11.47713766
9.830834958,0.09894424438,-11.36077515,-0.7306306458,11.38467492
9.840838958,1.704056396,-12.15038315,-2.557731171,12.53306058
9.850842958,2.628084869,-12.83401154,-4.343068542,13.80148277
9.860846958,2.537223816,-12.95466064,-6.301296387,14.62761338
9.870850958,1.271605682,-12.94208679,-6.401288452,14.49451915
9.880854958,-1.258882141,-13.56194778,-4.057163086,14.21167774
9.890858958,-3.47861618,-13.92179947,-1.799108734,14.4621597
9.900862958,-3.450025635,-14.11878983,-0.5307962036,14.54388695
9.910866958,-2.219284973,-14.51621338,0.4932243347,14.69315987
9.920869958,-0.5373825073,-13.94739624,1.210233307,14.01011444
9.930873958,2.969225464,-12.52759872,1.028062134,12.91564715
9.940877958,5.772446136,-10.04052063,1.869013367,11.73142787
9.950881958,5.880371704,-9.044042816,2.869532776,11.16278192
9.960885958,4.478836212,-9.639953613,2.6210495,10.94799434
9.970889958,3.557352448,-10.89120163,3.088527374,11.86642451
9.980893958,4.789889374,-12.55304581,3.034340057,13.77422298
9.990897958,6.4179039,-13.72450974,1.709594879,15.2471103
10.00090196,6.230044556,-13.61853012,0.1646575928,14.97681308
10.01090596,4.542753296,-12.36144424,-1.086590424,13.2144841
