Time (s),Acceleration x (m/s^2),Acceleration y (m/s^2),Acceleration z (m/s^2),Absolute acceleration (m/s^2)
0.01701583333,-0.9801617432,-5.923781433,-1.030008087,6.092029232
0.02701983333,-1.328337708,-5.74280777,-2.15641571,6.276499889
0.03702383333,-1.243913269,-5.16710495,-2.04295166,5.693851532
0.04702783333,-1.10575058,-4.848267975,-1.198707275,5.115201446
0.05703183333,-1.199605408,-4.67328186,-0.8096662903,4.892256737
0.06703483333,-1.143771515,-4.076921997,-0.3137475586,4.245932616
0.07703883333,-1.124012604,-4.343218231,0.4161346436,4.505565112
0.08704283333,-1.112037506,-5.23266861,1.147364044,5.47118748
0.09704683333,-0.2803669739,-26.81329147,1.469045105,26.85496786
0.1070508333,-1.660496979,-47.29639664,0.7812254333,47.33198388
0.1170548333,-10.23436752,-39.09674789,1.113384705,40.42941503
0.1270588333,-12.42805573,-30.56658646,4.067491608,33.24631205
0.1370628333,-4.42180481,-17.54800873,3.676654358,18.46625992
0.1470658333,-0.302820282,-11.36017639,0.5019062805,11.37528978
0.1570698333,0.716559906,-8.200397186,-2.34951416,8.560384857
0.1670738333,0.2568658447,-7.63128067,-3.43071579,8.370916053
0.1770778333,-1.061891785,-9.721683655,-3.148402863,10.27381077
0.1870818333,-0.4071533203,-11.52213959,-2.076481934,11.71483042
0.1970858333,1.038540344,-12.07763443,-1.681603088,12.23828454
0.2070898333,1.946402435,-11.57093811,-2.016456757,11.90551087
0.2170938333,1.943708038,-11.29955246,-1.900298309,11.62191982
0.2270968333,1.39120697,-11.41406433,-0.7592211914,11.52357315
0.2371008333,0.789458313,-11.11678253,0.152233429,11.14581865
0.2471048333,0.7828720093,-10.6898703,1.165925446,10.78172518
0.2571088333,1.521436157,-10.01686981,1.885479126,10.30570135
0.2671128333,2.125579834,-9.17232605,2.834505615,9.832806155
0.2771168333,2.646346893,-8.553961945,2.976260834,9.435652886
0.2871208333,2.383044434,-8.794811096,1.580114136,9.247938347
0.2971248333,1.347497864,-9.109756165,1.816622314,9.386347772
0.3071288333,0.6840774536,-9.469907227,2.030677185,9.709312781
0.3171318333,0.8683442688,-10.25442581,0.6649172974,10.31258384
0.3271358333,1.387315063,-11.11393845,-0.7767347717,11.22709169
0.3371398333,1.62996048,-11.80774567,-1.153201904,11.97537071
0.3471438333,1.327140198,-12.16969299,-1.004111938,12.28295443
0.3571478333,1.144819336,-12.17029175,-0.8358618164,12.25256208
0.3671518333,1.58310791,-11.96417038,-0.4481680298,12.0767735
0.3771558333,1.629062347,-11.12726074,-0.3198847961,11.25042675
0.3871598333,1.807940369,-9.967322845,-0.7261399841,10.1559565
0.3971628333,1.659598846,-9.117689667,-1.265019379,9.353438257
0.4071668333,1.275946655,-8.657696228,-1.925895081,8.960625855
0.4171708333,1.159339142,-8.619675293,-2.133962402,8.955259066
0.4271748333,1.324445801,-8.739725647,-2.035167847,9.070770046
0.4371788333,1.410965881,-8.773854675,-2.284998322,9.175650817
0.4471828333,1.666783905,-8.800948334,-2.407294006,9.275231781
0.4571868333,1.287772064,-8.992400208,-1.788181458,9.258467006
0.4671908333,0.8650511169,-9.266031189,-2.492915955,9.634431866
0.4771938333,0.5372328186,-9.341474304,-3.183280334,9.883573998
0.4871978333,0.3363505554,-8.904981995,-2.366129608,9.220108749
0.4972018333,0.5845344543,-8.070617065,-1.999541931,8.335148966
0.5072058333,1.672921143,-7.053182831,-2.107766876,7.549088316
0.5172098333,2.423610077,-6.262676697,-1.461111603,6.872397859
0.5272138333,2.999911652,-5.6760466,-1.146465912,6.521607088
0.5372178333,3.400328979,-4.958738251,-0.748742981,6.059037734
0.5472218333,3.539090424,-4.559518433,-0.4867877197,5.792351133
0.5572248333,3.40496933,-4.119134216,-0.4337979126,5.361833964
0.5672288333,3.101101227,-3.77470047,-0.6959028625,4.934518543
0.5772328333,2.634820862,-3.7384758,-1.241218872,4.739103983
0.5872368333,2.203867035,-4.00986145,-2.035766602,5.008029993
0.5972408333,1.851350098,-4.45099411,-2.856809235,5.60358856
0.6072448333,1.523382111,-4.891977081,-3.49852478,6.204176695
0.6172488333,1.480720825,-5.323829041,-4.244423676,6.967842001
0.6272528333,1.560804291,-5.759872284,-4.937482452,7.745383898
0.6372568333,1.848955078,-6.377038879,-5.433401184,8.579458501
0.6472598333,2.042203217,-7.26274704,-5.779481506,9.50370954
0.6572638333,2.227068787,-8.305478668,-6.264173584,10.63864098
0.6672678333,2.439477081,-9.677375793,-7.128027191,12.26423346
0.6772718333,2.440973969,-11.3534404,-8.458310852,14.36669709
0.6872758333,2.056423645,-12.9778624,-10.32148636,16.708886
0.6972798333,1.700613556,-14.7256279,-12.20741455,19.20305115
0.7072838333,1.56679184,-16.46516052,-13.19161789,21.1559715
0.7172878333,2.701432343,-17.0122728,-11.86313049,20.91528215
0.7272908333,4.570745087,-14.91378662,-9.601932678,18.31692805
0.7372948333,5.216053162,-11.01185074,-8.828790436,15.04711294
0.7472987083,4.383484497,-6.824009399,-8.671018524,11.87301996
0.7573027083,2.579436035,-3.213816833,-7.523953857,8.57857742
0.7673067083,2.136656799,-0.703686676,-6.57941803,6.953360254
0.7773107083,2.585423584,0.2140548706,-4.358935547,5.07252932
0.7873147083,3.04227356,0.2595602417,-1.974992981,3.636398934
0.7973187083,4.291875,-2.557431793,-0.3993695068,5.012000039
0.8073227083,6.29276413,-6.772366791,-0.466280365,9.256416678
0.8173257083,8.641380157,-10.9061705,-0.7316784668,13.93389247
0.8273297083,9.582772522,-15.08997025,-1.456471252,17.93482756
0.8373337083,8.826694794,-18.92529465,-4.263583832,21.31326971
0.8473377083,7.315886536,-21.1236232,-9.543105011,24.30638818
0.8573417083,4.897665253,-19.17497543,-11.89037384,23.08782792
0.8673457083,-0.7454498291,-11.16692825,-2.512824554,11.47040842
0.8773497083,-2.480042725,-3.129392395,8.004155273,8.944842666
0.8873537083,3.688030701,-0.649050293,5.858217773,6.952808944
0.8973567083,8.098309479,-1.228495331,1.479074249,8.323429451
0.9073607083,7.430997162,-3.696562958,-2.03831131,8.5462863
0.9173647083,2.863994293,-6.544390869,-2.503094788,7.569478098
0.9273687083,-0.1299298096,-8.858279114,0.126486969,8.86013485
0.9373727083,0.03248245239,-10.73792038,1.456171875,10.83625515
0.9473767083,0.7628137207,-11.72481812,1.792821808,11.88559862
0.9573807083,1.826202393,-11.29850464,2.990181885,11.82930302
0.9673847083,2.867437134,-10.74794952,3.70449646,11.72450036
0.9773887083,2.903063049,-10.82893112,2.820734253,11.56071218
0.9873917083,1.318607941,-11.2857811,0.8904981995,11.39739308
0.9973957083,-0.9157955933,-12.15652039,-1.90957901,12.33961756
1.007399708,-2.367476807,-13.77121262,-3.504961395,14.40610974
1.017403708,-1.508413239,-14.0421492,-3.273542633,14.49735652
1.027407708,-0.05269042969,-12.90720932,-2.376757507,13.12432112
1.037411708,0.6333329773,-11.48591492,-1.43566452,11.59260474
1.047415708,1.26951004,-10.45171555,-0.2957849121,10.53268733
1.057419708,1.649120636,-9.795779572,0.1148112488,9.934287992
1.067423708,1.645228729,-9.321116638,0.4716691589,9.476943851
1.077426708,1.750908966,-8.362809448,-0.2650987244,8.548247856
1.087430708,1.422042847,-7.956853638,-0.9580078125,8.139502727
1.097434708,1.244811401,-7.714208221,-1.240769806,7.911894439
1.107438708,0.8219407654,-7.87931488,-1.693278809,8.101011216
1.117442708,0.3833528137,-8.188721466,-2.032323761,8.445854516
1.127446708,-0.03278182983,-8.620274048,-1.955533447,8.839361423
1.137450708,-0.5146298218,-8.839867401,-1.758842468,9.027825117
1.147454708,-0.8346643066,-8.864116974,-1.537602539,9.035123452
1.157458708,-0.7539820862,-8.881181488,-1.303788757,9.007981946
1.167461708,-0.2110610962,-8.913065186,-1.143921204,8.988650261
1.177465708,0.7095245361,-8.85872818,-1.21457428,8.969709065
1.187469708,1.031654663,-8.565188599,-1.243613892,8.716268845
1.197473708,1.117575989,-8.225993958,-0.8831634521,8.348408852
1.207477708,1.195414124,-8.069569244,-0.5854325867,8.178611987
1.217481708,1.131946106,-8.207881622,-0.7095245361,8.31589128
1.227485708,0.9380992126,-8.584797821,-0.8632548523,8.678939607
1.237489708,0.7159611511,-8.919052734,-1.079704742,9.012650242
1.247493708,0.5149291992,-9.094188538,-1.365310822,9.210509805
1.257496708,0.4879852295,-9.250164185,-1.565444641,9.394375123
1.267500708,0.7292834473,-9.421258392,-1.895807648,9.637740953
1.277504708,0.8890013123,-9.736353149,-2.198029175,10.02088959
1.287508708,0.9451345825,-10.11237122,-2.306852875,10.41512848
1.297512708,0.8981323242,-10.34304153,-2.061962128,10.58474552
1.307516708,0.3353027344,-10.53524185,-1.54104538,10.65263205
1.317520708,-0.4240681458,-10.51623138,-0.9877958679,10.57103103
1.327524708,-1.12910202,-10.3699855,-0.6345304871,10.45055499
1.337528708,-1.84401535,-10.31504974,-0.5322930908,10.4920913
1.347531708,-2.029629364,-10.25532394,-0.4465214539,10.46376825
1.357535708,-2.170935516,-10.39797729,-0.4302053833,10.63089693
1.367539708,-2.425406342,-10.7310347,-0.4215234375,11.00978581
1.377543708,-2.30161377,-11.03250778,-0.3082090759,11.27424706
1.387547708,-1.822011108,-11.17171829,-0.3520678711,11.3247943
1.397551708,-1.318607941,-11.25374771,-0.5936654663,11.34627706
1.407555708,-0.4351451111,-11.44190643,-1.052162018,11.49841811
1.417559708,0.6268963623,-11.85190384,-1.848056946,12.01149192
1.427563708,1.603315887,-12.48119522,-2.653981018,12.86057818
1.437566708,1.456920319,-12.75811935,-3.914060669,13.42430993
1.447570708,0.3345542908,-12.62040573,-4.52703598,13.41195818
1.457574708,-1.453178101,-12.93086014,-3.095413055,13.37536738
1.467578708,-3.525618439,-13.59697495,-0.9310638428,14.0774498
1.477582708,-4.516857147,-13.92479324,0.8021818542,14.66101501
1.487586708,-3.65764389,-13.96296387,1.774260406,14.54272047
1.497590708,-1.412612457,-13.65041382,1.525328064,13.80782014
1.507594708,1.41231308,-12.98609528,-0.1472937012,13.06349854
1.517598708,4.637655945,-12.26878693,-1.66858017,13.22176785
1.527602708,6.160888367,-11.16588043,-1.602268066,12.85304222
1.537605708,5.243296509,-9.839488678,0.1685494995,11.15061006
1.547609708,3.060535583,-9.29162796,3.056194611,10.24897818
1.557613708,1.755848694,-10.83267334,4.769531708,11.96571139
1.567617708,2.90066803,-12.15562225,2.802771606,12.80736335
1.577621708,4.431235199,-12.25217148,0.9000782776,13.05992696
1.587625708,4.691094818,-12.33345245,0.1863624573,13.19678563
1.597629708,3.804039459,-11.91806625,0.152233429,12.51136261
1.607633708,3.398233337,-11.49444717,-0.0940045166,11.98662348
1.617637708,3.530408478,-11.37439682,-0.650098114,11.92741861
1.627640708,3.779789886,-11.2790451,-0.8140072632,11.92335011
1.637644708,3.829486542,-11.16588043,-1.185534668,11.86369864
1.647648708,3.396886139,-10.760224,-1.770069122,11.42166365
1.657652708,2.65727417,-10.30921188,-2.059417419,10.8435306
1.667656708,1.863025818,-9.732461243,-2.048041077,10.11860362
1.677660708,0.5944139099,-9.164542236,-1.931283875,9.384669398
1.687664708,-0.2203417969,-8.522527313,-1.802850952,8.713913809
1.697668708,-0.5519023132,-7.98110321,-1.639540558,8.166437281
1.707672708,-1.333127747,-8.034242706,-1.625619507,8.304753111
1.717675708,-0.8726852417,-8.16132843,-1.591789856,8.360780838
1.727679708,-0.2820135498,-8.465196533,-1.629062347,8.625133513
1.737683708,0.6140231323,-8.50187027,-1.900298309,8.73326721
1.747687708,1.524878998,-8.105644226,-2.239642639,8.546503579
1.757691708,1.436113586,-7.799231415,-0.664019165,7.958099921
1.767695708,1.573378143,-7.091203766,0.3385958862,7.271542945
1.777699708,1.915117493,-6.493796082,0.6252497864,6.799117579
1.787703708,2.345322876,-5.870492249,1.002165985,6.40059023
1.797707708,2.860701141,-5.398224335,1.249002686,6.235739306
1.807711708,2.801424408,-5.314398651,1.705553284,6.24497588
1.817714708,2.843037872,-5.041366425,1.030906219,5.878861063
1.827718708,2.423310699,-4.710554352,0.6032455444,5.33157221
1.837722708,2.25940155,-4.423301697,0.3300636292,4.977894662
1.847726708,2.248474274,-4.298161926,-0.1419049072,4.852831082
1.857730708,2.152074738,-4.084256744,-0.8587641907,4.695748584
1.867734708,2.184856567,-4.027824097,-1.902244263,4.961400851
1.877738708,2.10028244,-3.989803162,-2.921175385,5.372427871
1.887742708,1.938319244,-4.100572815,-3.844455414,5.945722524
1.897746708,2.0172052,-4.387077026,-4.743336182,6.768663072
1.907749708,1.935774536,-5.067861328,-5.35316803,7.621472919
1.917753708,1.969155121,-6.060297546,-5.727389832,8.567833596
1.927757708,2.574795685,-7.415878601,-6.475384369,10.17621889
1.937761708,3.277584229,-9.031468964,-7.380402374,12.1152932
1.947765708,4.181554413,-11.06828339,-8.345744934,14.47907984
1.957769708,4.571792908,-13.73109604,-10.34648438,17.79027902
1.967773708,3.986809387,-16.75031754,-13.46914078,21.86059331
1.977777708,3.169958038,-19.09040131,-15.77689178,24.96802696
1.987781708,2.782264252,-18.99340302,-13.97359177,23.74345424
1.997785708,3.624263306,-16.40902725,-10.62789917,19.88325176
2.007788708,4.67911972,-11.93378357,-9.425898743,15.91090565
2.017792708,4.091292114,-7.451504517,-9.34776123,12.6350398
2.027796708,2.84213974,-4.121529236,-9.015901337,10.31267368
2.037800708,1.419647827,-1.682201843,-7.396868134,7.717438771
2.047804708,1.087787933,-0.3555107117,-4.639901276,4.778949079
2.057808708,2.300565948,-1.134790192,-1.498683472,2.970926558
2.067812708,4.112248535,-3.947141876,-0.1556762695,5.702170824
2.077816708,5.944588165,-8.070916443,-0.4586462402,10.03434986
2.087820708,6.788682861,-12.66606079,-0.539178772,14.38075188
2.097823708,6.064788208,-16.28792908,-1.805844727,17.47396248
2.107827708,5.450914764,-18.05859695,-6.080355835,19.81908481
2.117831708,6.737639008,-17.85561905,-10.78821579,21.92269397
2.127835708,5.254972229,-14.20516022,-6.178851013,16.35785774
2.137839708,1.27894043,-5.663323059,9.371711426,11.02442251
2.147843708,3.629053345,-0.9578581238,10.05099884,10.72893741
2.157847708,8.519832916,-1.964814148,2.575095062,9.11477713
2.167851708,7.319628754,-4.157753906,-3.37802536,9.070553344
2.177855708,2.779719543,-7.139253845,-4.730912018,9.004294238
2.187858708,-0.1975891113,-9.613159332,-0.7979905701,9.648246616
2.197862708,-0.2992277527,-10.94703552,1.989662476,11.13040344
2.207866708,0.379460907,-11.19611755,3.771257629,11.82029708
2.217870708,1.713786163,-10.24679169,4.736899567,11.41805677
2.227874708,2.592309265,-9.852810974,4.055965576,10.96580176
2.237878708,2.819836121,-10.13602203,2.488275604,10.81119484
2.247882708,1.33267868,-10.87458618,-0.2314187622,10.95838545
2.257886708,-1.116827545,-12.2120549,-3.500470734,12.75283827
2.267890708,-2.397414551,-13.81731674,-3.876638489,14.54971355
2.277893708,-0.628692627,-13.97748367,-3.613036652,14.45058262
2.287897708,0.6692582703,-13.19461166,-2.983894958,13.54434615
2.297901708,1.00515976,-11.6215329,-1.610650635,11.77559207
2.307905708,1.108295288,-10.58883041,-0.4486170959,10.65612055
2.317909708,1.17595459,-9.872569885,0.06451583862,9.942568462
2.327913708,1.247805176,-8.972042542,-0.1426533508,9.059520688
2.337917708,1.429527283,-7.984246674,-0.7366181946,8.144590202
2.347921708,1.263073425,-7.59969635,-0.5909710693,7.726576596
2.357925708,1.492845612,-7.70028717,-0.8997789001,7.895100544
2.367929708,1.248703308,-7.998766479,-1.544338531,8.241632523
2.377932708,0.6926097107,-8.451874237,-1.748513947,8.658590379
2.387936708,0.08367599487,-8.602910156,-1.741328888,8.777772561
2.397940708,-0.399818573,-8.393345947,-1.661844177,8.565619484
2.407944708,-0.6851252747,-8.369096375,-1.419947205,8.516303237
2.417948708,-0.5849835205,-8.16132843,-0.9318122864,8.235154012
2.427952708,-0.1580712891,-8.163873138,-0.8117619324,8.205654671
2.437956708,0.1035845947,-8.154442749,-0.7943980408,8.193700908
2.447960708,0.4902305603,-8.054151306,-0.8425978088,8.112931057
2.457964708,0.9322613525,-8.161178741,-0.872535553,8.26046415
2.467967708,0.8711883545,-8.107141113,-0.8919950867,8.202460693
2.477971708,0.7388635254,-8.110883331,-0.8478369141,8.188478195
2.487975708,0.7699987793,-8.283324738,-0.9012757874,8.36771563
2.497979708,0.7125183105,-8.596772919,-1.03554657,8.68818414
2.507983708,0.76640625,-8.989705811,-1.177451477,9.09882306
2.517987708,1.049766998,-9.349707184,-1.084045715,9.470701679
2.527991708,1.283730469,-9.730215912,-0.9785151672,9.863192056
2.537995708,1.111139374,-10.20323227,-1.202748871,10.33378848
2.547999708,0.6376739502,-10.81051941,-1.459165649,10.92717358
2.558002708,-0.109871521,-11.46525787,-1.724414063,11.59473215
2.568006708,-0.956660614,-11.76762909,-2.017953644,11.97766383
2.578010708,-1.594484253,-11.61973663,-2.142794037,11.92276083
2.588014708,-1.801054688,-11.42259659,-1.943708038,11.7259333
2.598018708,-1.571282501,-11.27440475,-1.573827209,11.4916519
2.608022708,-1.197060699,-11.18713623,-1.213526459,11.31625458
2.618026708,-1.156345367,-11.00481537,-0.8771759033,11.10011412
2.628030708,-1.632505188,-10.79944244,-0.4912783813,10.93317816
2.638034708,-2.330952759,-10.39812698,-0.0628692627,10.65637547
2.648038708,-1.781894531,-10.02016296,0.7869136047,10.20774446
2.658041708,0.3303630066,-10.09979736,1.253343658,10.18262819
2.668045708,1.788630524,-10.67759583,-0.8946894836,10.86327396
2.678049708,2.801125031,-11.72137527,-3.658542023,12.59451744
2.688053708,2.60338623,-12.91244843,-6.345753937,14.62113324
2.698057708,1.131946106,-13.28637085,-7.315736847,15.20950223
2.708061708,-1.291514282,-13.85399048,-4.631818085,14.66474685
2.718065708,-3.421584778,-14.29093185,-1.659898224,14.78828042
2.728069708,-4.419110413,-14.01789963,-0.04760101318,14.69803771
2.738073708,-3.87768631,-13.0215715,0.7351213074,13.60654912
2.748077083,-2.579136658,-12.49332001,1.609303436,12.85787106
2.758081083,-0.09669891357,-12.56202713,1.649420013,12.67021952
2.768085083,3.355871429,-12.10353058,1.254840546,12.62267604
2.778089083,5.396727448,-10.71846085,2.551144867,12.26859447
2.788093083,5.237758026,-10.12509476,4.08710083,12.11016293
2.798097083,4.50712738,-10.82024918,3.582649841,12.25672751
2.808101083,4.170926514,-11.86208267,2.85037262,12.89303135
2.818105083,5.122348022,-13.01109329,2.512076111,14.20695338
2.828109083,6.320157166,-13.85683456,1.45093277,15.29906718
2.838112083,5.631139984,-13.55341553,0.1161584473,14.67713537
2.848116083,4.631668396,-12.42102036,-0.5990542603,13.27000244
2.858120083,4.597988434,-11.46720383,-1.361718292,12.42950272
2.868124083,4.527634735,-11.28682892,-2.382146301,12.39219933
2.878128083,3.972588959,-11.54743698,-2.853216705,12.54055858
2.888132083,3.778143311,-11.40059235,-2.662363586,12.30187191
2.898136083,3.613635406,-10.85752167,-2.624791718,11.74025848
2.908140083,3.498824158,-10.11581406,-2.387235718,10.96678435
2.918144083,2.624791718,-9.218280487,-1.660946045,9.727536608
2.928148083,1.355880432,-8.408015442,-1.326541443,8.619329882
2.938151083,0.1737886047,-7.716154175,-1.563648376,7.87491168
2.948155083,-1.325343933,-7.578739929,-1.403631134,7.820742664
2.958159083,-1.682501221,-7.890990601,-0.6306385803,8.092975228
2.968163083,-1.565444641,-8.174351349,-0.4348457336,8.334250279
2.978167083,-0.9587562561,-8.379574585,-0.7421566772,8.466834138
2.988171083,0.1462458801,-8.094267883,-1.299896851,8.199286081
2.998175083,1.283431091,-7.006180573,-1.466350708,7.272134898
3.008179083,1.772015076,-5.890550537,-0.9053173828,6.217573693
3.018183083,1.978435822,-5.103337555,-0.02125579834,5.473455427
3.028186083,2.461181946,-4.413122864,0.726738739,5.105019018
3.038190083,2.787353668,-3.952830048,1.547631683,5.078323511
3.048194083,2.98254776,-3.667523346,1.849703522,5.076191658
3.058198083,2.994073792,-3.187022552,1.443747711,4.604997076
3.068202083,2.619103546,-3.109034729,1.273551636,4.260015739
3.078206083,2.213147736,-3.295097809,0.8574169922,4.060893543
3.088210083,1.873653717,-3.433859253,0.1820214844,3.916005547
3.098214083,1.506317596,-3.530707855,-0.5304968262,3.875089359
3.108218083,1.231788483,-3.838018799,-1.167122955,4.196411224
3.118221083,0.8692424011,-4.248465271,-1.939217377,4.750326678
3.128225083,0.6086343384,-4.996908875,-2.956352234,5.837769487
3.138229083,0.6483018494,-6.038442993,-4.490062866,7.552731533
3.148233083,1.01099762,-7.166946259,-6.541397095,9.755875707
3.158237083,1.184786224,-8.179590454,-8.936266937,12.17235742
3.168241083,1.606459351,-9.809251556,-10.63224014,14.55495305
3.178245083,3.181035004,-12.5371788,-12.06161774,17.68565686
3.188249083,4.580774231,-15.80937424,-14.31667831,21.81483633
3.198253083,4.905299377,-19.59185852,-16.77247147,26.25297471
3.208256083,4.031865692,-21.84197937,-14.74673401,26.66072332
3.218260083,4.407883759,-20.4374501,-10.00489471,23.17793615
3.228264083,5.433700562,-15.88661362,-8.131240997,18.65547304
3.238268083,4.788392487,-10.41204803,-8.007149048,13.98048221
3.248272083,3.029550018,-5.684129791,-8.674012299,10.80398048
3.258276083,1.437311096,-1.610201569,-8.118367767,8.400387341
3.268280083,0.9560618591,0.722996521,-5.940995636,6.060710139
3.278284083,2.30505661,0.2920426941,-2.52390152,3.430547156
3.288288083,4.920417938,-1.900298309,-0.07259902954,5.27512246
3.298291083,8.030051422,-6.159241791,-0.3963757324,10.12793656
3.308295083,10.64885559,-11.90534271,-2.97790741,16.24817661
3.318299083,10.54811508,-17.02858887,-4.020938416,20.43045561
3.328303083,6.383475494,-19.42271027,-4.893923035,21.02239083
3.338307083,4.505480804,-17.0347261,-7.939489746,19.32658139
3.348311083,3.043920135,-10.79495178,-3.74311615,11.82401591
3.358315083,-0.609382782,-2.85501297,9.413025513,9.855328292
3.368319083,3.353925476,0.2278262329,9.721533966,10.28634743
3.378323083,8.219108276,-0.7677534485,3.242557068,8.86889861
3.388326083,6.716981964,-2.590513,-4.496798859,8.488215613
3.398330083,2.385738831,-6.493047638,-6.918313293,9.783377547
3.408334083,-1.420246582,-10.64720901,-0.7563771057,10.76811341
3.418338083,-1.806892548,-13.6161351,2.820434875,14.02208432
3.428342083,-1.072220306,-14.76020599,3.095413055,15.11935578
3.438346083,0.8870553589,-13.57167755,3.595223694,14.0677977
3.448350083,2.690205688,-12.2665416,3.224295044,12.96538962
3.458354083,2.785557404,-11.57198593,1.043031006,11.9481422
3.468358083,1.200204163,-11.55896301,-1.0285112,11.66653124
3.478361083,-0.9225315857,-12.06685684,-2.84213974,12.43132563
3.488365083,-1.607806549,-11.89770859,-3.597319336,12.53320462
3.498369083,-0.1178050232,-11.82900146,-2.88659729,12.17668254
3.508373083,1.710493011,-11.88363785,-2.412982178,12.24618789
3.518377083,3.132535858,-11.02008362,-1.851948853,11.60537541
3.528381083,3.071163483,-10.33810181,-0.7108717346,10.80804019
3.538385083,2.527793427,-9.651479645,-0.0001496887207,9.977013529
3.548389083,2.245181122,-8.950487366,0.1682501221,9.229321235
3.558393083,1.659000092,-8.683891754,-0.4846920776,8.854218413
3.568396083,0.9342073059,-8.23153244,-0.5108876038,8.300112996
3.578400083,0.6788383484,-8.002808075,-0.7435038757,8.065888457
3.588404083,0.3586541748,-8.074958038,-1.171763306,8.167411425
3.598408083,0.4147874451,-8.043523407,-1.364412689,8.168961954
3.608412083,0.4619393921,-8.012238464,-1.563648376,8.176450908
3.618416083,-0.04101470947,-7.887098694,-1.486708374,8.026101781
3.628420083,-0.1239422607,-8.068371735,-1.385518799,8.187407799
3.638424083,0.1728904724,-8.397088165,-1.568887482,8.544143532
3.648428083,0.5195695496,-8.637787628,-1.765129395,8.831591556
3.658432083,0.4948709106,-8.661887512,-1.794019318,8.859554041
3.668435083,0.6189628601,-8.72655304,-1.712738342,8.914556388
3.678439083,0.5454656982,-8.596922607,-1.485361176,8.741333363
3.688443083,0.4343966675,-8.362959137,-1.006956024,8.434556682
3.698447083,0.5170248413,-8.168812866,-0.5164260864,8.201433669
3.708451083,0.5860313416,-8.146509247,-0.3058140564,8.173283788
3.718455083,0.5680686951,-8.155939636,-0.21061203,8.178411265
3.728459083,0.4495152283,-8.256380768,-0.2721340942,8.273085536
3.738463083,0.4263134766,-8.731343079,-0.4864883423,8.755270758
3.7484665,0.6387217712,-9.288783875,-0.8449928284,9.34898306
3.7584695,0.7632627869,-9.974358215,-1.411265259,10.10257697
3.7684735,0.4951702881,-10.80258591,-2.140698395,11.02377637
3.7784775,-0.08068222046,-11.6772171,-3.007845154,12.05865006
3.7884815,-0.6448590088,-12.17148926,-3.555107117,12.69644755
3.7984855,-0.920735321,-11.95129715,-3.46933548,12.47868366
3.8084895,-1.027762756,-11.29296616,-3.185974731,11.77870179
3.8184935,-1.20514389,-10.73777069,-2.548899536,11.10175572
3.8284975,-1.885928192,-10.76905563,-1.574875031,11.04579177
3.8385015,-2.840193787,-10.83177521,-0.7978408813,11.22633533
3.8485045,-3.469185791,-10.72579559,-0.05852828979,11.27303716
3.8585085,-3.410058746,-10.82219513,0.9255253601,11.38441941
3.8685125,-2.752625885,-10.95646591,1.832040253,11.4445387
3.8785165,-0.7885601807,-11.9545903,1.343007202,12.05560968
3.8885205,0.8292755127,-13.25418777,-1.430275726,13.35690384
3.8985245,1.422342224,-14.1948317,-3.692221985,14.73596985
3.9085285,1.050365753,-14.26533508,-4.955744476,15.13811271
3.9185325,-0.2999761963,-13.96191605,-5.156327362,14.88666508
3.9285365,-1.937121735,-13.97254395,-3.080144806,14.43854968
3.9385405,-1.490450592,-13.86132523,-0.7378157043,13.96073608
3.9485435,-0.4712200928,-13.42857513,0.3165916443,13.44056951
3.9585475,1.141226807,-12.93145889,0.6891668701,12.99999918
3.9685515,4.644691315,-11.76418625,0.1448986816,12.64872449
3.9785555,6.391259308,-10.47686325,0.3722758484,12.27808814
3.9885595,5.085674286,-9.835896149,2.040556641,11.25934312
3.9985635,2.951262817,-9.743987274,4.43228302,11.10407011
4.0085675,1.595831451,-11.34670441,5.079986115,12.53397933
4.0185715,3.634891205,-12.67369492,3.581302643,13.66238286
4.0285755,6.779402161,-13.2220047,1.435814209,14.9279357
4.0385795,6.868317261,-13.34624634,-0.2421963501,15.01181976
4.0485825,4.822222137,-12.57295441,-0.9650431824,13.50053026
4.0585865,4.480183411,-11.69742508,-1.483415222,12.61357672
4.0685905,4.457580414,-11.61180313,-1.766027527,12.5627564
4.0785945,3.806733856,-11.84412003,-1.815574493,12.57261757
4.0885985,3.343297577,-11.58875107,-2.064506836,12.23678792
4.0986025,2.964734802,-10.88820786,-2.420466614,11.54129028
4.1086065,2.832559662,-10.04411316,-2.377356262,10.70324372
4.1186105,2.281256104,-9.068741455,-2.049388275,9.573201831
4.1286145,0.9231303406,-8.228388977,-1.410367126,8.399267243
4.1386175,-0.2383044434,-7.920030212,-0.9211843872,7.976982402
4.1486215,-0.8427474976,-7.903714142,-1.516197052,8.09183379
4.1586255,-0.850531311,-7.864495697,-1.755998383,8.102914685
4.1686295,-0.5999523926,-7.96239212,-1.090781708,8.059121285
4.1786335,-0.3983216858,-8.261619873,-0.5210664368,8.287613247
4.1886375,0.5200186157,-8.301287384,0.3736230469,8.325946539
4.1986415,1.504521332,-7.721692657,-0.5182223511,7.883950554
4.2086455,1.986968079,-6.588399353,-0.6652166748,6.913578046
4.2186495,2.767594757,-5.454058228,0.01706451416,6.116095412
4.2286535,3.043471069,-4.865781555,0.02215393066,5.739254053
4.2386565,3.150348816,-4.454137573,0.6930587769,5.499488126
4.2486605,3.241658936,-4.136647797,1.310674438,5.416463342
4.2586645,3.24001236,-3.847149811,1.591490479,5.275517387
4.2686685,3.096311188,-3.702400818,1.615440674,5.089652577
4.2786725,2.773582306,-3.711831207,1.422641602,4.847097982
4.2886765,2.320175171,-3.774850159,0.8848100281,4.518362018
4.2986805,1.905537415,-3.793112183,-0.1172062683,4.24647032
4.3086845,1.491199036,-3.802841949,-1.105600891,4.231741342
4.3186885,1.199904785,-3.969595184,-1.749561768,4.50093588
4.3286925,1.152154083,-4.303700409,-2.474204865,5.096173658
4.3386955,1.258283386,-4.916076965,-3.513643341,6.172258852
4.3486995,1.200952606,-5.780080261,-4.997208252,7.734578547
4.3587035,1.372645569,-6.917714539,-6.898105316,9.865231231
4.3687075,1.90493866,-8.256680145,-8.808732147,12.22273784
4.3787115,2.978805542,-9.871522064,-10.9792186,15.06198763
4.3887155,4.66983902,-12.34153564,-13.60835129,18.95542464
4.3987195,6.087840271,-16.23763367,-16.79507446,24.14119037
4.4087235,6.189179535,-20.46080154,-18.39584564,28.2020829
4.4187275,5.615422668,-21.66804108,-13.97134644,26.38627479
4.4287305,5.155129852,-18.78069534,-9.259594574,21.56455362
4.4387345,4.61595108,-14.11025757,-7.900121613,16.81720234
4.4487385,3.908522186,-8.516689453,-7.803871765,12.19471031
4.4587425,3.159779205,-3.577410736,-8.878337402,10.08002714
4.4687465,1.583556976,-0.440533905,-8.794811096,8.947090311
4.4787505,1.016685791,0.5655239868,-5.620063019,5.739213858
4.4887545,2.583178253,-0.6512956238,-1.595831451,3.105426524
4.4987585,5.657634888,-3.343746643,0.6053411865,6.599690302
4.5087625,9.279203796,-6.974446564,-0.09056167603,11.60839047
4.5187665,11.16049164,-11.7355957,-0.8048762512,16.21507342
4.5287695,9.321116638,-16.23074799,-1.633553009,18.78799859
4.5387735,5.83172287,-18.28507599,-4.75171875,19.77199602
4.5487775,5.157824249,-17.06316696,-9.007518768,19.97223603
4.5587815,2.235301666,-11.9744989,-2.18919754,12.37650126
4.5687855,-0.5412744141,-4.59140213,11.54249725,12.43395329
4.5787895,3.898792419,-1.300046539,8.87983429,9.784792299
4.5887935,7.764503632,-3.051404572,0.3647914124,8.350548442
4.5987975,4.534520416,-5.933960266,-5.336851959,9.179093021
4.6088015,1.113684082,-8.931177521,-2.530787201,9.349390782
4.6188055,1.025667114,-10.64960403,2.661315765,11.02491092
4.6288085,1.397194519,-11.49085464,3.928580475,12.22397798
4.6388125,2.230661316,-11.80520096,3.629502411,12.55037479
4.6488165,3.054997101,-11.5564183,3.333268433,12.40945163
4.6588205,3.268303528,-11.25928619,2.932551727,12.08524692
4.6688245,2.170187073,-11.45852188,1.986369324,11.83017746
4.6788285,-0.476459198,-12.28585144,-0.6765930176,12.31368901
4.6888325,-3.246748352,-13.71313339,-4.060605927,14.66560339
4.6988365,-4.367168427,-15.29130157,-4.026776276,16.40460274
4.7088405,-1.896556091,-13.37663315,-2.997516632,13.83894307
4.7188435,0.2490820312,-10.93341385,-2.623594208,11.24654733
4.7288475,1.176703033,-10.08437943,-1.919308777,10.33262235
4.7388515,1.393901367,-9.624086609,-0.9970765686,9.775488006
4.748855333,1.087338867,-8.887318726,-0.1097218323,8.954260373
4.758859333,0.9845027161,-7.980205078,0.3261717224,8.047316738
4.768863333,1.141376495,-7.164102173,-0.3727249146,7.264022585
4.778867333,1.386117554,-6.347849579,-0.9674382019,6.569052658
4.788871333,1.693578186,-5.937253418,-1.396595764,6.330060422
4.798875333,1.273551636,-6.753356323,-1.622625732,7.061350414
4.808879333,0.9304650879,-7.936495972,-1.581311646,8.145813655
4.818882333,0.2981799316,-8.885971527,-1.557062073,9.026286255
4.828886333,-0.2005828857,-9.408235474,-1.485660553,9.526925816
4.838890333,-0.3478765869,-9.419911194,-1.561103668,9.554726039
4.848894333,-0.4053570557,-9.117689667,-1.913620605,9.325155389
4.858898333,0.009729766846,-8.584498444,-2.216740265,8.866095285
4.868902333,0.3402424622,-8.413853302,-2.236199799,8.712593291
4.878906333,0.5328918457,-8.389454041,-2.084116058,8.660857496
4.888910333,0.5755531311,-8.296048279,-1.725611572,8.493139216
4.898914333,0.5980064392,-8.142317963,-1.377285919,8.279605668
4.908918333,0.6080355835,-8.056246948,-1.12565918,8.157201159
4.918921333,0.4260140991,-8.149503021,-0.9846524048,8.219819211
4.928925333,0.3342549133,-8.483757935,-0.8500822449,8.532790567
4.938929333,0.4053570557,-9.196875,-0.6783892822,9.230765739
4.948933333,0.5770500183,-10.08273285,-0.8402027893,10.13412202
4.958937333,0.6135740662,-10.84973785,-1.150357819,10.92779062
4.968941333,0.2523751831,-11.55881332,-1.640738068,11.67740896
4.978945333,-0.2896476746,-11.94291458,-2.126178589,12.13415592
4.988949333,-0.4939727783,-11.85549637,-2.354902954,12.0972051
4.998953333,-0.2327659607,-11.14806747,-2.353705444,11.39620629
5.008957333,-0.1314266968,-10.622211,-2.087259521,10.82613928
