Time (s),Acceleration x (m/s^2),Acceleration y (m/s^2),Acceleration z (m/s^2),Absolute acceleration (m/s^2)
25.00269167,2.769840088,0.06990463257,-4.932243347,5.657201181
25.01269467,3.804488525,0.0470022583,-4.37959259,5.801480277
25.02269767,4.148622894,-0.3577560425,-3.721411285,5.584618453
25.03269967,4.486320648,-1.085542603,-3.519780579,5.804681819
25.04270267,5.381908264,-1.815275116,-4.361330566,7.161100797
25.05270467,6.046226807,-2.417622528,-6.043083344,8.88372746
25.06270767,6.271508331,-2.650388489,-7.73546402,10.30503661
25.07271067,6.033952332,-2.789149933,-9.074729004,11.24893971
25.08271267,5.544919281,-2.680775299,-10.124496,11.85065843
25.09271567,4.813839569,-2.335593109,-10.58164536,11.85745609
25.10271767,3.624862061,-1.982028351,-9.996811523,10.81685268
25.11272067,2.225571899,-1.657054138,-8.136031036,8.596161918
25.12272367,1.118324432,-1.421294403,-5.52860321,5.81688755
25.13272567,0.2377056885,-1.289119263,-2.789748688,3.082374119
25.14272867,-0.5514532471,-1.304088135,0.07723937988,1.417995934
25.15273167,-1.242266693,-1.373543701,2.786156158,3.34552163
25.16273367,-1.403331757,-1.390757904,4.848417664,5.235523031
25.17273667,-0.7445516968,-1.310973816,6.031108246,6.216693353
25.18273867,0.3149450684,-1.274449768,6.292913818,6.428388362
25.19274167,1.135538635,-1.279838562,5.929918671,6.171820653
25.20274467,1.751807098,-1.183439026,5.127437439,5.546167211
25.21274667,1.997595978,-0.987197113,4.154760132,4.714549775
25.22274967,2.027234344,-0.7795788574,3.358266449,3.999421936
25.23275267,2.036065979,-0.5285508728,2.381547546,3.177530395
25.24275467,2.048041077,-0.2811154175,1.152154083,2.366634142
25.25275767,2.205962677,0.02709365845,-0.1648072815,2.212276393
25.26275967,2.442470856,0.3477268982,-1.358874207,2.816578951
25.27276267,2.485581207,0.6472540283,-2.24069046,3.4084814
25.28276567,2.390379181,1.049168243,-2.717449036,3.768182041
25.29276767,2.314936066,1.395248566,-2.945275269,3.997535986
25.30277067,1.959125977,1.585951996,-2.823728027,3.785083658
25.31277267,1.407373352,1.787582703,-2.262245636,3.208411911
25.32277567,0.8216413879,1.982327728,-1.444196777,2.586585031
25.33277867,0.2927911377,2.033072205,-0.6532415771,2.155419634
25.34278067,-0.06496490479,2.044598236,-0.1345701599,2.050051588
25.35278367,-0.5824388123,1.809586945,0.2477348328,1.917084356
25.36278667,-1.535357208,1.561253357,0.5075944519,2.247773549
25.37278867,-2.674188995,1.534908142,0.7622149658,3.176192916
25.38279167,-4.145778809,1.688937836,0.726738739,4.535211366
25.39279367,-6.732399902,0.9596543884,0.7367678833,6.84024648
25.40279667,-10.85512665,-1.060394897,1.077010345,10.95984321
25.41279967,-15.98944977,-3.810176697,2.270628204,16.59324268
25.42280167,-22.24808487,-6.96082489,4.404440918,23.72402713
25.43280467,-29.67878265,-9.993518372,7.211703186,32.13579332
25.44280767,-37.10079849,-11.38307877,10.1059346,40.10204041
25.45280967,-43.47259827,-10.67579956,13.56763596,46.77520969
25.46281267,-47.57197357,-8.754245453,17.24264374,51.3521007
25.47281467,-47.65729614,-7.392377472,18.58475281,51.68421575
25.48281767,-44.21580276,-7.946525116,17.68272858,48.27901579
25.49282067,-40.17899734,-10.44153671,17.99632645,45.24649469
25.50282267,-37.29853729,-13.25239151,20.66467758,44.652387
25.51282567,-35.55451401,-14.50019669,23.54379044,45.04097288
25.52282767,-34.15073318,-14.45558945,24.67992783,44.54588063
25.53283067,-32.51927582,-14.06969193,23.33003494,42.42346121
25.54283367,-30.4890477,-13.48485809,19.6704451,38.7085241
25.55283567,-27.60020508,-12.42236755,14.70646774,33.65065719
25.56283867,-24.13895279,-10.88686066,9.702074432,28.20182663
25.57284167,-20.62381256,-9.102720795,5.349425812,23.16932297
25.58284367,-17.65608398,-7.23819809,1.865420837,19.17312202
25.59284667,-15.33411255,-5.245691528,-0.1618135071,16.20735854
25.60284867,-13.466147,-3.353177032,-0.8924441528,13.90601912
25.61285167,-11.85759201,-1.809736633,-0.9051676941,12.02900509
25.62285467,-10.05489075,-0.550405426,-0.6542893982,10.09117777
25.63285667,-8.051157532,0.2857557678,-0.5917195129,8.07792832
25.64285967,-5.76615921,0.7900570679,-0.4593946838,5.838135463
25.65286267,-3.140319672,1.14781311,-0.2875520325,3.355855889
25.66286467,-0.7295828247,1.277293854,-0.3646417236,1.515498028
25.67286767,1.493444366,1.394949188,-0.9241781616,2.242847429
25.68286967,3.313359833,1.373394012,-1.778302002,4.003363899
25.69287267,4.473746796,1.154100037,-2.309547272,5.165304046
25.70287567,4.850962372,0.9424401855,-2.474953308,5.526791412
25.71287767,4.663552094,0.6950047302,-2.338886261,5.263282117
25.72288042,4.37734726,0.429307251,-2.384990387,5.003364157
25.73288242,3.84954483,-0.183817749,-2.770289154,4.746291854
25.74288542,3.466192017,-0.8577163696,-3.571572876,5.050375954
25.75288842,3.423530731,-1.320553894,-4.468358002,5.781924289
25.76289042,3.493734741,-1.487456818,-5.201982422,6.440444965
25.77289342,3.161276093,-1.583556976,-5.562432861,6.591052918
25.78289642,2.301164703,-1.570683746,-5.371280365,6.050872597
25.79289842,1.275497589,-1.415456543,-4.556973724,4.939273312
25.80290142,0.3851490784,-1.05306015,-3.406915283,3.58669029
25.81290342,-0.597557373,-0.6155200195,-2.186652832,2.348912582
25.82290642,-1.451232147,-0.2634521484,-1.121168518,1.8527009
25.83290942,-2.024839325,-0.01526824951,-0.1523831177,2.030622571
25.84291142,-2.13545929,0.110919342,0.659229126,2.237648882
25.85291442,-1.95403656,0.08187973022,1.342408447,2.372134821
25.86291642,-1.655108185,-0.09729766846,1.922152863,2.538409259
25.87291942,-1.247805176,-0.3797602844,2.381697235,2.715458958
25.88292242,-0.6020480347,-0.5276527405,2.697241058,2.813536667
25.89292442,0.06122268677,-0.6111790466,2.827021179,2.892980607
25.90292742,0.5782475281,-0.7357200623,2.73795639,2.893451124
25.91293042,0.8045768738,-0.9701325989,2.46417572,2.767790307
25.92293242,0.9268725586,-1.129850464,1.994602203,2.472669157
25.93293542,1.173709259,-1.164877625,1.34674942,2.132666712
25.94293742,1.403631134,-1.26367218,0.6447093201,1.995669774
25.95294042,1.619033203,-1.396895142,-0.0004490661621,2.138360295
25.96294342,1.877395935,-1.408121796,-0.53004776,2.405903804
25.97294542,2.106719055,-1.297202454,-1.111438751,2.712249155
25.98294842,2.156565399,-1.159937897,-1.66498764,2.961150805
25.99295142,2.029479675,-1.005758514,-2.025288391,3.038442201
26.00295342,1.775757294,-0.9605525208,-1.981579285,2.828892287
26.01295642,1.681902466,-0.6491999817,-1.577419739,2.39551864
26.02295842,1.60885437,0.05343887329,-1.17939743,1.995556663
26.03296142,0.8903485107,0.6905140686,-1.198707275,1.645122877
26.04296442,-0.4475692749,0.9864486694,-1.467398529,1.823912738
26.05296642,-2.171234894,1.543440399,-1.204245758,2.92347004
26.06296942,-4.836891632,1.84985321,-0.3927832031,5.193433951
26.07297142,-8.494086456,0.996328125,0.556842041,8.570428666
26.08297442,-12.23645416,-0.3787124634,1.382375336,12.32011344
26.09297742,-16.14063538,-2.472857666,2.227218475,16.4801589
26.10297942,-19.96203873,-5.101092224,3.494932251,20.89781528
26.11298242,-23.81682266,-6.74557251,5.326373749,25.32023001
26.12298542,-27.40740601,-7.218139801,7.403454437,29.2929784
26.13298742,-31.06145737,-6.967411194,9.830657043,33.31667406
26.14299042,-34.86205399,-5.895639954,12.45320343,37.48604613
26.15299242,-37.50121582,-4.511917419,14.92591141,40.61380822
26.16299542,-39.1882077,-4.437073059,17.00703369,42.94930075
26.17299842,-40.45846619,-6.134992218,18.40587479,44.86983221
26.18300042,-40.38586716,-8.381520538,19.6439502,45.6853689
26.19300342,-38.60112854,-10.00983444,20.75269455,44.95462425
26.20300542,-35.4682933,-10.61876816,20.61707657,42.37713904
26.21300842,-32.00030502,-10.81381256,18.46215775,38.49427662
26.22301142,-28.92779434,-11.37349869,14.98997818,34.50903076
26.23301342,-26.18684418,-12.04664886,10.69585785,30.74530748
26.24301642,-23.79975815,-11.91986252,6.349945221,27.36482075
26.25301942,-21.98912338,-11.00825821,2.64904129,24.73298841
26.26302142,-20.5383403,-9.545949097,0.2761756897,22.65005164
26.27302442,-19.43588287,-7.795638885,-0.4379891968,20.945581
26.28302642,-18.45841553,-6.033952332,0.3525169373,19.42282041
26.29302942,-17.18516327,-4.612807617,1.848056946,17.88919074
26.30303242,-15.64471664,-3.462749176,3.283422089,16.35630311
26.31303442,-13.64756973,-2.286644897,4.551734619,14.56719577
26.32303742,-11.27724884,-1.225351868,5.315446472,12.52724231
26.33303942,-8.846154327,-0.5737568665,5.466332703,10.41462609
26.34304242,-6.476282501,-0.1017883301,5.075495453,8.22880611
26.35304542,-4.117637329,0.06646179199,4.063450012,5.785410992
26.36304742,-1.863025818,-0.1001417542,2.524200897,3.138866633
26.37305042,0.3457809448,-0.4354444885,0.7926017761,0.9681910658
26.38305342,2.366728363,-0.8041278076,-1.222956848,2.782741118
26.39305542,4.098926239,-1.078956299,-3.167263641,5.291209879
26.40305842,5.517226868,-1.163231049,-4.682412872,7.329248876
26.41306042,6.209237823,-1.267264709,-5.674250336,8.506333585
26.42306342,6.026168518,-1.531465302,-6.057453461,8.680601097
26.43306642,5.433401184,-1.72351593,-6.112389221,8.357850057
26.44306842,4.750820618,-1.697320404,-6.024222565,7.857636452
26.45307142,3.813619537,-1.569635925,-5.74280777,7.070169163
26.46307342,2.873574371,-1.311422882,-5.258714447,6.134438628
26.47307642,1.847009125,-1.044378204,-4.683161316,5.141416969
26.48307942,0.7253915405,-0.7902067566,-4.056863708,4.196279633
26.49308142,-0.2766247559,-0.4885839844,-3.322041779,3.369153773
26.50308442,-1.082099762,-0.1901046753,-2.616558838,2.837861842
26.51308742,-1.798210602,0.1107696533,-1.991608429,2.685579159
26.52308942,-2.347717896,0.3438349915,-1.388961639,2.74940289
26.53309242,-2.764451294,0.5827381897,-0.7367678833,2.91969205
26.54309442,-2.829416199,0.9270222473,-0.1178050232,2.979738964
26.55309742,-2.713108063,1.151705017,0.4149371338,2.976500064
26.56310042,-2.460882568,1.248104553,0.8919950867,2.899890209
26.57310242,-2.207758942,1.309626617,1.46021347,2.953226168
26.58310542,-1.88383255,1.420995026,2.136656799,3.183292983
26.59310742,-1.374142456,1.566193085,2.571203156,3.309428037
26.60311042,-0.8258326721,1.396446075,2.546803894,3.019647549
26.61311342,-0.08038284302,1.06129303,2.155068512,2.403564975
26.62311542,0.7592211914,0.8170010376,1.435065765,1.81750413
26.63311842,1.430575104,0.6550378418,0.7768844604,1.754756156
26.64312142,2.063908081,0.6477030945,0.4547543335,2.210438275
26.65312342,2.529889069,0.6791377258,0.3029699707,2.636921985
26.66312642,2.847528534,0.699944458,0.1218466187,2.934823265
26.67312842,2.951412506,0.6732998657,-0.07888595581,3.028265425
26.68313142,2.793341217,0.6851252747,-0.1498384094,2.880035303
26.69313442,2.277064819,0.7779322815,-0.05792953491,2.406981233
26.70313642,1.40991806,0.6779402161,0.07469467163,1.566221941
26.71313942,0.4667294312,0.6456074524,0.1829196167,0.8173768596
26.72314279,-0.3519181824,0.8036787415,0.212258606,0.9026625296
26.73314479,-1.109792175,0.8143066406,0.2489323425,1.398821393
26.74314779,-2.111658783,0.7194039917,0.2094145203,2.240647085
26.75314979,-3.415148163,0.2526745605,0.1203497314,3.426596776
26.76315279,-5.386249237,-0.8083190918,0.1115180969,5.447705653
26.77315579,-8.749455414,-2.456541595,0.4613406372,9.099472613
26.78315779,-12.76111313,-4.450545044,1.307830353,13.57806244
26.79316079,-17.08681778,-6.76892395,2.626438293,18.56544778
26.80316279,-22.03612564,-9.526190186,4.4604245,24.4179139
26.81316579,-28.31781281,-11.9120787,7.078031158,31.526095
26.82316879,-34.82493118,-12.71785309,10.36893768,38.49720104
26.83317079,-40.73853378,-11.98707275,14.50378922,44.8740231
26.84317379,-45.56584534,-11.54070099,18.46575027,50.50166308
26.85317579,-47.82898911,-11.77556259,21.34052216,53.68141167
26.86317879,-47.07365982,-12.44092896,22.25122833,53.53338514
26.87318179,-43.02443024,-13.0534552,22.20766891,50.14653376
26.88318379,-37.30706955,-13.47123642,22.07220062,45.39244088
26.89318679,-31.90270798,-14.2041124,21.16134476,40.83310051
26.90318979,-27.29813324,-14.92665985,19.10971115,36.51265963
26.91319179,-23.26267502,-15.07649826,16.00875961,32.01145472
26.92319479,-20.14480865,-14.67862564,12.0183577,27.67157907
26.93319679,-18.09212723,-13.55895401,7.837551727,23.92900998
26.94319979,-16.66379745,-11.67841461,4.473597107,20.83460066
26.95320279,-15.83437225,-9.200766907,2.659220123,18.50548319
26.96320479,-15.59142746,-6.597380676,2.387684784,17.09734133
26.97320779,-15.94678848,-4.334386597,2.919229431,16.78120587
26.98320979,-16.42998367,-2.5613237,3.309767303,16.9546248
26.99321279,-15.71851318,-0.9818083191,3.301833801,16.09154159
27.00321579,-13.84935013,0.4017645264,2.93225235,14.16206262
27.01321779,-11.62407761,1.067879333,2.241438904,11.88627758
27.02322079,-8.886570282,1.391805725,1.246607666,9.080874695
27.03322379,-5.841302948,1.384620667,-0.356408844,6.013736092
27.04322579,-2.957400055,0.8816665649,-2.256856842,3.8232125
27.05322879,-0.5192701721,0.1128652954,-3.908821564,3.944777066
27.06323079,1.507215729,-0.559536438,-5.209017792,5.451481141
27.07323379,3.330723724,-0.9506730652,-6.224655762,7.123471005
27.08323679,4.731361084,-1.163979492,-6.905140686,8.451129739
27.09323879,5.451064453,-1.549877014,-7.238946533,9.193398139
27.10324179,5.84220108,-1.901046753,-7.33414856,9.567393967
27.11324379,5.97796875,-1.971699829,-7.329508209,9.661542381
27.12324679,5.819149017,-1.876348114,-7.223678284,9.463863137
27.13324979,5.4292099,-1.782493286,-6.96786026,9.011363884
27.14325179,4.820874939,-1.681902466,-6.399342499,8.186648612
27.15325479,4.008364563,-1.424437866,-5.114264832,6.652196214
27.16325779,3.209775238,-1.125808868,-3.555406494,4.920469289
27.17325979,2.394420776,-0.9791139221,-2.127076721,3.349084995
27.18326279,1.549727325,-0.9439370728,-0.7378157043,1.958837409
27.19326479,0.7270381165,-0.9412426758,0.6376739502,1.349500005
27.20326779,0.04071533203,-0.9424401855,1.878892822,2.102400885
27.21327079,-0.4227209473,-0.8116122437,2.986739044,3.123782571
27.22327279,-0.5480104065,-0.5028044128,3.774401093,3.846976903
27.23327579,-0.6117778015,-0.2565664673,4.131857758,4.184775616
27.24327779,-0.5743556213,-0.232616272,4.094884644,4.141506363
27.25328079,-0.1284329224,-0.2591111755,3.748205566,3.7593455
27.26328379,0.8141569519,-0.3559597778,2.879262543,3.013255996
27.27328579,1.906734924,-0.6135740662,1.590292969,2.557565822
27.28328879,2.711311798,-0.8083190918,0.4468208313,2.864304501
27.29329179,3.39089859,-0.7997868347,-0.264200592,3.49394536
27.30329379,3.861220551,-0.7096742249,-0.7641609192,3.999575422
27.31329679,3.9362146,-0.6509962463,-1.242566071,4.178702182
27.32329879,3.738775177,-0.5056484985,-1.710343323,4.142389951
27.33330179,3.490441589,-0.09610015869,-1.924398193,3.986944461
27.34330479,3.148253174,0.3218307495,-1.961520996,3.72325633
27.35330679,2.518363037,0.5700146484,-1.875150604,3.191121883
27.36330979,1.421593781,0.7393125916,-1.614991608,2.275018654
27.37331179,0.260458374,0.6798861694,-1.222358093,1.422758966
27.38331479,-1.053808594,0.5204676819,-0.6001020813,1.319667257
27.39331779,-2.503394165,0.5189707947,0.2131567383,2.565491927
27.40331979,-3.554957428,0.8776249695,1.017434235,3.800410547
27.41332279,-4.882696381,1.063538361,1.697470093,5.277617124
27.42332479,-7.159461823,0.392334137,2.096989288,7.470554447
27.43332779,-10.16685791,-0.5785469055,2.591560822,10.50789721
27.44333079,-13.85174515,-1.548529816,3.824247437,14.45315387
27.45333279,-18.81227966,-3.416944427,5.702840881,19.95243768
27.46333579,-24.41243408,-5.870492249,7.895032196,26.3203562
27.47333879,-30.15868469,-7.54940094,9.697583771,32.56659098
27.48334079,-35.18059158,-8.183033295,11.07531876,37.77960751
27.49334379,-38.52673325,-7.985743561,12.22462875,41.20100512
27.50334579,-40.69602219,-7.482190704,13.14820816,43.41687204
27.51334879,-41.89652573,-7.416627045,13.58709549,44.66468838
27.52335179,-42.09770737,-8.24680069,13.91790756,45.09916671
27.53335379,-41.15197403,-9.466913452,15.52676193,44.99097413
27.54335679,-38.96502182,-10.07345215,18.01488785,44.09403075
27.55335879,-36.08246613,-10.59451859,19.9424295,42.56628572
27.56336179,-32.83152649,-11.25629242,20.91675339,40.52312701
27.57336479,-29.48628296,-11.98437836,20.33521271,37.77018776
27.58336679,-26.10451538,-12.49840942,17.73227554,33.94244478
27.59336979,-22.46318756,-11.98318085,14.10816193,29.10724397
27.60337279,-19.30370773,-10.70439011,10.18332367,24.30878814
27.61337479,-16.91527451,-9.010063477,6.589447174,20.26643949
27.62337779,-15.39922714,-7.172035675,3.896696777,17.42867
27.63337979,-14.42340637,-5.444627838,2.148931274,15.56587708
27.64338279,-13.4794693,-3.714675293,1.27894043,14.04032029
27.65338579,-12.40006393,-2.145638123,0.9496252441,12.62010842
27.66338779,-11.06139771,-0.7650590515,0.950223999,11.12846621
27.67339079,-9.507030029,0.4981640625,1.408870239,9.623757206
27.68339279,-7.811056824,1.505419464,2.113754425,8.230847723
27.69339579,-6.004463654,1.953886871,2.528092804,6.801655012
27.70339879,-3.870950317,2.157912598,2.481988678,5.079479396
27.71340079,-1.534459076,2.25356369,1.95643158,3.355702384
27.72340342,0.5331912231,2.158511353,1.09167984,2.476939445
27.73340642,2.242636414,1.880838776,0.1689985657,2.93181396
27.74340842,3.661685486,1.570683746,-0.8306227112,4.070002717
27.75341142,4.454886017,1.29061615,-1.773362274,4.965532522
27.76341342,4.71549408,0.8011340332,-2.509082336,5.401221559
27.77341642,4.664300537,0.3447331238,-3.259621582,5.700848471
27.78341942,4.396208038,-0.04161346436,-4.142785034,6.04078179
27.79342142,4.153412933,-0.4444258118,-4.974156189,6.49542786
27.80342442,3.971541138,-0.7328759766,-5.62111084,6.921497907
27.81342642,3.8273909,-0.8122109985,-6.041736145,7.197998573
27.82342942,3.452420654,-0.8491841125,-5.9627005,6.942198448
27.83343242,2.546654205,-0.9151968384,-5.166356506,5.832175619
27.84343442,1.525926819,-0.785716095,-3.811523895,4.180133591
27.85343742,0.6697073364,-0.5240602112,-2.363435211,2.511766912
27.86343942,-0.2662962341,-0.4049079895,-1.042881317,1.149985046
27.87344242,-1.023421783,-0.2273771667,0.316741333,1.095179252
27.88344542,-1.449286194,0.07649093628,1.457668762,2.056958812
27.89344742,-1.578168182,0.229921875,2.26179657,2.767526441
27.90345042,-1.30693222,0.2875520325,2.664608917,2.981761004
27.91345342,-0.6857240295,0.3844006348,2.682870941,2.795671257
27.92345542,0.0817300415,0.3573069763,2.247576141,2.277267351
27.93345842,0.7366181946,0.3236270142,1.563947754,1.758770419
27.94346042,1.185684357,0.417481842,1.081051941,1.657954095
27.95346342,1.468745728,0.5578898621,0.8114625549,1.76831179
27.96346642,1.628014526,0.7688012695,0.4569996643,1.857507842
27.97346842,1.665137329,1.050665131,0.05478607178,1.969665214
27.98347142,1.69193161,1.290765839,-0.3254232788,2.152814282
27.99347342,1.772164764,1.598076782,-0.730480957,2.495600085
28.00347642,1.727707214,1.8991008,-1.063089294,2.778797386
28.01347942,1.460812225,2.217039642,-1.310375061,2.960797179
28.02348142,0.8454418945,2.537672882,-1.338067474,2.990815979
28.03348442,0.1311273193,2.858306122,-1.255888367,3.124798209
28.04348742,-0.6671626282,3.20139267,-1.56439682,3.625101158
28.05348942,-1.479223938,3.179837494,-2.00672699,4.040596881
28.06349242,-1.884131927,3.103196869,-2.567910004,4.446790496
28.07349442,-2.485880585,3.194806366,-3.144510956,5.12585009
28.08349742,-3.424428864,3.285667419,-3.264411621,5.760096064
28.09350042,-4.917573853,3.036735077,-2.610571289,6.341874721
28.10350242,-7.174281006,1.689386902,-1.542242889,7.530129427
28.11350542,-10.43075912,-0.8720864868,-0.3085084534,10.47169749
28.12350742,-14.53522385,-3.436254272,1.439556427,15.00509575
28.13351042,-19.90859985,-6.315067749,3.329376526,21.14987416
28.14351342,-25.39843369,-9.465266876,5.76615921,27.71137497
28.15351542,-30.46345093,-10.46174469,8.671018524,33.35650621
28.16351842,-35.41350723,-8.25608139,12.59331207,38.48208523
28.17352042,-39.42232086,-5.411396942,17.08771591,43.3058037
28.18352342,-40.99270523,-3.97363678,20.15902908,45.85387797
28.19352642,-40.59333572,-4.899461517,20.4467308,45.71534129
28.20352842,-39.34627899,-8.233179016,19.08591064,44.49929092
28.21353142,-37.43355652,-11.65790726,18.73953094,43.455126
28.22353442,-35.8015004,-13.70040985,20.12205597,43.29371545
28.23353642,-35.4696405,-14.64778976,21.74962143,44.11008019
28.24353942,-35.57547043,-14.69838455,21.80740128,44.24047191
28.25354142,-34.61970795,-14.27716049,19.41806992,42.18320672
28.26354442,-32.16226822,-13.8855748,15.23022858,38.19922181
28.27354742,-28.63260818,-13.50820953,10.3952829,33.322063
28.28354942,-24.5555365,-13.10854065,5.936804352,28.46144509
28.29355242,-20.78547638,-12.30396378,2.754721527,24.31073926
28.30355442,-17.7740387,-10.81980011,1.265468445,20.84672484
28.31355742,-15.42257858,-9.188941498,1.368454285,18.0045895
28.32356042,-13.1224617,-7.616311798,1.966460724,15.29948281
28.33356242,-10.77189972,-5.951174469,2.286944275,12.51720477
28.34356542,-8.346194,-4.218078461,2.483335876,9.67564454
28.35356742,-6.045178986,-2.631378021,2.483784943,7.045390472
28.36357042,-3.776197357,-1.442250824,2.056723022,4.535401141
28.37357342,-1.296903076,-0.5101391602,1.194366302,1.835404701
28.38357542,1.109642487,0.02574645996,-0.1603166199,1.121459204
28.39357842,3.354823608,0.03787124634,-1.995500336,3.903626169
28.40358142,5.201683044,-0.008831634521,-3.771257629,6.424948918
28.41358342,6.489904175,0.135617981,-5.066963196,8.234765599
28.42358642,6.980434113,0.3799099731,-5.965694275,9.190228516
28.43358842,6.01419342,0.1266366577,-6.206842804,8.643578942
28.44359142,4.033661957,-0.4090992737,-5.799090729,7.075821103
28.45359442,2.273921356,-0.4601431274,-5.415288849,5.891332901
28.46359642,0.5677693176,-0.689765625,-5.272785187,5.34793439
28.47359942,-0.9946815491,-1.172362061,-5.02085907,5.25098562
28.48360142,-2.096091156,-1.616937561,-4.629872131,5.333273025
28.49360442,-2.362986145,-1.758992157,-4.084855499,5.036248741
28.50360742,-1.833686829,-1.682800598,-3.398682404,4.212513183
28.51360942,-1.059197388,-1.831591187,-2.641706543,3.384558884
28.52361242,-0.2752775574,-1.86976181,-1.592388611,2.471333334
28.53361542,0.4987628174,-1.717977448,-0.2673440552,1.808779617
28.54361742,1.073417816,-1.686991882,1.366208954,2.421713097
28.55362042,1.283730469,-1.75165741,3.175197144,3.846835647
28.56362242,1.126407623,-1.928439789,4.496499481,5.020575837
28.57362542,1.013392639,-1.879940643,5.176984406,5.600206157
28.58362842,0.8027806091,-1.456321564,5.245242462,5.502535569
28.59363042,0.3845503235,-1.057550812,4.640500031,4.774990388
28.60363342,-0.113613739,-0.7725434875,3.481460266,3.567954191
28.61363542,-0.4055067444,-0.2986289978,1.863624573,1.930469255
28.62363842,-0.4149371338,0.3516188049,0.2183958435,0.5860932976
28.63364142,-0.3948788452,0.9478289795,-1.027762756,1.452792263
28.64364342,-0.1829196167,1.462159424,-1.902393951,2.406340066
28.65364642,0.2266287231,1.918111267,-2.435285797,3.108235565
28.66364842,0.6174659729,2.282902679,-2.621199188,3.530381574
28.67365142,0.9303153992,2.582130432,-2.535128174,3.73627611
28.68365442,1.330732727,3.051254883,-2.33903595,4.068426615
28.69365642,1.893562317,3.810326385,-2.498753815,4.934362779
28.70365942,2.125579834,4.712949371,-3.004701691,5.979817193
28.71366242,2.312990112,5.677842865,-3.490291901,7.054782804
28.72366442,2.771187286,6.441105652,-3.561543732,7.864598829
28.73366783,3.179687805,7.192842407,-2.767445068,8.337034763
28.74366983,2.762205963,7.932304688,-1.653461609,8.560676067
28.75367283,1.558708649,8.11806839,-0.4679269409,8.279587107
28.76367583,-0.03891906738,7.947423248,1.083147583,8.020988696
28.77367783,-2.3237677,7.749235382,3.019221497,8.635174797
28.78368083,-5.387895813,7.327861633,5.270390167,10.5120878
28.79368283,-8.953032074,6.419550476,6.716383209,12.90260497
28.80368583,-12.88340881,4.567302246,6.842570801,15.28604748
28.81368883,-16.07836487,1.897753601,6.12077179,17.30835442
28.82369083,-18.75584702,-1.468596039,4.705165558,19.3927088
28.83369383,-21.57957504,-4.369264069,2.859503632,22.20237124
28.84369583,-25.26161819,-6.168821869,1.241967316,26.03355911
28.85369883,-29.50214996,-6.661148071,0.6563850403,30.25191874
28.86370183,-33.92859512,-5.780828705,1.452429657,34.44817992
28.87370383,-38.10655701,-5.059029694,3.631747742,38.61208438
28.88370683,-40.74287476,-6.021827545,6.933581543,41.76504284
28.89370983,-41.55538513,-7.704628143,10.96933914,43.66391794
28.90371183,-40.56773895,-8.689579926,15.47437088,44.27986447
28.91371483,-39.26200424,-9.368717651,20.61363373,45.32328036
28.92371683,-39.00169556,-10.5518573,24.94682281,47.48492305
28.93371983,-39.36499008,-11.83543808,26.23115204,48.76221258
28.94372283,-38.77521652,-12.83610718,24.03327255,47.39072961
28.95372483,-36.49201447,-13.2419133,19.205961,43.3114803
28.96372783,-32.63962555,-12.5704097,13.60730347,37.53024199
28.97372983,-28.12995346,-11.67661835,9.000184021,31.75910909
28.98373283,-23.76742538,-11.09941864,5.610183563,26.82464843
28.99373583,-19.83330643,-10.48195267,3.497926025,22.70389531
29.00373783,-16.36337219,-9.723330231,2.286195831,19.17106652
29.01374083,-13.32199677,-8.769962769,1.689686279,16.03879311
29.02374283,-10.72878937,-7.782615967,1.75510025,13.36998166
29.03374583,-8.734486542,-6.878346405,2.625240784,11.42343178
29.04374883,-7.083270264,-6.005810852,3.812571716,10.03883383
29.05375083,-5.84579361,-5.010380859,4.83719101,9.092614373
29.06375383,-4.990172882,-3.82499588,5.651347961,8.454002168
29.07375683,-4.056414642,-2.666105804,5.92887085,7.662514565
29.08375883,-2.919528809,-1.630259857,5.389991455,6.342980652
29.09376183,-1.669478302,-0.6459068298,4.354145508,4.707752812
29.10376383,-0.3644920349,0.3478765869,3.216960297,3.256179681
29.11376683,0.9467811584,1.100810852,2.20910614,2.643544785
29.12376983,2.314037933,1.33267868,1.030008087,2.862118216
29.13377183,3.720513153,1.338965607,-0.2983296204,3.965355921
29.14377483,4.921316071,1.119521942,-1.408421173,5.239878953
29.15377683,5.600603485,0.6030958557,-2.270777893,6.07345999
29.16377983,5.777385864,0.0513432312,-3.057691498,6.53684181
29.17378283,5.464835815,-0.4638853455,-3.908671875,6.734785515
29.18378483,4.742887115,-1.098266144,-4.872816925,6.88807023
29.19378783,3.722608795,-1.481618958,-5.809269562,7.056955705
29.20378983,2.522254944,-1.47667923,-6.187233582,6.842821855
29.21379283,1.237476654,-1.219514008,-5.803431702,6.057918983
29.22379583,0.007484436035,-0.8590635681,-4.833149414,4.908908177
29.23379783,-1.194366302,-0.6155200195,-3.566483459,3.811191418
29.24380083,-2.434537354,-0.3917353821,-2.20446579,3.307581919
29.25380283,-3.365451508,0.001796264648,-0.9364526367,3.493309408
29.26380583,-3.766317902,0.4278103638,0.1706451416,3.794376366
29.27380883,-3.653302917,0.5110372925,1.070424042,3.841040087
29.28381083,-3.205284576,0.473764801,1.927391968,3.770032109
29.29381383,-2.63856308,0.6577322388,2.736459503,3.857828072
29.30381683,-1.86392395,0.7252418518,3.408711548,3.952151648
29.31381883,-0.9735754395,0.6825805664,3.850592651,4.029991208
29.32382183,-0.2151026917,0.7458988953,4.073628845,4.146936978
29.33382383,0.232616272,0.8907975769,4.076023865,4.178708078
29.34382683,0.4125421143,1.006806335,3.841162262,3.992289759
29.35382983,0.5767506409,1.195713501,3.384162598,3.635234321
29.36383183,0.6511459351,1.489402771,2.663411407,3.120267932
29.37383483,0.5897735596,1.72935379,1.624272308,2.444740869
29.38383683,0.6134243774,2.110910339,0.4788542175,2.249785165
29.39383983,0.7987390137,2.499202881,-0.7265890503,2.722486125
29.40384283,1.024918671,2.698139191,-2.138153687,3.591951358
29.41384483,1.342408447,2.829565887,-3.847748566,4.961216844
29.42384783,1.628313904,2.947670288,-5.430108032,6.389541418
29.43384983,1.792821808,3.298840027,-6.317163391,7.348680757
29.44385283,1.380878448,3.6389328,-6.790479126,7.826829753
29.45385583,0.4457730103,3.646866302,-6.742429047,7.678456671
29.46385783,-0.7295828247,3.444187775,-6.064937897,7.012716465
29.47386083,-1.647923126,3.315006409,-5.391188965,6.53986518
29.48386283,-2.391576691,3.063978424,-5.000052338,6.33309768
29.49386583,-2.829565887,2.586321716,-4.253105621,5.725767246
29.50386883,-3.26216629,2.071841583,-3.101999359,4.955467332
29.51387083,-4.431684265,1.012793884,-1.590442657,4.816127565
29.52387383,-6.494544525,0.06915618896,0.3219804382,6.502888787
29.53387683,-9.371412048,-0.5140310669,2.25595871,9.652820387
29.54387883,-13.35612579,-1.484463043,4.01569931,14.02553271
29.55388183,-18.07072174,-2.711012421,5.416186981,19.05874219
29.56388383,-22.55195297,-4.130061493,5.971681824,23.69196013
29.57388683,-26.2236676,-5.27592865,5.947132874,27.40227281
29.58388983,-28.06947922,-5.52276535,5.720803528,29.17403287
29.59389183,-27.58014679,-5.299429779,6.219865723,28.76517308
29.60389483,-26.36976379,-6.003864899,7.933352509,28.18419625
29.61389683,-26.07562546,-7.69804184,10.3301683,29.08454002
29.62389983,-27.60948578,-9.793983307,13.504617,32.25802992
29.63390283,-31.49405777,-12.03617065,17.23770401,37.86665444
29.64390483,-36.36912003,-13.23936859,20.624561,43.85620012
29.65390783,-40.37149704,-12.95016998,22.93036606,48.20131081
29.66390983,-42.33661057,-12.32417175,23.12136887,49.78826671
29.67391283,-42.34065216,-13.04402481,20.79400864,48.94147734
29.68391583,-39.15557556,-13.10195435,16.96467178,44.6387768
29.69391783,-34.0257431,-12.94792465,13.04387512,38.67224618
29.70392083,-28.84426804,-13.69352417,9.607171783,33.34369734
29.71392283,-24.0910524,-14.21279434,7.625592499,28.99192973
29.72392583,-20.4772673,-13.93751678,6.993007965,25.73858991
29.73392892,-18.30857712,-13.20000046,6.71743103,23.54926512
29.74393092,-17.19624023,-12.2704335,6.53376297,22.1125366
29.75393392,-16.42669052,-11.33847153,6.395600281,20.95950383
29.76393692,-15.92059296,-10.23885818,6.070775757,19.87847618
29.77393892,-15.41135193,-9.072333984,5.664221191,18.75900887
29.78394192,-14.78385681,-7.761509857,5.294340363,17.51666342
29.79394392,-14.07882294,-6.496490479,4.6873526,16.19842333
29.80394692,-13.0640831,-5.307662659,3.906276855,14.63217513
29.81394992,-11.66494263,-4.0344104,3.065475311,12.71788082
29.82395192,-10.2412532,-2.756966858,2.074236603,10.80678449
29.83395492,-8.848399658,-1.496288452,1.185384979,9.051971785
29.84395692,-7.43234436,-0.3150947571,0.5589376831,7.459989191
29.85395992,-5.85866684,0.7605683899,0.04445755005,5.907996097
29.86396292,-4.296814728,1.712289276,-0.4782554626,4.650083833
29.87396492,-2.830763397,2.358794861,-0.9165440369,3.796997179
29.88396792,-1.437011719,2.624342651,-1.331930237,3.275090104
29.89396992,0.02305206299,2.647394714,-1.876198425,3.2448961
29.90397292,1.446292419,2.321522369,-2.407593384,3.64386248
29.91397592,2.777623901,1.531914368,-2.949915619,4.331738488
29.92397792,4.117337952,0.2965333557,-3.881428528,5.666206072
29.93398092,5.575904846,-0.7780819702,-4.972509613,7.511456467
29.94398292,6.801556091,-1.52817215,-5.789510651,9.061727703
29.95398592,6.992109833,-2.226919098,-5.858367462,9.389847597
29.96398892,6.13589035,-2.804567871,-5.189707947,8.511628511
29.97399092,4.769382019,-3.028651886,-4.301455078,7.100862826
29.98399392,3.270698547,-2.99542099,-3.47277832,5.632957053
29.99399692,1.78668457,-2.862796783,-2.478845215,4.187185305
