Time (s),Acceleration x (m/s^2),Acceleration y (m/s^2),Acceleration z (m/s^2),Absolute acceleration (m/s^2)
5.000164208,4.461622009,-38.8843396,-37.34119858,54.09494476
5.010166208,9.637857971,-30.62062408,-11.97479828,34.26232215
5.020169208,10.21535706,-24.94592468,-6.611152039,27.75536001
5.030172208,10.70992859,-24.37950256,-16.08614868,31.10991635
5.040174208,11.05301514,-26.06350067,-9.168583832,29.75799288
5.050177208,12.44706619,-26.67138657,-11.94426178,31.76409463
5.060180208,13.23143509,-28.33008728,-15.54696991,34.91952166
5.070182208,11.13025452,-27.48105286,-12.09080704,32.0199695
5.080185208,8.56264389,-25.90677658,-11.22051682,29.5022023
5.090188208,5.709576874,-23.56699219,-9.336384888,25.98404263
5.100190208,3.333867188,-20.25258453,-6.996301117,21.68478914
5.110193208,1.661694489,-16.9100354,-4.584067383,17.59898291
5.120196208,0.1815724182,-13.61388977,-3.155138855,13.97590299
5.130198208,-1.075812836,-10.04426285,-1.9481987,10.2878602
5.140201208,-1.088386688,-6.819818115,-1.186582489,7.00731637
5.150203208,0.7943980408,-3.912863159,-0.6956034851,4.052829944
5.160206208,1.234183502,-1.5726297,-0.2959346008,2.020878615
5.170209208,0.135617981,-0.6851252747,-0.2595602417,0.7450908655
5.180211208,-0.4564009094,-1.326092377,-1.158141632,1.818822372
5.190214208,-0.6944059753,-1.255439301,-2.096689911,2.540558222
5.200217208,-0.2555186462,0.01676513672,-0.8249345398,0.8637637659
5.210219208,0.5511538696,0.6950047302,0.6725514221,1.113161075
5.220222208,0.7556286621,0.9166937256,0.82373703,1.445629536
5.230225208,0.4595443726,1.102307739,0.6583309937,1.363694643
5.240227208,0.1330732727,1.16068634,0.4384382629,1.247849906
5.250229417,-0.04834945679,0.9553134155,0.1989363098,0.9770041183
5.260232417,0.3170407104,0.1354682922,0.2188449097,0.4083620511
5.270234417,0.9547146606,-0.9312135315,0.5219645691,1.432161212
5.280237417,1.221010895,-1.523831177,0.772842865,2.100051227
5.290240417,1.207239532,-1.94700119,0.7357200623,2.406143166
5.300242417,1.394500122,-1.983076172,-1.198557587,2.704396787
5.310245417,1.1174263,-1.057850189,-4.478536835,4.735502163
5.320248417,0.5321434021,-0.7520361328,-2.837200012,2.983025118
5.330250417,0.08352630615,-0.413739624,-2.62568985,2.659399238
5.340253417,-0.6125262451,0.2921923828,-2.681972809,2.766503739
5.350256417,-0.7776329041,0.7226971436,-2.556982727,2.768603395
5.360258417,-0.4323010254,0.8397537231,-1.880389709,2.104266131
5.370261417,-0.02694396973,0.7659571838,-0.975970459,1.240941063
5.380264417,0.1429527283,0.4902305603,-0.4390370178,0.6734352143
5.390266417,0.01002914429,0.09445358276,-0.1770817566,0.2009477831
5.400269417,-0.1710942078,-0.309256897,0.1841171265,0.3985124496
5.410272417,-0.6489006042,-0.7705975342,0.8249345398,1.302078933
5.420274417,-0.38963974,-1.035845947,0.4014651489,1.177272364
5.430277417,0.01062789917,-1.096469879,-0.3249742126,1.143664018
5.440279417,-0.2270777893,-1.116977234,-0.4809498596,1.23713994
5.450282417,-0.77927948,-1.074765015,-0.5301974487,1.429512392
5.460285417,-1.368154907,-1.020727386,-0.9957293701,1.976160223
5.470287417,-1.587598572,-0.9970765686,-2.028581543,2.762204552
5.480290417,-1.277892609,-1.276994476,-3.07385788,3.565434991
5.490293417,-0.4718188477,-1.919757843,-3.613934784,4.119297006
5.500295417,0.9172924805,-2.760709076,-2.242037659,3.672829013
5.510298417,2.466421051,-4.326902161,3.66707428,6.184880668
5.520301417,7.234006805,-8.600664825,0.0636177063,11.23860922
5.530303417,16.67711975,-18.06413544,-14.18869446,28.38588316
5.540306417,15.15762955,-30.63664078,-8.199499054,35.15094986
5.550309417,9.770482178,-45.88094009,-21.84108124,51.74510427
5.560311417,4.190685425,-48.9809935,-31.18554932,58.21716289
5.570314417,-0.77927948,-34.16809708,-19.22542053,39.21330041
5.580317417,1.915865936,-22.78067734,-10.09201355,24.98956862
5.590319417,7.005881195,-16.19437363,-4.419858856,18.18997693
5.600322417,10.622211,-16.1217746,-6.052214355,20.23295038
5.610325417,13.23038727,-20.25003983,-5.918692017,24.90257367
5.620327417,11.39625137,-25.43046707,-11.43666733,30.12275818
5.630330417,9.33608551,-27.31609589,-16.55257874,33.27640981
5.640333417,8.43286377,-27.07030701,-11.73125473,30.68447572
5.650335417,6.759194183,-27.8295282,-9.925709381,30.30988374
5.660338417,5.118755493,-27.08542557,-10.66217789,29.55510063
5.670340417,4.110003204,-23.64797379,-8.715027008,25.53567086
5.680343417,3.450474701,-18.80434616,-5.858068085,19.99565382
5.690346417,2.843786316,-14.16998337,-3.82499588,14.95012183
5.700348417,1.983076172,-9.960137787,-1.022373962,10.20696744
5.710351417,0.2522254944,-6.10086319,1.018182678,6.190383294
5.720354417,-1.412163391,-3.776945801,0.6661148071,4.086959011
5.730356417,-1.152902527,-2.925815735,0.1489402771,3.148295596
5.740359417,-0.889151001,-1.638642426,0.08397537231,1.866223557
5.750362417,-0.8887019348,-0.6469546509,-0.909508667,1.426726135
5.760364417,-1.035995636,-0.9138496399,-2.738106079,3.06686045
5.770367417,-0.3577560425,-0.6174659729,-2.810705109,2.899882208
5.780370417,0.7316784668,-0.1523831177,-1.334624634,1.529639469
5.790372417,1.259480896,0.2074685669,0.2065704346,1.293060972
5.800375417,1.013841705,0.8232879639,1.035247192,1.666557777
5.810378417,0.8428971863,1.143472137,0.4065545654,1.477596295
5.820380417,0.9737251282,1.278641052,-0.240100708,1.625026743
5.830383417,1.278191986,1.16308136,-0.4999603271,1.799025662
5.840385417,2.126178589,0.4879852295,-0.3363505554,2.207237339
5.850388417,2.812800751,-0.3445834351,-0.3107537842,2.850816325
5.860391417,2.547103271,-1.205293579,-0.9366023254,2.969459817
5.870393417,1.216969299,-1.664837952,-2.296224976,3.086316384
5.880396417,-0.5444178772,-1.320553894,-2.834206238,3.173795584
5.890399417,-1.308279419,-0.9321116638,-2.021695862,2.582185382
5.900401417,-1.501677246,-0.5763015747,-1.464404755,2.17523317
5.910404417,-1.498982849,-0.1246907043,-1.090332642,1.857773566
5.920407417,-1.096619568,0.2709365845,-0.6842271423,1.320661914
5.930409417,-0.5969586182,0.4851411438,-0.1368154907,0.7813065978
5.940412417,-0.1775308228,0.4212240601,0.5415737915,0.7086953319
5.950415417,0.1884580994,0.1459465027,0.84948349,0.8822919226
5.960417417,0.5611830139,-0.08726852417,0.6114784241,0.8345346209
5.970420417,0.5547463989,-0.2745291138,0.2713856506,0.6758401977
5.980423417,0.3339555359,-0.4038601685,0.1010398865,0.5337025335
5.990425417,0.02365081787,-0.4261637878,0.2176473999,0.4791088874
6.000428417,-0.2662962341,-0.4481680298,0.3947291565,0.6538955377
6.010430417,-0.4468208313,-0.7200027466,0.1887574768,0.8681487173
6.020433417,-0.6132746887,-1.068927155,-0.227227478,1.253133446
6.030436417,-0.6230044556,-1.358574829,-0.3477268982,1.534527326
6.040438417,-0.4300556946,-1.75165741,-0.3742218018,1.842089449
6.050441417,-0.2020797729,-2.378703461,-0.1483415222,2.391876166
6.060444417,0.193996582,-3.624562683,0.408949585,3.652715302
6.070446417,1.672621765,-6.035000153,-0.1203497314,6.263655041
6.080449417,4.74004303,-11.63620239,-6.014941864,13.93013782
6.090452417,9.239985352,-19.25296326,-12.88325912,24.94057516
6.100454417,17.62629593,-29.81649628,-5.600304108,35.08665223
6.110457417,19.8005246,-38.25310226,6.681655426,43.58904824
6.120460417,4.536316681,-33.10725311,-14.37116501,36.37579912
6.130462417,-4.198020172,-23.95333878,-38.43257904,45.48020386
6.140465417,-2.09908493,-17.81894531,-15.58379333,23.76500756
6.150468417,3.751199341,-16.18703888,-7.9507164,18.42025015
6.160470417,10.6620282,-17.83017197,-9.487271118,22.83861184
6.170473417,13.25628342,-18.96630936,-6.054160309,23.91867048
6.180475417,12.52475464,-19.09339508,-8.375083923,24.32219655
6.190478417,13.82300491,-21.28364044,-18.86856262,31.62422285
6.200481417,11.45073807,-24.91434036,-22.73517197,35.61926168
6.210483417,8.507857819,-23.88612854,-16.58101959,30.29622075
6.220486417,7.289840698,-20.20303757,-9.489965515,23.4811403
6.230489417,6.40742569,-19.47555038,-8.630452881,22.24492939
6.240491417,5.61991333,-19.88854156,-9.597442017,22.78702273
6.250494542,5.40226593,-19.75322296,-9.234895935,22.46458541
6.260497542,5.779331818,-18.54209152,-7.984096985,20.99894376
6.270499542,5.36484375,-16.18599106,-5.46663208,17.9067563
6.280502542,4.338877258,-13.39474548,-3.352129211,14.47348723
6.290505542,2.731070709,-10.3116069,-2.487826538,10.9534134
6.300507542,0.3999682617,-8.303083649,-1.583407288,8.462171785
6.310510542,-2.071392517,-7.093748474,-0.8524772644,7.438995353
6.320513542,-3.411405945,-5.196593628,-0.3403921509,6.2256038
6.330515542,-2.939886475,-3.549868011,-0.8593629456,4.688603209
6.340518542,-1.554816742,-2.566562805,-2.640958099,3.997419094
6.350521542,-0.7372169495,-1.551972656,-3.289409637,3.711108152
6.360523542,-0.5924679565,-0.612077179,-2.269580383,2.424180659
6.370526542,-0.110919342,0.1589694214,-1.049168243,1.06692473
6.380528542,0.213306427,0.8605604553,-0.1170565796,0.8942964676
6.390531542,0.2968327332,1.199904785,-0.6119274902,1.379252123
6.400534542,0.5020559692,1.230441284,-1.232387238,1.812408412
6.410536542,1.247805176,0.9246272278,-1.253044281,1.995513277
6.420539542,1.958227844,0.3421884155,-1.368753662,2.413552525
6.430542542,2.29218338,-0.4031117249,-1.432371368,2.732817493
6.440544542,2.354004822,-1.000070343,-2.290237427,3.433171546
6.450547542,1.573827209,-1.238374786,-3.931873627,4.412497526
6.460550542,0.1167572021,-0.8542735291,-1.630708923,1.844621126
6.470552542,-1.034049683,-0.6770420837,2.074685669,2.414946243
6.480555542,-1.616937561,-0.5418731689,2.820434875,3.295901469
6.490558542,-0.9403445435,-0.290994873,1.78204422,2.035830906
6.500560542,-0.3617976379,0.3707789612,1.382225647,1.476117308
6.510563542,-0.3273692322,0.7447013855,1.01683548,1.302192444
6.520566542,-0.1995350647,0.7560777283,0.5797444153,0.9734327713
6.530568542,-0.02709365845,0.733175354,0.5291496277,0.9045880248
6.540571542,0.05029541016,0.712817688,0.5947132874,0.9296895066
6.550573542,0.1679507446,0.6087840271,0.8107141113,1.0276589
6.560576542,0.6198609924,0.2868035889,1.135089569,1.324731021
6.570579542,1.12565918,-0.08083190918,1.024020538,1.523896469
6.580581542,1.389261017,-0.3381468201,0.3079096985,1.462599681
6.590584542,1.479673004,-0.7698490906,0.2182461548,1.682180491
6.600587542,1.387614441,-1.135239258,0.5025050354,1.861921942
6.610589542,1.216819611,-1.480870514,0.2911445618,1.938657422
6.620592542,1.031055908,-1.903890839,-0.2573149109,2.180387024
6.630595542,0.6869215393,-2.285297699,-0.7099736023,2.48968056
6.640597542,0.1279838562,-2.531535645,-1.220861206,2.813459556
6.650600542,-0.09789642334,-2.735860748,-2.138453064,3.473830631
6.660603542,1.044976959,-3.476071472,-2.342628479,4.320064573
6.670605542,3.037034454,-5.783373413,-1.273401947,6.655263994
6.680608542,6.999594269,-11.26138184,-5.530249786,14.36651327
6.690611542,13.15659073,-21.54290131,-19.51746323,31.90805301
6.700613542,16.53551422,-28.8619313,-4.922064514,33.62530339
6.710616542,7.396868134,-32.98375992,-4.151916046,34.05701812
6.720619542,2.584525452,-39.63098694,-28.87809769,49.10437275
6.730621542,-3.061882782,-32.50400757,-19.33424423,37.94336087
6.740624542,4.259691925,-22.21934464,-5.553900604,23.29570912
6.750626542,12.75662247,-20.03613464,-8.284671936,25.15579252
6.760629542,13.03369629,-21.81758011,-15.30477356,29.66681875
6.770632542,13.11812073,-22.81780014,-13.4980307,29.57928206
6.780634542,14.54270828,-24.01486084,-18.14870956,33.43021933
6.790637542,11.2857811,-27.38210861,-17.59815445,34.45059894
6.800640542,5.78726532,-29.41428268,-13.81567017,33.00856264
6.810642542,3.486699371,-29.5123288,-11.75969559,31.9597413
6.820645542,3.250789948,-27.00234833,-10.04695724,28.99372002
6.830648542,2.168989563,-23.11463287,-8.959319,24.88493853
6.840650542,1.522633667,-19.12033905,-5.578000488,19.97548167
6.850653542,0.6825805664,-14.66784805,-3.531605988,15.1024476
6.860656542,1.273401947,-9.881551208,-2.369722137,10.2412006
6.870658542,1.72231842,-6.495442657,-1.607058105,6.909398803
6.880661542,1.018332367,-4.55517746,-0.9966275024,4.77283028
6.890664542,0.1314266968,-4.479434967,-0.9482780457,4.58059405
6.900666542,-0.5287005615,-3.633693695,-0.9553134155,3.794190016
6.910669542,-0.1600172424,-2.295626221,-0.9050180054,2.472764213
6.920671542,0.7042854309,-0.942739563,-1.446741486,1.864895916
6.930674542,1.198407898,-0.3091072083,-1.276096344,1.777681252
6.940677542,1.436712341,0.16615448,-0.6945556641,1.604418036
6.950679542,1.705702972,0.8240364075,0.6456074524,2.00131647
6.960682542,1.620679779,1.277892609,1.477277985,2.538102187
6.970685542,1.223106537,1.44269989,1.260079651,2.272701762
6.980687542,0.9506730652,1.562750244,0.550405426,1.910213008
6.990690542,0.7084767151,1.510957947,0.1579216003,1.676267402
7.000693542,0.2682421875,0.9687854004,0.07214996338,1.00782173
7.010695542,0.1508862305,0.04954696655,0.0715512085,0.17418706
7.020698542,0.3124003601,-0.4617897034,0.2607577515,0.6154984322
7.030701542,0.1323248291,-0.6932084656,0.4715194702,0.8487511107
7.040703542,-0.03637435913,-0.7725434875,0.6421646118,1.005247195
7.050706542,-0.03712280273,-0.6622229004,0.6450086975,0.9251775463
7.060709542,-0.1308279419,-0.3799099731,0.53004776,0.6651301872
7.070711542,-0.136665802,-0.1347198486,0.4017645264,0.445243432
7.080714542,0.4870870972,0.03143463135,0.2281256104,0.5387794265
7.090716542,1.378633118,0.02814147949,0.09939331055,1.382497829
7.100719542,1.880240021,0.001496887207,0.1863624573,1.889453821
7.110722542,2.220183105,0.008232879639,0.07574249268,2.221489979
7.120724542,2.475701752,-0.02290237427,-0.4122427368,2.509893973
7.130727542,2.115251312,-0.1266366577,-1.372196503,2.524529302
7.140730542,1.18763031,-0.4460723877,-2.389481049,2.70537724
7.150732542,0.7122189331,-0.7084767151,-3.015179901,3.178129151
7.160735542,0.5421725464,-0.9047186279,-3.169658661,3.340539312
7.170738542,0.5304968262,-1.037642212,-2.688559113,2.93026933
7.180740542,0.2426454163,-1.252146149,-1.754052429,2.168743115
7.190743542,-0.7557783508,-1.297801208,-0.866098938,1.733671325
7.200746542,-1.948797455,-1.404978333,-1.018781433,2.609538512
7.210748542,-2.46417572,-1.82410675,-2.764002228,4.127860915
7.220751542,-1.478176117,-2.110311584,-3.860472107,4.641299872
7.230754542,-0.7475454712,-2.087858276,-0.923429718,2.402227895
7.240756542,-1.823507996,-2.699935455,6.606661377,7.366329305
7.250759833,-1.109492798,-4.410877533,11.4835199,12.35143895
7.260761833,8.206085358,-6.394402771,-2.536175995,10.70796023
7.270764833,19.0148085,-17.76026733,-22.49282593,34.39356417
7.280767833,7.087311859,-34.39307922,-3.801195374,35.32085749
7.290769833,6.780300293,-46.31608521,-16.56170975,49.65322196
7.300772833,12.35695358,-44.34962448,-17.31224899,49.18635439
7.310775833,10.70259384,-28.71897858,-30.8619223,43.49463753
7.320777833,6.627019043,-24.55613525,-12.1125119,28.17151229
7.330780833,6.446943512,-20.72859467,-1.281934204,21.74582886
7.340783833,8.14725769,-23.12945206,-15.15209106,28.82594706
7.350785833,12.4629332,-24.35136108,-10.73208252,29.38521883
7.360788833,13.04836578,-24.66376144,-12.79374527,30.69594267
7.370791833,9.623487854,-25.08303955,-13.01812866,29.85367759
7.380793833,7.330406342,-26.25570099,-13.38247101,30.36753566
7.390796833,6.256389771,-27.18871078,-12.39003479,30.52673204
7.400799833,5.520220642,-25.64766541,-9.241931305,27.81526327
7.410801833,4.823868713,-22.10288681,-7.223229218,23.74831268
7.420804833,4.299359436,-17.62839157,-5.504952393,18.96178214
7.430806833,3.810625763,-12.57864258,-3.440894623,13.58612798
7.440809833,3.216960297,-7.555837555,-2.124232635,8.482445343
7.450812833,2.482587433,-3.97483429,-1.69193161,4.982487387
7.460814833,0.1610650635,-3.484154663,-0.2767744446,3.498839774
7.470817833,-1.92245224,-3.623514862,0.1724414062,4.105535118
7.480820833,-2.912044373,-2.477498016,-0.001197509766,3.823349354
7.490822833,-3.066523132,-1.400038605,-0.8794212341,3.483827482
7.500825833,-1.986668701,-0.3677851868,-0.9843530273,2.247458421
7.510828833,-0.6767427063,0.5824388123,0.5498066711,1.048571903
7.520830833,0.1519340515,1.12446167,1.613045654,1.972159802
7.530833833,0.3604504395,1.399589539,1.896107025,2.384113514
7.540836833,0.3484753418,1.44734024,1.144969025,1.878079578
7.550838833,0.4067042542,1.3947995,0.3468287659,1.4937082
7.560841833,0.7893086243,1.289568329,0.1562750244,1.520005415
7.570843833,1.245559845,0.9541159058,-0.01317260742,1.569053857
7.580846833,1.411714325,0.06406677246,-0.09220825195,1.416172394
7.590849833,1.322649536,-0.706381073,-0.05837860107,1.500594574
7.600851833,1.708846436,-1.024319916,-1.068927155,2.260971626
7.610854833,2.485132141,-0.8943901062,-2.9077034,3.928174446
7.620857833,1.453926544,-0.6882687378,-1.317859497,2.079511939
7.630859833,0.4300556946,-0.758921814,-0.02903961182,0.8727849215
7.640862833,-0.7285350037,-0.5170248413,0.2579136658,0.929837296
7.650865833,-1.118773499,-0.03023712158,0.06301895142,1.120954867
7.660867833,-0.6903643799,0.374072113,-0.420176239,0.89055095
7.670870833,-0.2656974792,0.4230203247,-0.8020321655,0.9448793257
7.680873833,-0.08382568359,0.1989363098,-0.9081614685,0.9334664715
7.690875833,-0.04640350342,-0.1987866211,-0.6252497864,0.6577284403
7.700878833,0.1781295776,-0.4541555786,-0.1032852173,0.498653459
7.710880833,0.4692741394,-0.5737568665,0.2728825378,0.789860772
7.720883833,0.6390211487,-0.7129673767,0.2817141724,0.9980147211
7.730886833,0.5376818848,-0.9406439209,0.07319778442,1.085942315
7.740888833,0.450712738,-1.059047699,-0.1856140137,1.16583728
7.750891833,0.3603007507,-1.123114471,-0.6448590088,1.344264069
7.760894833,0.03188369751,-1.301992493,-1.36201767,1.884487504
7.770896833,-0.3394940186,-1.443598022,-2.089504852,2.562276716
7.780899833,-0.5951623535,-1.391057281,-3.017724609,3.375784413
7.790902833,-0.527353363,-1.555864563,-4.246070251,4.552793504
7.800904833,0.3597019958,-2.067051544,-4.039200439,4.551618152
7.810907833,1.671723633,-2.878813477,-1.10455307,3.507458399
7.820910833,2.79648468,-4.412224731,4.02153717,6.592481692
7.830912833,9.675729218,-9.010362854,-5.258115692,14.22863856
7.840915833,17.30521362,-21.01030884,-14.73640549,30.9526274
7.850917833,5.557044067,-31.79104019,-1.893412628,32.32856301
7.860920833,7.912994843,-44.63612869,-26.46646271,52.49260062
7.870923833,5.956413574,-46.34153229,-24.9297583,52.95761821
7.880925833,0.240100708,-32.49622375,-16.40543472,36.40330335
7.890928833,4.214934998,-26.00272705,-8.186176758,27.58479619
7.900931833,6.742578735,-26.24926437,-8.747210083,28.47806054
7.910933833,8.568182373,-26.85744965,-11.2724588,30.36123644
7.920936833,10.55036041,-28.26796646,-9.067394257,31.50564507
7.930939833,8.685688019,-29.71874954,-10.86335953,32.81246457
7.940941833,5.845344543,-30.7584874,-10.58254349,33.04909721
7.950944833,4.749473419,-30.86012604,-10.32672546,32.88686874
7.960947833,4.184548187,-28.29760483,-8.952133942,29.97341463
7.970949833,3.690276031,-23.3159642,-7.355254669,24.72553529
7.980952833,3.949686584,-17.44187943,-6.189478912,18.92429209
7.990955833,3.99115036,-12.36398895,-3.924089813,13.57188214
8.000957833,3.909719696,-8.874146118,-3.048710175,10.16518623
8.010960833,2.338886261,-6.259682922,-2.35071167,7.083774741
8.020963833,0.9162446594,-4.20640274,-1.025367737,4.425461251
8.030965833,1.040785675,-3.520079956,-0.8427474976,3.766221059
8.040968833,0.4830455017,-2.948119354,-1.351689148,3.278994394
8.050970833,-0.1362167358,-1.238374786,-1.245410156,1.761582688
8.060973833,0.07484436035,0.02035766602,-0.2570155334,0.2684643315
8.070976833,1.032253418,0.9614506531,0.8509803772,1.64745321
8.080978833,1.881138153,1.73878418,1.799258423,3.130396468
8.090981833,2.050585785,2.128723297,2.221380615,3.697417582
8.100984833,1.8194664,2.383643188,2.184108124,3.709789903
8.110986833,1.749711456,2.538121948,1.620230713,3.482628428
8.120989833,1.853894806,1.962718506,0.5596861267,2.757251973
8.130992833,2.152074738,0.58737854,0.01646575928,2.230854174
8.140994833,2.090402985,-0.1802252197,0.1294807434,2.102149146
8.150997833,1.489851837,-0.353714447,0.23635849,1.549399155
8.161000833,0.1154100037,-0.06855743408,0.1924996948,0.2346821749
8.171002833,-0.7902067566,0.006586303711,0.3043171692,0.8468051943
8.181005833,-1.125808868,-0.322130127,0.3245251465,1.215125507
8.191007833,-1.391506348,-0.3918850708,0.1601669312,1.454481787
8.201010833,-1.361568604,-0.2074685669,0.02859054565,1.3775811
8.211013833,-0.9005273438,0.09086105347,-0.1862127686,0.9240565043
8.221015833,-0.3418890381,0.2911445618,-0.3077600098,0.544398286
8.231018833,0.1595681763,0.2580633545,-0.2477348328,0.3917030063
8.241021833,0.5766009521,0.06930587769,-0.2145039368,0.6190992663
8.251024333,0.8472381592,-0.0896635437,-0.3032693481,0.9043364125
8.261027333,0.9704319763,-0.3531156921,-0.6036946106,1.196192332
8.271030333,0.9580078125,-0.6801855469,-1.327589264,1.772829546
8.281032333,0.9178912354,-0.951870575,-2.410886536,2.749719222
8.291035333,1.091829529,-1.191671906,-2.886746979,3.308395649
8.301038333,1.271455994,-1.425036621,-2.497256927,3.143822813
8.311040333,1.331930237,-1.691332855,-2.341281281,3.180604191
8.321043333,0.9392967224,-1.870659943,-2.568059692,3.31309184
8.331046333,0.4722679138,-1.901944885,-2.80591507,3.422512338
8.341048333,0.2191442871,-1.816322937,-2.656525726,3.225551451
8.351051333,0.08666976929,-1.166973267,-2.305505676,2.58547765
8.361054333,0.163460083,-0.736917572,-2.27586731,2.397777871
8.371056333,0.647403717,-1.303339691,0.1689985657,1.465055097
8.381059333,0.1817221069,-3.489992523,5.774990845,6.75008074
8.391061333,2.731220398,-5.767057343,2.195933533,6.748380497
8.401064333,12.11341003,-10.91380463,-18.43835724,24.61338765
8.411067333,8.391549683,-22.48234772,-10.03992188,26.01296016
8.421069333,1.400038605,-33.73504761,-9.20151535,34.9954487
8.431072333,5.942642212,-42.20323792,-27.04530899,50.47649973
8.441075333,3.591631165,-35.76288071,-18.66019592,40.49797974
8.451077333,6.416107635,-28.88169022,-8.887767792,30.89192262
8.461080333,10.50021469,-25.52267532,-7.464377747,28.58983035
8.471083333,10.87114334,-24.92092667,-10.82309326,29.26386323
8.481085333,11.52184021,-24.03027878,-10.63568298,28.69363784
8.491088333,13.19506073,-22.91150528,-15.11347137,30.45428901
8.501091333,12.72234375,-22.59835648,-16.69134018,30.84063201
8.511093333,10.67295547,-24.60313751,-15.73527832,31.09381511
8.521096333,7.552095337,-26.85460556,-14.08945084,31.25246564
8.531099333,5.152884521,-27.62176025,-11.37888748,30.31489632
8.541101333,3.333717499,-26.43547714,-9.299112396,28.22094285
8.551104333,2.103725281,-23.55591522,-7.914342041,24.93879732
8.561107333,1.098565521,-18.83667892,-5.184768219,19.5680643
8.571109333,0.9466314697,-13.60520782,-3.234024811,14.01630149
8.581112333,2.201472015,-8.80484024,-2.295476532,9.36167203
8.591114333,2.0079245,-5.573659515,-0.8174501038,5.980440273
8.601117333,0.9000782776,-4.19128418,-0.04790039063,4.287108399
8.611120333,0.0592767334,-3.826941833,0.02065704346,3.827456628
8.621122333,-0.673150177,-3.027154999,-1.116677856,3.296023056
8.631125333,-0.9226812744,-1.220262451,-1.489702148,2.135320509
8.641128333,-0.7298822021,-0.1809736633,-1.562301178,1.73385826
8.651130333,-0.2466870117,0.09131011963,-1.495689697,1.51864403
8.661133333,0.3317102051,0.545615387,-0.007634124756,0.6385813108
8.671136333,0.8511300659,1.035696259,1.258283386,1.838577224
8.681138333,0.9430389404,1.355730743,1.498234406,2.229805961
8.691141333,0.7843688965,1.55736145,1.209634552,2.122221714
8.701144333,0.633482666,1.588197327,0.4884342957,1.778268567
8.711146333,0.6950047302,1.212778015,0.1309776306,1.403929211
8.721149333,0.8707392883,0.1772314453,0.03113525391,0.8891385142
8.731151333,1.368005219,-0.7447013855,-0.001496887207,1.557568834
8.741154333,1.866019592,-1.178948364,-0.3233276367,2.230804591
8.751157333,2.15881073,-1.058598633,-1.163231049,2.670992569
8.761159333,1.681603088,-0.5418731689,-1.732796631,2.474671623
8.771162333,0.4960684204,-0.5275030518,-0.9250762939,1.174780617
8.781165333,-0.8517288208,-0.6216572571,0.0245489502,1.054752284
8.791167333,-1.160087585,-0.4784051514,0.5849835205,1.384514505
8.801170333,-0.6598278809,-0.1631607056,0.7390132141,1.004059151
8.811173333,-0.3394940186,0.033230896,0.7970924377,0.8670160526
8.821175333,-0.05807922363,0.05284011841,0.7991880798,0.8030360274
8.831178333,0.384250946,0.01960922241,0.7740403748,0.8643910069
8.841181333,0.9006770325,-0.09340576172,0.5891748047,1.080310466
8.851183333,1.239572296,-0.3990701294,0.2192939758,1.32056287
8.861186333,1.035247192,-0.7197033691,-0.2609074402,1.287548982
8.871189333,0.5989045715,-0.8713380432,-0.5719606018,1.202104655
8.881191333,0.390687561,-0.938997345,-0.6623725891,1.213709286
8.891194333,0.2188449097,-0.966839447,-0.5795947266,1.148303818
8.901196333,0.09340576172,-1.062340851,-0.4128414917,1.143560587
8.911199333,-0.1728904724,-1.281036072,-0.4787045288,1.378442077
8.921202333,-0.6530918884,-1.463656311,-0.7461982727,1.767945325
8.931204333,-1.079255676,-1.660646667,-1.24960144,2.341803563
8.941207333,-1.155596924,-1.986369324,-1.924098816,2.997202628
8.951210333,0.03787124634,-2.378404083,-2.801574097,3.675194911
8.961212333,1.747316437,-3.190764771,-2.894530792,4.648914181
8.971215333,3.131637726,-5.685926056,-1.225800934,6.606019822
8.981218333,8.14725769,-11.64712967,-4.112398224,14.79679886
8.991220333,13.92748764,-23.32314926,-13.24954742,30.22407501
9.001223333,9.454189911,-31.84552689,-6.288423157,33.80922293
9.011226333,13.9559285,-43.24686768,-23.37554031,51.10259669
9.021228333,8.459807739,-41.62139786,-17.19234833,45.82014784
9.031231333,1.866618347,-31.92800537,-25.37777664,40.82785003
9.041234333,4.423152008,-24.73665985,-5.049449615,25.63130031
9.051236333,7.672894135,-21.96173035,-3.11711792,23.47141513
9.061239333,11.39954453,-24.76165787,-12.5955574,30.02894241
9.071242333,13.15509384,-25.42911987,-11.2154274,30.74869824
9.081244333,12.70962021,-25.43840057,-11.70940018,30.75315792
9.091247333,9.913734283,-26.70446777,-13.60176498,31.56610108
9.101250333,6.571783905,-27.69271271,-13.41420502,31.46451298
9.111252333,5.602250061,-26.80490891,-11.61479691,29.74545099
9.121255333,5.32742157,-23.85649017,-9.485025787,26.21982567
9.131257333,3.657045135,-20.00769379,-6.802005157,21.4464231
9.141260333,2.02888092,-16.12237335,-5.495971069,17.15380361
9.151263333,1.91197403,-11.55611893,-4.521497498,12.55561504
9.161265333,2.116748199,-7.635771332,-2.498903503,8.30843821
9.171268333,-0.1234931946,-5.259911957,-0.9909393311,5.353866371
9.181271333,-1.415157166,-3.501219177,-0.06496490479,3.776959884
9.191273333,-1.422342224,-1.872605896,0.3588038635,2.378749768
9.201276333,-1.841021576,-1.142124939,0.22348526,2.17801641
9.211279333,-2.095941467,-1.367406464,-1.183888092,2.768458431
9.221281333,-1.341360626,-0.333356781,-1.320703583,1.911709451
9.231284333,0.016615448,0.8515791321,-0.129181366,0.8614818144
9.241287333,0.8696914673,1.422042847,0.9635462952,1.925354661
9.251288792,0.9027726746,1.74342453,1.557960205,2.506345466
9.261291792,1.058149567,1.992057495,1.326391754,2.616732439
9.271294792,1.776954803,1.967807922,0.9900411987,2.830197514
9.281296792,2.530787201,1.447938995,0.7447013855,3.009317422
9.291299792,2.809806976,-0.08352630615,0.6393205261,2.882832396
9.301302792,3.42368042,-1.471440125,-0.3086581421,3.739250394
9.311304792,3.676953735,-1.720372467,-0.7628137207,4.130563517
9.321307792,1.627864838,-0.7970924377,0.04655319214,1.81313747
9.331309792,0.1537303162,-0.2435435486,0.6982978821,0.7553584595
9.341312792,-0.6481521606,-0.3101550293,0.9741741943,1.210501023
9.351315792,-1.192420349,-0.2576142883,0.5318440247,1.330822857
9.361317792,-0.9312135315,-0.003891906738,0.04086502075,0.9321178778
9.371320792,-0.6459068298,0.2559677124,-0.2948867798,0.7547670604
9.381323792,-0.5016069031,0.3414399719,-0.4834945679,0.7758593538
9.391325792,-0.4318519592,0.2790197754,-0.5288502502,0.7375843931
9.401328792,-0.43409729,0.07170089722,-0.4261637878,0.6125333052
9.411331792,-0.3445834351,-0.2881507874,-0.4803511047,0.6576517344
9.421333792,-0.09460327148,-0.5343887329,-0.6524931335,0.8486862708
9.431336792,0.3044668579,-0.6601272583,-0.6355783081,0.9656230374
9.441339792,0.7008425903,-0.8170010376,-0.5379812622,1.203368136
9.451341792,0.8740324402,-1.080752563,-0.4014651489,1.446766421
9.461344792,1.009949799,-1.39120697,-0.4966671753,1.789450673
9.471347792,1.262774048,-1.615740051,-0.8631051636,2.224896567
9.481349792,1.468296661,-1.868414612,-1.466500397,2.792398908
9.491352792,1.728455658,-2.044298859,-1.919608154,3.29417854
9.501355792,2.219734039,-2.101030884,-2.004182281,3.654900354
9.511357792,2.962190094,-2.006427612,-1.571731567,3.907769445
9.521360792,2.769989777,-1.912722473,-0.1553768921,3.369791181
9.531362792,1.530267792,-2.785557404,2.70637207,4.174386104
9.541365792,3.127745819,-4.803960114,1.846859436,6.022600473
9.551368792,9.410181427,-9.142837372,-10.05459137,16.52990615
9.561370792,12.3473735,-17.87912018,-9.281000061,23.62747411
9.571373792,6.434070282,-28.83843018,-9.034462738,30.89779656
9.581376792,8.663683777,-41.80521561,-26.97166214,50.49956462
9.591378792,9.606273651,-39.69610153,-29.73820908,50.52150086
9.601381792,4.234244843,-34.3323056,-22.87183777,41.46995298
9.611384792,5.392236786,-26.30554733,-1.423390045,26.89022271
9.621386792,7.212002563,-23.39949051,-12.34303253,27.42078754
9.631389792,7.770341492,-24.92122604,-10.56458084,28.16125144
9.641392792,9.263037415,-24.29208435,-12.11535599,28.68259184
9.651394792,9.244925079,-22.6935585,-16.92605209,29.78183132
9.661397792,9.672136688,-23.46295853,-14.42669952,29.19229881
9.671400792,9.07398056,-25.14486099,-13.40402618,29.90433205
9.681402792,7.755821686,-26.13699783,-12.22313187,29.87809195
9.691405792,6.209836578,-24.73845612,-10.11087433,27.43689234
9.701408792,4.286935272,-20.69237,-7.050787811,22.27701952
9.711410792,2.877466278,-16.12267273,-4.90739502,17.09686854
9.721413792,1.434616699,-12.07449097,-2.834355927,12.48539269
9.731415792,0.9392967224,-8.459658051,-1.000070343,8.570194476
9.741418792,0.8485853577,-5.243446198,-0.3279679871,5.3217843
9.751421792,0.5255570984,-2.952909393,0.5519023132,3.049668886
9.761423792,0.3192860413,-2.132315826,0.6472540283,2.251144628
9.771426792,0.09610015869,-1.875899048,-0.9210346985,2.092017542
9.781429792,-0.1815724182,-1.055754547,-2.489323425,2.710040096
9.791431792,0.2667453003,0.489332428,-2.006277924,2.082246476
9.801434792,0.6617738342,0.9819580078,-0.06197113037,1.185759907
9.811437792,0.7574249268,1.147064667,1.671573944,2.164164809
9.821439792,0.5270539856,1.292412415,2.443818054,2.814313848
9.831442792,0.3978726196,1.351090393,2.246378632,2.651408084
9.841445792,0.6550378418,0.9339079285,1.250649261,1.692743976
9.851447792,1.587897949,-0.1748364258,0.7207511902,1.752560969
9.861450792,1.567989349,-1.027463379,0.802331543,2.039119295
9.871453792,1.007255402,-1.548978882,0.9135502625,2.061182452
9.881455792,0.5887257385,-1.74102951,0.9819580078,2.083752212
9.891458792,0.1990859985,-1.292711792,0.8207432556,1.544136815
9.901460792,-0.1859133911,-0.4595443726,0.3649411011,0.6155703263
9.911463792,-0.2445913696,0.2398013306,-0.3338058472,0.4782843922
9.921466792,-0.07858657837,0.5941145325,-0.4734654236,0.7637522081
9.931468792,-0.2628533936,0.5996530151,-0.2622546387,0.7053035804
9.941471792,-0.7045848083,0.3893403625,-0.3688330078,0.8854735782
9.951474792,-0.7550299072,0.2276765442,-0.5418731689,0.9568350437
9.961476792,-0.4706213379,0.2345622253,-0.6484515381,0.8348612331
9.971479792,-0.08053253174,0.07634124756,-0.6732998657,0.6823827254
9.981482792,0.1926493835,-0.2303709412,-0.6224057007,0.6910668649
9.991484792,0.2471360779,-0.6408174133,-0.4878355408,0.8424409256
