Time (s),Acceleration x (m/s^2),Acceleration y (m/s^2),Acceleration z (m/s^2),Absolute acceleration (m/s^2)
25.00473675,-8.663384399,3.962110748,0.1218466187,9.527192526
25.01473875,-8.336464233,3.445684662,-0.9457333374,9.069938823
25.02474175,-7.664810944,2.643353119,-0.8000862122,8.147194637
25.03474375,-6.501130829,1.604812775,-1.067879333,6.780891709
25.04474675,-4.902006226,0.7212002563,-1.241069183,5.107841772
25.05474875,-3.279380493,0.02799179077,-1.495689697,3.604470506
25.06475075,-1.774559784,-0.5080435181,-1.878144379,2.63336229
25.07475375,-0.682281189,-0.8331674194,-1.835632782,2.12819719
25.08475575,0.1112187195,-0.8327183533,-2.522853699,2.65905627
25.09475875,1.028960266,-0.7173083496,-2.888543243,3.149122507
25.10476075,1.289568329,-1.056053925,-2.76609787,3.229478873
25.11476375,1.109492798,-1.230441284,-1.777104492,2.429621452
25.12476575,1.45796814,-1.307680664,-0.4806504822,2.016612184
25.13476875,2.539319458,-1.416803741,-0.5872288513,2.966532298
25.14477075,2.977158966,-1.325194244,-0.4032614136,3.283631383
25.15477375,3.251388702,-1.003513184,0.5710624695,3.450315862
25.16477575,3.877536621,-0.6047424316,0.1471440125,3.92716883
25.17477775,3.504512329,-0.2022294617,-0.3652404785,3.529292284
25.18478075,3.231180725,0.2398013306,-1.687141571,3.65300975
25.19478275,2.123933258,0.3043171692,-2.084415436,2.991402536
25.20478575,1.04138443,-0.1722917175,-1.622326355,1.935486701
25.21478775,0.5801934814,-0.1483415222,-0.9608518982,1.132195236
25.22479075,-0.109871521,0.4343966675,-0.1010398865,0.4593269799
25.23479275,-0.1574725342,0.6839277649,0.4478686523,0.8325509692
25.24479575,-0.2481838989,0.7586224365,0.5126838684,0.9486558901
25.25479775,-0.2700384521,0.8544232178,0.3691323853,0.9691328694
25.26479975,-0.3568579102,0.7096742249,0.7339237976,1.081493973
25.27480275,-0.4468208313,0.6920109558,0.8045768738,1.151465138
25.28480475,-0.212258606,0.4417314148,0.3611988831,0.6088062021
25.29480775,-0.4385879517,0.2157014465,-0.3201841736,0.5842982204
25.30480975,-0.636177063,0.1297801208,-0.720302124,0.9697418652
25.31481275,-0.3588038635,-0.2980302429,-0.1498384094,0.4899120198
25.32481475,-0.3243754578,-0.290994873,-0.02649490356,0.4365769504
25.33481775,-0.3320095825,-0.06032455444,-0.4379891968,0.5529050111
25.34481975,-0.5292993164,0.09864486694,-0.4376898193,0.6938738748
25.35482175,-0.8988807678,0.6047424316,-0.02679428101,1.083705669
25.36482475,-1.976489868,0.8161029053,0.3839515686,2.172545732
25.37482675,-2.283501434,1.060694275,1.402583313,2.882133081
25.38482975,-2.516566772,1.362766113,2.056573334,3.524164252
25.39483175,-2.540966034,1.308728485,2.35071167,3.700692366
25.40483475,-2.769840088,1.713486786,2.554438019,4.139227545
25.41483675,-13.24385925,2.913241882,5.89489151,14.78636304
25.42483975,-22.32128265,10.01716919,3.002606049,24.64952294
25.43484175,-37.1723497,17.65743118,-0.1996847534,41.15347291
25.44484475,-44.13003113,13.52183121,5.467081146,46.47782851
25.45484675,-34.84349258,9.982740784,7.346572723,36.98237715
25.46484875,-33.63011581,9.067244568,9.585017853,36.12578277
25.47485175,-39.86524979,8.092920685,15.62855026,43.57734605
25.48485375,-41.56571365,7.523804169,19.47435287,46.51415484
25.49485675,-34.7861618,7.012467499,18.39928848,39.97231004
25.50485875,-21.51984924,6.017636261,12.78296768,25.74335099
25.51486175,-33.09393082,7.443421326,12.41144028,36.12003084
25.52486375,-41.61106934,7.788154449,13.38381821,44.39890799
25.53486675,-32.73168411,7.959548035,12.69899231,35.99974938
25.54486875,-22.40630585,7.514074402,10.10309052,25.70167881
25.55487075,-17.18486389,5.916596375,6.827601929,19.41498925
25.56487375,-14.83609818,4.756209412,5.101990356,16.3939514
25.57487575,-14.3036554,3.967649231,4.977000275,15.65590399
25.58487875,-12.98145493,3.335813141,4.565206604,14.15934083
25.59488075,-10.65199905,2.675087128,3.787124634,11.61737871
25.60488375,-8.743318176,2.016307068,3.015030212,9.465807631
25.61488529,-7.085515594,1.463955688,2.036814423,7.516402763
25.62488829,-5.575006714,1.051413574,1.063089294,5.772029904
25.63489029,-4.001029816,0.6262976074,-0.03068618774,4.049867889
25.64489229,-2.980003052,0.2323168945,-1.023571472,3.159444237
25.65489529,-2.152374115,-0.08921447754,-1.832040253,2.827904709
25.66489729,-1.185384979,-0.3983216858,-2.352358246,2.664092159
25.67490029,-0.3032693481,-0.4640350342,-2.44202179,2.5041508
25.68490229,0.8168513489,-0.430355072,-2.951262817,3.09231367
25.69490529,1.64747406,-0.352666626,-3.972289581,4.314815065
25.70490729,1.379381561,-0.5092410278,-3.906276855,4.173849397
25.71491029,1.36905304,-0.6827302551,-2.281555481,2.746984208
25.72491229,1.370400238,-0.725690918,-1.166823578,1.940644579
25.73491529,1.62412262,-0.7364685059,0.4929249573,1.850171656
25.74491729,2.658621368,-0.5210664368,1.635199585,3.164436047
25.75491929,3.801345062,-0.213306427,0.5694158936,3.849669905
25.76492229,3.417243805,0.01886077881,-0.6122268677,3.47170458
25.77492429,2.650089111,0.1498384094,-0.4273612976,2.688505445
25.78492729,1.971101074,0.009280700684,-0.5278024292,2.040563888
25.79492929,1.714534607,-0.06077362061,-0.7087760925,1.856255882
25.80493229,1.625619507,-0.09774673462,-0.8000862122,1.814478204
25.81493429,1.273701324,-0.02305206299,-0.8916957092,1.554981575
25.82493729,0.2998265076,-0.06765930176,-0.289947052,0.4225434992
25.83493929,-0.1196012878,-0.06137237549,0.7029382324,0.7156767393
25.84494229,-0.4140390015,-0.03966751099,1.310375061,1.374803479
25.85494429,-0.07035369873,0.5339396667,-0.3152444458,0.6240354728
25.86494629,-0.1531315613,0.4960684204,-2.167941742,2.229238558
25.87494929,-0.0679586792,0.2538720703,-1.672472076,1.692995055
25.88495129,0.0758921814,0.4568499756,-0.5614823914,0.7278282759
25.89495429,-0.214354248,0.4885839844,-0.05912704468,0.5368035589
25.90495629,-0.2565664673,0.2544708252,0.4251159668,0.5579474332
25.91495929,-0.2412982178,-0.05164260864,0.6096821594,0.6577264815
25.92496129,-0.1333726501,-0.1627116394,0.1936972046,0.2859754333
25.93496429,-0.0001496887207,-0.2249821472,-0.2347119141,0.3251256243
25.94496629,-0.05987548828,-0.2312690735,-0.2721340942,0.3621152078
25.95496829,-0.9243278503,0.05328918457,0.4860392761,1.045684412
25.96497129,-1.901795197,0.8202941895,0.2784210205,2.089790849
25.97497329,-2.486179962,0.8858578491,-0.6712042236,2.723297641
25.98497629,-3.461401978,0.9488768005,0.2430944824,3.597327586
25.99497829,-4.521796875,1.347048798,-0.2245330811,4.723515909
26.00498129,-5.098547516,2.047741699,-0.429307251,5.511146664
26.01498329,-9.335037689,3.374283142,1.845961304,10.09635026
26.02498629,-24.93275208,9.141490173,4.076921997,26.86689899
26.03498829,-41.51571762,17.23201584,-2.563419342,45.02297523
26.04499029,-47.1058429,15.58304489,-2.680176544,49.68878213
26.05499329,-36.94781662,10.22852966,0.2493814087,38.33831195
26.06499529,-28.50836655,9.163793793,3.992048492,30.20990783
26.07499829,-33.07252533,9.530830536,7.417824554,35.20870324
26.08500029,-41.77617599,10.65873505,12.54077133,44.90131912
26.09500329,-47.5556575,10.24005569,17.53423737,51.70927171
26.10500529,-38.47733597,7.137307892,16.15665207,42.33773675
26.11500829,-15.08817398,3.701352997,10.14215927,18.5530699
26.12501029,-5.902375946,3.210823059,5.531596985,8.703217321
26.13501329,-28.09402817,4.812043304,10.13766861,30.25231403
26.14501529,-49.30566833,5.503455505,13.45896194,51.40506404
26.15501729,-29.30351303,6.518345032,8.479117584,31.19423237
26.16502029,-14.72218506,6.016289062,6.138734436,17.0476546
26.17502229,-11.7170343,5.491779785,4.984933777,13.86715915
26.18502529,-10.90063202,4.683760071,3.200793915,12.28846892
26.19502729,-10.01821701,3.871249695,1.698517914,10.87364747
26.20503029,-8.226742401,2.868934021,0.8690927124,8.755877745
26.21503229,-6.204597473,1.739981689,0.5924679565,6.471134704
26.22503529,-4.602628784,0.767454071,-0.07274871826,4.666740817
26.23503729,-3.423081665,0.1091230774,-1.440304871,3.715356517
26.24503929,-2.254461823,-0.2779719543,-1.811532898,2.905429049
26.25504229,-1.33627121,-0.4581971741,-1.75629776,2.253918192
26.26504429,-0.1326242065,-0.3417393494,-1.457818451,1.503199787
26.27504729,0.8186476135,-0.5896238708,-2.269131317,2.483303678
26.28504929,1.472637634,-0.8818162537,-3.644321594,4.028317439
26.29505229,1.259929962,-1.142723694,-3.093467102,3.530266231
26.30505429,1.374142456,-1.316212921,-1.78324173,2.607802717
26.31505729,1.582808533,-1.407373352,-0.965791626,2.327817877
26.32505929,1.778302002,-1.507515106,0.5430706787,2.393717938
26.33506129,2.668201447,-1.194965057,1.36201767,3.22526473
26.34506429,2.865790558,-0.6491999817,0.3284170532,2.956699832
26.35506629,2.238295441,-0.1826202393,0.2023791504,2.254833464
26.36506929,2.171234894,0.3115022278,-0.1116677856,2.196306968
26.37507129,1.393152924,0.3450325012,-1.415905609,2.016112891
26.38507429,1.052012329,0.2073188782,-1.09632019,1.533502207
26.39507629,0.8584648132,0.07933502197,-1.502126312,1.731946691
26.40507929,0.2441423035,0.02185455322,-1.589544525,1.608332952
26.41508129,0.2805166626,0.1194515991,-0.1778302002,0.3529615597
26.42508429,-0.07828720093,0.393381958,0.965791626,1.045768481
26.43508629,-0.3409909058,0.5306465149,2.168540497,2.258412807
26.44508829,-0.04760101318,0.1978884888,1.361269226,1.376400965
26.45509129,-0.1199006653,0.03667373657,0.4532574463,0.4702801772
26.46509329,0.1764830017,0.1320254517,-1.736838226,1.750766688
26.47509629,-0.3956272888,-0.2002835083,-1.954785004,2.004449761
26.48509829,-0.384250946,0.14040802,-1.475930786,1.531579213
26.49510129,-0.4390370178,0.1359173584,-1.321901093,1.399517606
26.50510329,-0.2820135498,-0.1574725342,-0.4149371338,0.5258346378
26.51510629,0.04520599365,-0.03367996216,0.1246907043,0.1368418557
26.52510829,0.5108876038,0.2969824219,-0.1977388,0.6231415053
26.53511129,0.4484674072,0.2294728088,-0.3511697388,0.6140854751
26.54511329,-0.3866459656,0.5812413025,-0.4646337891,0.8385827999
26.55511529,-1.762884064,1.02027832,-0.386945343,2.073271514
26.56511829,-2.398162994,1.106798401,0.3134481812,2.659781609
26.57512029,-2.916834412,1.143771515,1.260379028,3.377083292
26.58512329,-4.827910309,1.071172485,2.309996338,5.45822421
26.59512529,-6.498586121,1.080902252,2.431693268,7.022328915
26.60512829,-12.23750198,1.413959656,3.885021057,12.91700915
26.61513075,-22.21141113,9.128018188,3.685186615,24.29502214
26.62513275,-39.92048492,19.70936417,-1.168320465,44.53615526
26.63513575,-45.0739682,15.19969208,0.7182064819,47.57319696
26.64513775,-35.30288727,11.02502335,1.4837146,37.01413782
26.65514075,-33.42399445,8.606802063,3.508703613,34.69223901
26.66514275,-36.75516724,7.980354767,8.216413879,38.49854332
26.67514575,-40.18348801,7.973918152,11.31422195,42.50067879
26.68514775,-30.89485382,5.762416992,11.31302444,33.40182576
26.69515075,-19.92626312,3.762575684,8.905431061,22.14767799
26.70515275,-36.94991226,6.771019592,13.10854065,39.78663796
26.71515575,-49.34234207,8.693621521,15.81087112,52.53788559
26.72515775,-30.77510284,8.554111633,11.395952,33.91382466
26.73515975,-17.33275635,6.651717682,6.574627991,19.69506344
26.74516275,-14.32206711,6.420149231,3.905528412,16.1738392
26.75516475,-13.2538884,6.209537201,2.52734436,14.85299227
26.76516775,-12.8729306,5.336851959,2.264041901,14.1180812
26.77516975,-11.91013275,4.33633255,2.020049286,12.8349383
26.78517275,-10.21101608,3.126398621,1.415905609,10.77237237
26.79517475,-8.057294769,2.143841858,0.7824229431,8.374260718
26.80517775,-6.135141907,1.337468719,-0.3176394653,6.287263604
26.81517975,-4.75171875,0.7881111145,-1.000818787,4.919510997
26.82518175,-3.609144745,0.3921844482,-1.314266968,3.860962586
26.83518475,-2.367327118,0.06780899048,-1.296004944,2.699715644
26.84518675,-1.247954865,-0.2983296204,-1.052461395,1.659538157
26.85518975,-0.3230282593,-0.5038522339,-1.030756531,1.191920029
26.86519175,0.03742218018,-0.55579422,-0.8972341919,1.056095086
26.87519475,0.3954776001,-0.6053411865,-0.7779322815,1.062082444
26.88519675,0.8806187439,-0.7291337585,-0.6249504089,1.30295373
26.89519975,1.430425415,-0.9789642334,-0.03278182983,1.733655816
26.90520175,1.428030396,-1.038839722,-0.6896159363,1.895792425
26.91520475,1.81826889,-0.7500901794,-0.3508703613,1.997960722
26.92520675,2.177821198,-0.523611145,-0.08801696777,2.241611203
26.93520875,2.103126526,-0.3788621521,-0.1568737793,2.14272889
26.94521175,1.802252197,-0.1276844788,0.0505947876,1.80747784
26.95521375,1.512305145,0.213306427,-0.0209564209,1.52741797
26.96521675,1.364412689,0.4417314148,-0.02065704346,1.434285656
26.97521875,1.257684631,0.527353363,-0.149539032,1.371945379
26.98522175,1.099763031,0.3332070923,0.4451742554,1.23234971
26.99522375,0.24923172,0.260458374,1.499731293,1.542449015
27.00522675,-0.002245330811,0.8861572266,-0.1701960754,0.9023560139
27.01522875,-0.2173480225,0.5511538696,-1.603615265,1.709559203
27.02523075,-0.5254074097,0.2972817993,-1.268013153,1.404381277
27.03523375,-0.08472381592,0.4685256958,-0.2339634705,0.5305029294
27.04523575,-0.1480421448,0.2628533936,0.4270619202,0.522867351
27.05523875,-0.2583627319,0.03442840576,0.2291734314,0.3470692698
27.06524075,-0.2267784119,-0.2245330811,-0.5550457764,0.6402494564
27.07524375,0.001945953369,-0.6179150391,-1.169218597,1.322457905
27.08524575,0.159717865,-1.018631744,-1.533710632,1.848077036
27.09524875,0.3112028503,-1.283281403,-1.485061798,1.987225935
27.10525075,0.2968327332,-1.318009186,-1.147064667,1.772290957
27.11525375,-0.1788780212,-1.228195953,-1.094673615,1.654923856
27.12525575,-1.310824127,-0.5737568665,-0.8979826355,1.689328165
27.13525775,-2.9966185,0.2176473999,-0.6403683472,3.071996817
27.14526075,-4.355642395,0.7713459778,-0.08367599487,4.4242058
27.15526275,-5.927523651,0.9876461792,0.5028044128,6.030239953
27.16526575,-7.584577789,1.585203552,0.8720864868,7.797385805
27.17526775,-10.56742493,2.690505066,1.620679779,11.02433173
27.18527075,-16.61065796,6.916666718,2.406246185,18.15335388
27.19527275,-28.03145828,13.87180344,-0.2305206299,31.27687203
27.20527575,-38.50053772,15.55849594,-1.445693665,41.55055031
27.21527775,-36.22047913,12.56591904,-0.5201683044,38.341831
27.22527975,-33.08944016,9.722132721,0.4180805969,34.49066114
27.23528275,-37.75688416,8.930429077,5.41049881,39.17407768
27.24528475,-40.89825165,8.545279999,8.992849274,42.73827484
27.25528775,-36.86593689,7.139553223,11.12965576,39.16554302
27.26528975,-31.25201111,5.671855316,11.82136734,33.89104405
27.27529275,-42.35247757,5.22563324,12.56277557,44.4844122
27.28529475,-40.49753494,3.034938812,10.25816803,41.88664705
27.29529775,-24.67394028,5.010380859,8.82714386,26.6800621
27.30529975,-19.51701416,5.651198273,6.302942963,21.27385658
27.31530175,-17.65084488,5.425317993,4.903353424,19.10573932
27.32530475,-15.41689041,4.990322571,3.29494812,16.53603678
27.33530675,-13.18712723,4.36671936,2.056872711,14.04276639
27.34530975,-11.75969559,3.444187775,1.920206909,12.40322798
27.35531175,-10.25756927,2.420316925,2.218386841,10.77018577
27.36531475,-7.479945374,1.681752777,1.617686005,7.835482321
27.37531675,-5.056185608,1.151854706,0.7623646545,5.241467546
27.38531975,-3.052452393,0.5801934814,-0.3746708679,3.129611532
27.39532175,-2.035616913,0.2409988403,-1.515747986,2.549374161
27.40532475,-1.408421173,0.2103126526,-1.677411804,2.200361782
27.41532675,-0.3989204407,0.2146536255,-1.318907318,1.394535841
27.42532875,0.5095404053,0.2981799316,-1.531165924,1.641039848
27.43533175,0.7699987793,-0.1685494995,-2.239343262,2.374018807
27.44533375,0.9708810425,-0.5200186157,-2.42675354,2.664988199
27.45533675,1.237476654,-0.6382727051,-1.604064331,2.124091075
27.46533875,1.66858017,-0.7616162109,-1.169368286,2.175233602
27.47534175,1.77500885,-0.7774832153,-0.7984396362,2.095863168
27.48534375,1.82530426,-0.6976991272,-0.1932481384,1.963635546
27.49534675,2.196532288,-0.362845459,0.6071374512,2.307601959
27.50534875,2.423161011,-0.03502716064,0.4574487305,2.466210763
27.51535075,1.930984497,0.0426612854,-0.1365161133,1.936274196
27.52535375,1.53745285,0.01122665405,-0.6283932495,1.660953154
27.53535575,1.419198761,0.03667373657,-1.169068909,1.839073734
27.54535875,1.065783691,0.06406677246,-1.463356934,1.811467069
27.55536075,0.4498146057,0.05164260864,-1.265618134,1.344168664
27.56536375,0.1589694214,0.2414479065,-0.8625064087,0.9096623954
27.57536575,-0.1588197327,0.3119512939,0.5304968262,0.6355817806
27.58536875,-0.3674858093,0.5231620789,2.539469147,2.61871112
27.59537075,-0.6698570251,0.2818638611,2.414628754,2.521624018
27.60537275,0.03248245239,0.5017565918,1.061442719,1.17451072
27.615376,0.6439608765,0.4158352661,-2.294279022,2.418950353
27.625378,-0.1097218323,-0.3272195435,-3.332519989,3.350343413
27.635381,0.03802093506,-0.3520678711,-2.847528534,2.86946269
27.645383,-0.04909790039,-0.4185296631,-1.612147522,1.66631249
27.655386,-0.3128494263,-0.4179309082,-0.09939331055,0.5314320631
27.665388,-0.4267625427,-0.1646575928,0.5495072937,0.7149801791
27.675391,-0.4616400146,-0.0137713623,0.8870553589,1.000084178
27.685393,-0.6333329773,0.003742218018,0.796942749,1.017959925
27.695395,-1.081650696,0.3302133179,0.5824388123,1.27210221
27.705398,-1.277443542,0.9692344666,0.4221221924,1.658150958
27.7154,-1.712738342,1.248852997,0.4397854614,2.164836643
27.725403,-2.28514801,1.437011719,0.955612793,2.863581659
27.735405,-3.766317902,1.599274292,2.043101349,4.573520736
27.745408,-8.480015717,2.113604736,3.244053955,9.322117656
27.75541,-14.50483704,5.919141083,2.954106903,15.94218543
27.765413,-27.79165695,12.70153702,0.07828720093,30.55669105
27.775415,-37.96390366,12.97531769,0.9755213928,40.13188872
27.785418,-38.48212601,10.15877472,3.034190369,39.9159246
27.79542,-36.08171768,8.196056213,5.699248352,37.43724242
27.805422,-34.50968674,7.817493439,8.343050537,36.3543419
27.815425,-38.91547485,7.752229156,12.58777359,41.6288756
27.825427,-36.48677536,7.171137543,14.87262222,40.04878128
27.83543,-20.22234741,5.855523376,10.94239517,23.72691512
27.845432,-30.35028625,7.405550079,11.57722504,33.31687541
27.855435,-51.86534546,8.846902771,14.98773285,54.70753042
27.865437,-43.13220612,8.70424942,11.70565796,45.53211604
27.87544,-21.67163361,6.659950562,7.666158142,23.93291928
27.885442,-15.74770248,5.563630371,5.850583649,17.69670719
27.895444,-15.50954773,5.656736755,4.829706573,17.20089553
27.905447,-15.81476303,5.434598694,4.331093445,17.27425724
27.915449,-14.88699234,4.528981934,3.72440506,16.0001691
27.925452,-13.13683182,3.366199951,3.170706482,13.92698933
27.935454,-10.97936829,2.476749573,2.84453476,11.60914271
27.945457,-8.870553589,1.8791922,2.264341278,9.345872122
27.955459,-7.206314392,1.449884949,1.407223663,7.484210842
27.965462,-5.58832901,1.163829803,0.5983058167,5.73950266
27.975464,-4.031266937,0.8563691711,-0.1179547119,4.122910937
27.985466,-2.803220673,0.5495072937,-0.946481781,3.009290974
27.995469,-1.709894257,0.1381626892,-1.647324371,2.378340783
28.005471,-0.5614823914,-0.2396516418,-2.121837616,2.207915364
28.015474,0.1481918335,-0.4098477173,-2.227966919,2.270192186
28.025476,0.9162446594,-0.4020639038,-2.799927521,2.973340509
28.035479,1.17131424,-0.7942483521,-3.69626358,3.957925207
28.045481,0.9877958679,-1.094374237,-2.309547272,2.739964279
28.055484,1.10335556,-1.099313965,-0.702638855,1.708679621
28.065486,1.94355835,-1.194216614,-0.4098477173,2.317659926
28.075489,2.334395599,-1.11622879,-0.01077758789,2.587563658
28.085491,2.68062561,-0.7457492065,-0.3468287659,2.80395894
28.095493,2.901266785,-0.4300556946,0.452359314,2.967646509
28.105496,3.770808563,-0.05673202515,-0.1444496155,3.77400072
28.115498,3.284619598,0.1785786438,-0.7478448486,3.373408981
28.125501,2.482587433,0.3281176758,-1.20753891,2.780117226
28.135503,1.506916351,-0.1755848694,-2.254910889,2.717765636
28.145506,0.6885681152,-0.2561174011,-1.278641052,1.474667797
28.155508,-0.001796264648,-0.4188290405,1.340013428,1.403943367
28.165511,-0.3818559265,0.0983454895,2.110461273,2.146982201
28.175513,0.3541635132,1.351240082,0.06750961304,1.398513175
28.185515,0.1390608215,0.866098938,-1.837728424,2.036347476
28.195518,0.1221459961,0.5685177612,-1.048719177,1.199143028
28.20552,0.417481842,0.8267308044,-0.1199006653,0.9338902939
28.215523,0.04311035156,0.8759783936,-0.4812492371,1.000398659
28.225525,0.05104385376,0.6119274902,-0.665665741,0.905633263
28.235528,-0.0173638916,0.212258606,-0.3135978699,0.3790763044
28.24553,-0.1636097717,0.02035766602,0.006137237549,0.1649856286
28.255533,-0.3471281433,-0.05822891235,0.06780899048,0.358450294
28.265535,-0.5754034424,-0.07200027466,0.1230441284,0.5928009941
28.275537,-1.046324158,0.01556762695,0.08666976929,1.050022973
28.28554,-1.203048248,0.3432362366,0.1335223389,1.258159138
28.295542,-1.574425964,0.8198451233,0.3617976379,1.811590648
28.305545,-2.315684509,1.184037781,0.9225315857,2.759602279
28.315547,-3.41080719,1.391506348,1.135688324,3.854826011
28.32555,-8.720266113,1.525178375,1.977837067,9.070890233
28.335552,-16.10036911,3.251538391,3.251538391,16.74415986
28.345555,-25.95078506,10.82084793,1.521286469,28.15756218
28.355557,-37.05304779,16.46052017,-1.434916077,40.57013753
28.36556,-38.53481644,12.60259277,1.953437805,40.59031093
28.375562,-32.45371216,10.47865952,4.356839905,34.38063106
28.385564,-32.79679871,10.56443115,8.443042603,35.47565615
28.395567,-39.84608963,10.58868073,11.88678131,42.90835103
28.405569,-44.89583862,9.918674011,14.03376663,48.0724768
28.415572,-41.51137665,7.914342041,13.9744899,44.5097469
28.425574,-19.72044113,5.346432037,7.699987793,21.83506231
28.435577,-17.89274185,4.894671478,4.15026947,19.00875473
28.445579,-38.55682068,7.151378632,6.436465302,39.73913339
28.455582,-49.74320847,8.291856995,9.836644592,51.37996942
28.465584,-29.68297394,6.860683136,9.186995544,31.82057199
28.475586,-15.82628906,5.445376282,5.772895203,17.70451545
28.485589,-12.89328827,4.934488678,4.283941498,14.45469528
28.495591,-11.52618118,4.318968658,3.397185516,12.76899418
28.505594,-10.41878403,3.600462799,2.186952209,11.23820061
28.515596,-9.052275696,2.588117981,1.152603149,9.485280385
28.525599,-7.344177704,1.561103668,-0.05972579956,7.50849905
28.535601,-5.610033875,0.5709127808,-1.165326691,5.758160103
28.545604,-3.83203125,-0.09490264893,-1.638492737,4.168708249
28.555606,-2.315235443,-0.5789959717,-1.894610138,3.047146053
28.565608,-0.8388555908,-0.7915539551,-2.437830505,2.696897095
28.575611,0.3061134338,-0.8231382751,-3.54298233,3.650203535
28.585613,1.187330933,-0.5906716919,-3.152294769,3.419884516
28.595616,1.070274353,-0.9621990967,-2.935096436,3.268960902
28.605618,0.7716453552,-1.203048248,-1.464404755,2.046275379
28.615621,1.849104767,-1.23328537,-1.281335449,2.565541225
28.62562229,2.212548981,-1.039737854,-0.6325845337,2.525191278
28.63562529,2.372416534,-0.9285191345,-0.04176315308,2.547989827
28.64562729,2.761307831,-0.7866142273,-0.0549357605,2.87168954
28.65563029,2.796634369,-0.6411167908,-0.1052311707,2.871109216
28.66563229,2.765648804,-0.3249742126,-0.3179388428,2.802767677
28.67563429,2.836900635,0.2215393066,-0.9785151672,3.009082386
28.68563729,2.338586884,0.5941145325,-1.252744904,2.718700146
28.69563929,2.190245361,0.4403842163,-0.7327262878,2.351170095
28.70564229,0.6529421997,-0.2038760376,-0.177381134,0.7066562259
28.71564429,-0.4095483398,-0.139360199,0.2865042114,0.5188793414
28.72564729,-0.195643158,0.09415420532,0.5297483826,0.5725160334
28.73564929,-0.4267625427,0.3122506714,0.3314108276,0.624067213
28.74565229,-0.5638774109,0.3814068604,0.5664221191,0.8855862153
28.75565429,-0.4840933228,0.4652325439,1.0776091,1.269657055
28.76565629,-0.3724255371,0.6587800598,0.199385376,0.7825895962
28.77565929,-0.3243754578,0.6081852722,-0.8922944641,1.127518591
28.78566129,-0.02005828857,0.6174659729,-0.8819659424,1.076814973
28.79566429,-0.06316864014,0.6489006042,-0.3356021118,0.7332741975
28.80566629,-0.08442443848,0.5023553467,0.1951940918,0.5455172899
28.81566929,0.1044827271,0.2975811768,0.5153782654,0.6042234301
28.82567129,-0.004041595459,0.1567240906,0.2014810181,0.255290767
28.83567429,-0.120050354,-0.07170089722,-0.08502319336,0.1636522214
28.84567629,-0.1197509766,-0.3930825806,-0.2986289978,0.5079699694
28.85567829,-0.1743873596,-0.5266049194,-0.6635700989,0.8648982417
28.86568129,-0.5180726624,-0.3838018799,-0.6715036011,0.9309244076
28.87568329,-1.350491638,0.155975647,-0.302820282,1.392787202
28.88568629,-2.069745941,0.9449848938,0.2779719543,2.292185228
28.89568829,-2.586920471,1.407073975,1.054706726,3.12800591
28.90569129,-2.958896942,1.700463867,1.494941254,3.725788216
28.91569329,-4.730013885,1.715283051,2.257006531,5.514463327
28.92569629,-7.691754913,1.733994141,2.636317749,8.313843912
28.93569829,-14.92546234,4.007765808,4.265978851,16.03216107
28.94570129,-25.43211365,12.92547134,1.269360352,28.55646144
28.95570329,-42.56877777,17.6851236,-0.338745575,46.09749653
28.96570529,-47.10629196,12.36743179,2.825673981,48.78463431
28.97570829,-41.82452545,9.053622894,5.069208527,43.09241107
28.98571029,-39.18102264,8.128396912,7.682025146,40.74600449
28.99571329,-42.33002426,7.876021729,12.47924927,44.82849913
29.00571529,-32.67495209,7.593708801,13.6625386,36.22129026
29.01571829,-23.93238235,6.476731567,11.76972473,27.44509787
29.02572029,-45.18159439,6.622229004,10.67879333,46.89634331
29.03572329,-46.82248215,5.994733887,9.047635345,48.06393007
29.04572529,-26.78724564,7.257058868,7.145840149,28.65806106
29.05572729,-21.67372925,7.379204865,6.392905884,23.77125259
29.06573029,-22.33610184,7.381450195,6.974446564,24.53630284
29.07573229,-17.7274855,6.906338196,6.331533508,20.05117368
29.08573529,-14.71080872,5.270539856,5.369184723,16.5231543
29.09573729,-13.3428035,3.155138855,4.618046722,14.46760733
29.10574029,-13.07530975,1.778900757,4.461322632,13.92952306
29.11574229,-11.52034332,1.959425354,3.798650665,12.28769323
29.12574529,-9.230554962,2.198478241,2.950065308,9.936766919
29.13574729,-7.099137268,2.099683685,1.671573944,7.58950466
29.14574929,-5.210065613,1.873504028,0.1981878662,5.540223774
29.15575229,-3.7384758,1.403032379,-1.475781097,4.257068358
29.16575429,-2.53318222,0.9053173828,-2.49111969,3.666372735
29.17575729,-1.207239532,0.2504292297,-1.954335938,2.310751186
29.18575929,-0.03053649902,-0.28081604,-2.705174561,2.719882264
29.19576229,0.697250061,-0.6765930176,-3.070864105,3.220891509
29.20576429,0.8244854736,-1.078207855,-2.953657837,3.25060042
29.21576729,0.9976753235,-1.37249588,-1.068927155,2.005419221
29.22576929,1.271755371,-1.611099701,-0.08217910767,2.054204804
29.23577129,1.694027252,-1.589095459,-0.1793270874,2.329616044
29.24577429,1.928140411,-1.362616425,-0.1314266968,2.364682208
29.25577629,1.970801697,-0.9268725586,-0.239052887,2.190958318
29.26577929,2.04295166,-0.5433700562,0.4052073669,2.152462663
29.27578129,2.424957275,-0.2469863892,0.1440005493,2.441752695
29.28578429,2.288890228,0.3787124634,-0.8604107666,2.474418779
29.29578629,1.950743408,0.6128256226,-1.977837067,2.844783744
29.30578929,1.281036072,0.4260140991,-1.740580444,2.202762292
29.31579129,1.220561829,0.3647914124,-1.239721985,1.777569844
29.32579329,1.042282562,0.2891986084,-0.8084687805,1.35041125
29.33579629,0.7170089722,0.4083508301,-0.1112187195,0.8325994656
29.34579829,0.08831634521,0.528999939,0.359103241,0.6454423676
29.35580129,-0.02305206299,0.5908213806,0.4704716492,0.7556089426
29.36580329,0.1297801208,0.5869294739,0.3177891541,0.6799404632
29.37580629,0.3207829285,0.4417314148,-0.09385482788,0.5539287488
29.38580829,0.3071612549,0.336051178,-0.3957769775,0.6032560374
29.39581129,0.4242178345,0.2559677124,-0.2525248718,0.556101656
29.40581329,0.5297483826,-0.04655319214,-0.1874102783,0.5638467531
29.41581629,0.4061054993,-0.5162763977,0.193996582,0.6849070515
29.42581829,0.3266207886,-0.3341052246,0.3418890381,0.5789607543
29.43582029,0.2737806702,-0.3299139404,0.2957849121,0.5208529329
29.44582329,-0.03338058472,-0.3881428528,0.06990463257,0.3957976696
29.45582529,-0.0260458374,-0.1919009399,0.02978805542,0.1959379612
29.46582829,-0.1188528442,-0.1333726501,-0.07679031372,0.1944505456
29.47583029,-0.5453160095,-0.09565109253,-0.8041278076,0.9762890006
29.48583329,-0.973276062,0.2315684509,-1.59134079,1.879695653
29.49583529,-1.771715698,0.5577401733,-1.565294952,2.429032504
29.50583829,-2.67838028,0.8568182373,-0.9512718201,2.968632091
29.51584029,-3.071163483,1.139430542,-0.06900650024,3.276447618
29.52584229,-3.986210632,1.417851562,0.693507843,4.28732217
29.53584529,-6.072871399,1.720971222,1.337468719,6.452157124
29.54584729,-16.25170441,2.764301605,3.149300995,16.7832463
29.55585029,-28.53665771,9.174421692,2.66071701,30.0930268
29.56585229,-41.1908931,17.32182907,-2.209854584,44.73945567
29.57585529,-44.94748123,15.73917023,-1.323697357,47.64189042
29.58585729,-33.08435074,10.20128632,0.03981719971,34.62141089
29.59586029,-31.84148529,7.552394714,4.37495224,33.01604244
29.60586229,-36.32376434,9.169182587,7.472311249,38.20111518
29.61586429,-45.70325958,10.89344696,10.14320709,48.06599394
29.6258675,-42.97862549,12.41638,10.96829132,46.0611784
29.6358695,-20.53804092,8.128097534,8.948541412,23.83177475
29.6458725,-24.5727507,6.019282837,9.124126282,26.89426562
29.6558745,-41.16484726,5.291047211,10.7921077,42.88367311
29.6658775,-40.26042801,4.301006012,11.2989537,42.03649689
29.6758795,-24.49416412,6.600823517,9.038055267,26.92993484
29.6858825,-16.7799559,6.279142456,5.384902039,18.70806564
29.6958845,-13.72885071,5.959107971,3.252586212,15.31573135
29.7058875,-10.95287338,4.891977081,2.148033142,12.18650571
29.7158895,-9.452094269,3.58279953,1.489103394,10.21743449
29.7258915,-8.783584442,2.342927856,1.425934753,9.201845278
29.7358945,-8.02795578,1.63924118,1.627266083,8.353632776
29.7458965,-6.461912384,1.185983734,1.744023285,6.797388197
29.7558995,-4.691244507,0.7081773376,1.31636261,4.923626782
29.7659015,-3.226240997,0.4614903259,0.5149291992,3.299508505
29.7759045,-2.153122559,0.2022294617,-0.5589376831,2.233661756
29.7859065,-1.428329773,-0.2194436646,-1.341660004,1.971885653
29.7959085,-0.6140231323,-0.5019062805,-1.282982025,1.508302754
29.8059115,-0.007783813477,-0.6915618896,-1.165326691,1.355103218
29.8159135,0.6265969849,-0.8027806091,-1.270408173,1.628194525
29.8259165,1.757046204,-0.9259744263,-1.992057495,2.812993612
29.8359185,1.706750793,-1.184935913,-2.786156158,3.47559168
29.8459215,1.541644135,-1.239871674,-1.856589203,2.713092677
29.8559235,1.887724457,-0.9946815491,-0.9162446594,2.322154018
29.8659265,2.376607819,-0.510737915,0.9928852844,2.62582161
29.8759285,2.836002502,-0.1255888367,0.09969268799,2.840531884
29.8859315,2.463576965,0.3017724609,0.08367599487,2.483400844
29.8959335,1.770518188,0.4079017639,-0.1255888367,1.82123339
29.9059355,1.491648102,0.2860551453,-0.3893403625,1.567937347
29.9159385,1.113833771,0.1038839722,-0.5490582275,1.246147056
29.9259405,0.8108638,0.01092727661,-0.5614823914,0.9863478004
29.9359435,0.7773335266,0.02499801636,-0.3327580261,0.8459315672
29.9459455,0.3546125793,-0.1121168518,0.7247927856,0.8146440032
29.9559485,-0.3712280273,-0.5870791626,3.022514648,3.101300855
29.9659505,0.7173083496,-0.1832189941,0.7734416199,1.0706598
29.9759535,0.9006770325,0.4926255798,-1.010548553,1.440523328
29.9859555,-0.4596940613,0.1389111328,0.09160949707,0.4888836597
29.9959575,-0.2347119141,0.5583389282,0.5911207581,0.8463189659
