Time (s),Acceleration x (m/s^2),Acceleration y (m/s^2),Acceleration z (m/s^2),Absolute acceleration (m/s^2)
10.00148779,0.330662384,-1.057999878,-0.5056484985,1.218352067
10.01149079,0.5105882263,-1.303040314,-1.049168243,1.749105028
10.02149279,0.5261558533,-1.370100861,-1.764380951,2.295006861
10.03149579,0.6617738342,-1.318458252,-1.977986755,2.467530825
10.04149879,0.8894503784,-1.178648987,-2.070943451,2.543450842
10.05150079,1.00515976,-1.038839722,-2.589165802,2.965352198
10.06150379,1.379381561,-0.8493338013,-3.203937378,3.590163801
10.07150579,1.753303986,-0.5093907166,-3.640429688,4.072625944
10.08150879,2.395917664,-0.7945477295,-4.16898056,4.873615337
10.09151179,1.615740051,-1.923500061,-1.322499847,2.838921317
10.10151379,-0.1290316772,-3.865112457,6.435716858,7.508275099
10.11151679,1.441801758,-6.077062683,5.466332703,8.300016649
10.12151979,8.209677887,-11.83364182,-13.99245255,20.08040383
10.13152179,7.087012482,-21.50383255,-13.43111984,26.32556819
10.14152479,4.406686249,-33.05890366,-15.06452316,36.59576277
10.15152779,6.391858063,-44.52221558,-33.68639877,56.19481285
10.16152979,7.609276428,-42.27883072,-21.6544194,48.10732267
10.17153279,4.9540979,-29.90286667,-9.475146332,31.75693498
10.18153579,4.938230896,-21.9397261,-2.38933136,22.61518539
10.19153779,6.486611023,-21.63930084,-3.453468475,22.8530503
10.20154079,7.110962677,-22.59760803,-6.841822357,24.65822808
10.21154379,9.441316681,-24.84293884,-11.04253693,28.77929278
10.22154579,8.947044525,-27.81455933,-12.1098175,31.62826262
10.23154879,8.674611053,-29.02883423,-11.79442337,32.51200572
10.24155079,8.294252014,-28.56764328,-11.26242966,31.80797354
10.25155379,6.594386902,-26.83649323,-10.45111679,29.54503595
10.26155654,4.00641861,-24.34657104,-8.836125183,26.20847229
10.27155854,1.896256714,-20.71587112,-7.770640869,22.20643973
10.28156154,0.5902226257,-16.30274826,-5.927523651,17.35694386
10.29156454,0.9084608459,-12.09185486,-3.433559875,12.6026818
10.30156654,1.491348724,-8.208480377,-2.431244202,8.6898918
10.31156954,0.7788304138,-5.062023468,-1.744172974,5.410434157
10.32157254,0.992585907,-3.378474426,-1.44269989,3.80535139
10.33157454,2.074236603,-2.417323151,-1.404529266,3.481179564
10.34157754,2.595003662,-1.014739838,-1.576970673,3.201652299
10.35158054,1.992955627,-0.1206491089,-1.478924561,2.484682313
10.36158254,0.9102571106,0.3359014893,-0.955612793,1.361834655
10.37158554,0.6295907593,0.8994795227,0.1399589539,1.106813645
10.38158754,0.7247927856,1.333576813,1.035696259,1.837503316
10.39159054,0.6809339905,1.616039429,1.50122818,2.308449822
10.40159354,0.4544549561,1.774559784,1.903142395,2.641503873
10.41159554,0.203127594,1.694925385,2.265538788,2.836670386
10.42159854,-0.05224136353,1.474433899,2.034868469,2.513438714
10.43160154,-0.3420387268,0.9913883972,1.398691406,1.748193094
10.44160354,-0.6732998657,0.4264631653,0.9740245056,1.258541727
10.45160654,-0.8137078857,-0.04954696655,0.8896000671,1.20663321
10.46160954,-0.7777825928,-0.4369413757,0.8214916992,1.212729211
10.47161154,-0.8433462524,-0.6535409546,0.7908055115,1.328051971
10.48161454,-0.9195378113,-0.7815248108,0.6828799438,1.386598656
10.49161754,-0.852177887,-0.8771759033,0.3751199341,1.279202752
10.50161954,-0.5445675659,-0.9151968384,0.1199006653,1.071688041
10.51162254,-0.1215472412,-0.9217831421,-0.1266366577,0.9383468101
10.52162454,0.3240760803,-0.8943901062,-0.5523513794,1.100023188
10.53162754,0.7903564453,-0.9190887451,-1.195414124,1.702469488
10.54163054,1.121467896,-0.9499246216,-1.80539566,2.32798207
10.55163254,1.482068024,-0.8631051636,-1.803898773,2.489081544
10.56163554,1.846859436,-0.6622229004,-1.5527211,2.502073492
10.57163854,1.721120911,-0.5307962036,-1.215472412,2.172872519
10.58164054,1.118025055,-0.6930587769,-1.196911011,1.778456201
10.59164354,0.7438032532,-0.9484277344,-1.343605957,1.805002885
10.60164654,0.573457489,-0.9680369568,-1.336869965,1.747332351
10.61164854,0.0730480957,-0.9101074219,-1.216520233,1.521036824
10.62165154,-0.6161187744,-0.9993218994,-1.783391418,2.135118628
10.63165354,-0.5237608337,-1.357077942,-3.332819366,3.636436564
10.64165654,0.7219487,-2.082619171,-2.752176819,3.526044495
10.65165954,2.29682373,-3.424728241,2.818937988,4.99505497
10.66166154,4.293970642,-5.555696869,6.443800049,9.530294363
10.67166454,13.27559326,-12.50065475,-12.03272781,21.84706581
10.68166754,9.932595062,-24.55613525,-7.417525177,27.50781531
10.69166954,2.749033356,-33.01040451,-9.15945282,34.3677111
10.70167254,13.33621719,-40.54259125,-16.17521347,45.64201929
10.71167554,10.8450975,-36.00881927,-4.071682892,37.82631104
10.72167754,4.750072174,-28.05750412,-14.17851563,31.79334881
10.73168054,5.497168579,-26.17771317,-11.04897354,28.94082489
10.74168354,9.851164398,-24.7665976,-7.711513824,27.74702222
10.75168554,14.37071594,-26.06409943,-10.82563797,31.67095188
10.76168854,14.59854218,-28.93557816,-12.86155426,34.86839106
10.77169054,10.51907547,-30.62511475,-13.17470306,34.958853
10.78169354,6.356082458,-30.77929413,-12.47715363,33.8148502
10.79169654,3.907474365,-29.61037491,-10.79375427,31.75764143
10.80169854,1.617686005,-26.6815654,-9.313332825,28.30655416
10.81170154,0.01392105103,-22.14524872,-7.845634918,23.49396139
10.82170454,0.1067280579,-17.00763245,-5.792803802,17.96740182
10.83170654,2.027533722,-11.91133026,-5.097050629,13.11375639
10.84170954,2.192490692,-7.790998535,-3.896996155,8.982942315
10.85171254,0.3210823059,-5.393733673,-3.072061615,6.215546585
10.86171454,-0.3272195435,-3.692072296,-1.616937561,4.043879022
10.87171754,0.1273851013,-2.639012146,-0.7131170654,2.736630779
10.88172054,0.2252815247,-2.294279022,-1.022823029,2.522029925
10.89172254,-0.1076261902,-1.700463867,-2.03831131,2.65666591
10.90172554,-0.0004490661621,-1.191821594,-2.096390533,2.411491692
10.91172754,0.1609153748,-0.4869374084,-0.5968089294,0.7868816276
10.92173054,0.5050497437,0.4858895874,0.3686833191,0.7918909802
10.93173354,0.5911207581,1.180894318,0.9627978516,1.634293377
10.94173554,0.550405426,1.484463043,1.730850677,2.345723924
10.95173854,0.6111790466,1.783840485,1.968256989,2.725740684
10.96174154,0.8795709229,1.82530426,1.88383255,2.766623525
10.97174354,1.231788483,1.217418365,1.265318756,2.144864074
10.98174654,1.507515106,0.2880010986,0.9527687073,1.806464679
10.99174954,1.504970398,-0.1613644409,1.141825562,1.895979956
11.00175154,1.189725952,-0.4493655396,1.267863464,1.795788126
11.01175454,0.7972421265,-0.4763095093,1.101259918,1.440569042
11.02175654,0.6246510315,-0.5239105225,0.7685018921,1.120386676
11.03175954,0.5953120422,-0.4808001709,0.2920426941,0.8190568766
11.04176254,0.813558197,-0.2981799316,-0.1426533508,0.8781447432
11.05176454,1.34914444,-0.100740509,-0.5896238708,1.475803401
11.06176754,1.806293793,-0.005987548828,-1.088536377,2.108943944
11.07177054,1.752555542,-0.03502716064,-1.443448334,2.270731363
11.08177254,1.237476654,-0.1667532349,-1.534608765,1.97842846
11.09177554,0.7957452393,-0.2423460388,-1.565893707,1.773123005
11.10177854,0.7333250427,-0.2430944824,-1.530716858,1.714629594
11.11178054,0.7382647705,-0.3400927734,-1.240919495,1.483434919
11.12178354,0.7756869507,-0.56866745,-0.4436773682,1.059208441
11.13178654,0.776585083,-0.9571096802,-0.1986369324,1.24843901
11.14178854,0.5435197449,-1.289268951,-0.5432203674,1.50090523
11.15179154,0.3104544067,-1.440903625,-1.167122955,1.880096059
11.16179354,0.05897735596,-1.551224213,-2.075134735,2.591516748
11.17179654,-0.2965333557,-1.710043945,-3.291954346,3.72144404
11.18179954,-0.6581813049,-1.80195282,-4.070934448,4.500304865
11.19180154,-1.25079895,-1.920206909,-3.058439941,3.821746651
11.20180454,-2.506238251,-2.352957001,1.507814484,3.753816902
11.21180754,-2.543959808,-2.893782349,6.305337982,7.389383929
11.22180954,-0.7735913086,-4.031266937,6.78883255,7.933334988
11.23181254,5.641468506,-6.916666718,-10.29663803,13.62670907
11.24181554,13.01139267,-17.79529449,-20.95222961,30.41323349
11.25181754,6.836283875,-35.25708252,-7.920628967,36.77679986
11.26182042,8.185578003,-42.44288956,-9.035959625,44.15938323
11.27182242,20.12669632,-40.60501144,-21.34680908,50.09528039
11.28182542,15.14924698,-29.57879059,-25.79480942,42.06871438
11.29182842,9.157357178,-24.62124985,-14.14767975,29.83655437
11.30183042,11.22291183,-19.46267715,-10.60724213,24.84478089
11.31183342,12.06550964,-20.63099762,-12.42371475,26.93628174
11.32183642,10.86066513,-25.0399292,-12.74674301,30.12360468
11.33183842,5.356760559,-27.16206619,-13.42737762,30.76958228
11.34184142,3.391946411,-28.15764587,-12.86409897,31.14230826
11.35184442,5.25602005,-29.00218964,-12.70303391,32.09547976
11.36184642,7.015910339,-27.74690002,-11.73260193,30.93165703
11.37184942,7.770940247,-24.87976227,-10.1656604,27.97732536
11.38185242,7.635621643,-20.85163879,-8.140072632,23.65067316
11.39185442,7.59146347,-15.66537369,-6.99360672,18.76019151
11.40185742,7.006629639,-10.87787933,-5.438640289,14.03566621
11.41185942,5.68427948,-6.720424805,-4.147874451,9.730365112
11.42186242,3.984414368,-3.916306,-3.859873352,6.790554678
11.43186542,1.280287628,-2.83510437,-2.897823944,4.251392338
11.44186742,-0.5671705627,-1.910028076,-2.049388275,2.858300544
11.45187042,-1.300196228,-1.214125214,-2.155966644,2.795139073
11.46187342,-1.32100296,-1.194965057,-2.609373779,3.159402132
11.47187542,-1.12206665,-0.9987231445,-2.008373566,2.507996385
11.48187842,-0.8750802612,-0.05777984619,0.08277786255,0.8808837317
11.49188042,-0.596509552,1.050216064,2.24188797,2.546534723
11.50188342,-0.216000824,1.601968689,3.233426056,3.614969446
11.51188642,-0.08592132568,1.849553833,3.466491394,3.92998657
11.52188842,0.1281335449,1.914818115,2.68766098,3.302494234
11.53189142,0.7771838379,1.390907593,1.42862915,2.140004649
11.54189442,1.293160858,0.2653981018,0.8710386658,1.581584495
11.55189642,1.365759888,-0.5135820007,0.7179071045,1.626178697
11.56189942,1.432071991,-0.7113208008,0.4272116089,1.655088284
11.57190242,1.82186142,-1.052611084,-0.1158590698,2.107271328
11.58190442,3.673211517,-1.312470703,-3.883673859,5.504360529
11.59190742,4.558021545,-0.8044271851,-3.993695068,6.113285843
11.60190942,2.506687317,-0.5685177612,-0.1731898499,2.576177104
11.61191242,0.2972817993,-0.6200106812,0.4188290405,0.8051133325
11.62191542,-0.3529660034,-0.4104464722,0.1185534668,0.5541716616
11.63191742,0.03487747192,0.06915618896,-0.3302133179,0.3391752524
11.64192042,0.133971405,0.5694158936,-0.4510121155,0.7386438421
11.65192342,0.0636177063,0.82373703,-0.3522175598,0.8981353554
11.66192542,0.02335144043,0.7990383911,-0.4299060059,0.9076490589
11.67192842,0.216000824,0.5436694336,-0.7282356262,0.9341091672
11.68193142,0.2811154175,0.1547781372,-0.9632469177,1.015296397
11.69193342,-0.05448669434,-0.2778222656,-0.9487271118,0.9900692621
11.70193642,-0.5818400574,-0.7665559387,-0.9160949707,1.328674473
11.71193842,-1.266965332,-1.154698792,-1.413211212,2.221642721
11.72194142,-1.609902191,-1.819616089,-1.873054962,3.067755314
11.73194442,-1.480720825,-2.335742798,-1.639091492,3.214786073
11.74194642,-1.630110168,-2.34951416,-1.233884125,3.114473629
11.75194942,-1.700912933,-2.029479675,-0.5237608337,2.699299533
11.76195242,-1.644330597,-1.620829468,1.251397705,2.626196392
11.77195442,-1.627415771,-1.853296051,3.260968781,4.088655737
11.78195742,-1.211281128,-2.026485901,3.590134277,4.296848986
11.79196042,-0.2805166626,-2.42795105,3.144211578,3.98242418
11.80196242,2.132465515,-3.840713196,-0.5125341797,4.422802088
11.81196542,9.517957306,-7.560627594,-12.85002823,17.68835285
11.82196742,8.760981445,-14.06056091,5.351371765,17.40951891
11.83197042,4.075275421,-21.0652446,9.793085175,23.58509947
11.84197342,12.97561707,-32.62076477,-21.70052353,41.27218984
11.85197542,14.1695343,-43.82930649,-18.12011902,49.49871233
11.86197842,15.20014114,-54.21291367,-33.91946411,65.73138021
11.87198142,10.97353043,-46.40200653,-39.07130081,61.6452036
11.88198342,3.343896332,-26.27650772,-8.384364624,27.78370153
11.89198642,6.047574005,-17.0229007,-5.027744751,18.75181369
11.90198942,12.12284042,-13.85354141,-8.733438721,20.37539746
11.91199142,14.63566498,-12.84987854,-11.78559174,22.76449517
11.92199442,13.08728485,-14.06265656,-17.49247421,25.98118527
11.93199742,9.261690216,-18.80973495,-14.2491687,25.3500265
11.94199942,7.512727203,-24.10197968,-10.19155655,27.2252515
11.95200242,5.698649597,-28.22964615,-8.93477005,30.15323606
11.96200442,3.571423187,-27.68762329,-8.162825317,29.08592897
11.97200742,4.532125397,-23.35727829,-6.511459351,24.66782748
11.98201042,5.997128906,-17.1887558,-3.65420105,18.56803884
11.99201242,5.196144562,-11.95713501,-1.524429932,13.12619071
12.00201542,3.647465057,-8.594826965,-0.8297245789,9.373552944
12.01201842,1.249900818,-6.486311646,-0.5881269836,6.631770817
12.02202042,-1.608405304,-5.638774109,-0.8187973022,5.920571771
12.03202342,-3.125500488,-4.645589447,-1.642684021,5.835123427
12.04202542,-2.527494049,-2.741698608,-2.947670288,4.753303857
12.05202842,-1.068029022,-0.9913883972,-3.138673096,3.460463227
12.06203142,-0.8005352783,-0.9397457886,-2.855162659,3.110616127
12.07203342,-1.161734161,-0.7041357422,-0.6045927429,1.48693167
12.08203642,-0.9592053223,-0.04685256958,1.440903625,1.731610023
12.09203942,-0.720302124,0.6077362061,1.950144653,2.165927657
12.10204142,-0.7348219299,1.203048248,1.535506897,2.084483098
12.11204442,-0.8346643066,1.453926544,0.4721182251,1.741683817
12.12204742,-0.7343728638,1.196312256,-0.5644761658,1.512977151
12.13204942,-0.1348695374,0.06212081909,-2.10147995,2.106719433
12.14205242,1.277593231,-1.20873642,-3.189866638,3.642600358
12.15205542,2.584974518,-1.615590363,-3.391048279,4.559762484
12.16205742,3.408561859,-1.724414063,-2.627037048,4.636078241
12.17206042,1.63460083,-1.416654053,-0.4318519592,2.205748103
12.18206242,-0.5619314575,-1.578617249,1.440753937,2.209880378
12.19206542,-0.7021897888,-1.445394287,1.639690247,2.295826485
12.20206842,-0.2189945984,-0.2618055725,1.281335449,1.326017091
12.21207042,-0.0643661499,0.7818241882,0.7536827087,1.087855546
12.22207342,0.3709286499,1.253493347,0.1251397705,1.313199755
12.23207642,1.041833496,1.300645294,-0.6343807983,1.783124845
12.24207842,1.624871063,1.247805176,-1.757046204,2.698969264
12.25208142,2.1459375,1.257984009,-2.757116547,3.713389715
12.26208408,1.993255005,1.115031281,-2.927162933,3.712767581
12.27208708,1.086141357,0.5727090454,-2.457589417,2.747261262
12.28209008,0.1327738953,0.06421646118,-1.707050171,1.713409743
12.29209208,-0.339793396,-0.1411564636,-0.5393284607,0.6528858152
12.30209508,-0.5806425476,-0.3733236694,0.5551954651,0.8858658672
12.31209808,-0.4905299377,-0.8768765259,1.053359528,1.455712319
12.32210008,-0.4569996643,-1.362167358,1.322050781,1.952477112
12.33210308,-0.4697232056,-1.754202118,1.61708725,2.431632401
12.34210608,-0.4858895874,-1.952689362,1.629212036,2.589095652
12.35210808,-0.8375083923,-2.06869812,1.245859222,2.555992453
12.36211108,-0.878972168,-2.201621704,0.9822573853,2.566039706
12.37211308,-0.5563929749,-2.032772827,2.049537964,2.939786451
12.38211608,-0.02514770508,-2.25356369,4.142335968,4.715732073
12.39211908,1.08703949,-3.159330139,3.929777985,5.158117563
12.40212108,5.298681335,-6.126759338,-6.882537689,10.62932401
12.41212408,9.62977478,-14.52444626,-11.49265091,20.87517967
12.42212708,8.805438995,-23.67536682,7.341782684,26.30514252
12.43212908,13.9505397,-35.00605453,-14.14453629,40.2505816
12.44213208,20.27518753,-50.33432922,-25.94689316,60.14872561
12.45213508,15.1622699,-48.91587891,-23.43706238,56.32009881
12.46213708,8.991951141,-32.15747818,-46.54151642,57.28063668
12.47214008,5.346282349,-25.25428345,-12.67818558,28.75931079
12.48214208,8.953780518,-22.60778687,-8.0794487,25.623421
12.49214508,11.81283508,-24.08371765,-13.78992371,30.16173941
12.50214808,11.09432922,-24.25945221,-8.910819855,28.12486218
12.51215008,9.366172943,-25.17015839,-10.81785416,28.95320427
12.52215308,9.071735229,-26.72332855,-12.77503418,30.97796261
12.53215608,8.876541138,-26.70431808,-11.29401398,30.32273633
12.54215808,7.638914795,-24.34432571,-9.209598541,27.12592706
12.55216108,6.004164276,-19.66610413,-8.006999359,22.06621125
12.56216308,4.296964417,-15.35012924,-6.434968414,17.19008986
12.57216608,2.604134674,-11.30778534,-4.773722992,12.54734864
12.58216908,1.595681763,-6.851701813,-3.12056076,7.696097549
12.59217108,0.1893562317,-4.101021881,-1.861528931,4.507718515
12.60217408,-0.2510279846,-2.846331024,-1.036145325,3.039442791
12.61217708,-0.1767823792,-1.947599945,-0.143102417,1.9608355
12.62217908,-0.2314187622,-1.949695587,-0.6466552734,2.067130999
12.63218208,0.1523831177,-1.125509491,-2.221679993,2.495166171
12.64218508,0.2573149109,-0.1462458801,-1.775158539,1.799662929
12.65218708,0.7066804504,0.4468208313,0.02035766602,0.8363375807
12.66219008,0.9160949707,1.035995636,1.709594879,2.198916007
12.67219308,0.7601193237,1.661993866,2.529140625,3.120345702
12.68219508,0.4790039062,1.981429596,1.957479401,2.82616942
12.69219808,0.7432044983,1.927841034,0.6798861694,2.175125096
12.70220008,1.767674103,0.872535553,-0.4508624268,2.022193599
12.71220308,2.392624512,-0.3324586487,-0.8062234497,2.546601079
12.72220608,2.544708252,-0.9883946228,-0.6134243774,2.797990973
12.73220808,2.302960968,-1.068627777,-0.2050735474,2.547086513
12.74221108,0.7605683899,-0.4093986511,0.9993218994,1.320876902
12.75221408,-0.1413061523,-0.14040802,1.895657959,1.906095732
12.76221608,-0.63887146,-0.1038839722,1.574725342,1.702559404
12.77221908,-0.8442443848,0.08232879639,0.6242019653,1.05316414
12.78222108,-0.5935157776,0.3152444458,-0.590072937,0.8943299782
12.79222408,0.09535171509,0.4781057739,-1.400038605,1.482492892
12.80222708,0.7812254333,0.4824467468,-1.910327454,2.119532737
12.81222908,1.255888367,0.4153862,-2.31792984,2.668819969
12.82223208,1.359772339,0.316741333,-2.439477081,2.810756894
12.83223508,1.272503815,0.1131646729,-2.306104431,2.636321272
12.84223708,1.026565247,-0.02649490356,-1.999541931,2.247822529
12.85224008,0.9226812744,-0.02709365845,-0.9966275024,1.358433355
12.86224308,0.6756948853,-0.0470022583,-0.06541397095,0.6804790796
12.87224508,0.3861968994,-0.2415975952,0.4501139832,0.6404061531
12.88224808,0.3237767029,-0.6571334839,0.3957769775,0.8326434921
12.89225008,0.195643158,-1.273252258,0.302820282,1.323309367
12.90225308,-0.2511776733,-1.805245972,0.4251159668,1.871557327
12.91225608,-0.2894979858,-1.992955627,0.04595443726,2.014396442
12.92225808,-0.2369572449,-2.256707153,-0.2359094238,2.28134372
12.93226108,-0.3403921509,-2.435884552,-0.4087998962,2.493294552
12.94226408,-0.5245092773,-2.069147186,-0.08128097534,2.136138258
12.95226608,-0.9717791748,-1.732048187,1.485510864,2.480138749
12.96226908,-1.574425964,-2.020498352,3.785328369,4.570551561
12.97227208,-1.486408997,-2.778372345,4.666396179,5.630632104
12.98227408,1.385518799,-4.79857132,-2.777623901,5.714992877
12.99227708,9.43083847,-11.72391998,-24.99517227,29.17446916
13.00228008,11.15689911,-22.20587265,-4.114793243,25.18945615
13.01228208,9.828112335,-30.84485779,2.313439178,32.45533924
13.02228508,17.28620316,-45.80280258,-30.47946762,57.66894737
13.03228708,11.89546326,-42.80708221,-37.76751205,58.31237691
13.04229008,5.716462555,-31.39077255,-23.01419174,39.34096551
13.05229308,7.617359619,-25.10474442,-8.771908722,27.66258741
13.06229508,12.76320877,-23.61070129,-14.36532715,30.44219667
13.07229808,14.40828781,-23.72027344,-12.34842133,30.37653105
13.08230108,13.48635498,-23.12136887,-15.34698578,30.85465024
13.09230308,11.39415573,-23.24845459,-15.09610748,29.97014993
13.10230608,9.407936096,-25.21970535,-15.54936493,31.08577728
13.11230908,7.986641693,-27.50260803,-14.87726257,32.27247799
13.12231108,7.268285522,-27.72699142,-12.57190659,31.2996304
13.13231408,6.014343109,-24.45584381,-8.996142426,26.74305888
13.14231708,4.182452545,-20.22773621,-5.33086441,21.33242454
13.15231908,2.530487823,-16.43866562,-3.377576294,16.97177414
13.16232208,1.219064941,-11.3163176,-2.099234619,11.57376124
13.17232408,0.2779719543,-7.545509033,-0.5319937134,7.569345565
13.18232708,-0.2718347168,-6.206393738,0.2842588806,6.21884398
13.19233008,-0.9982740784,-4.791835327,1.01099762,4.998034926
13.20233208,-1.075962524,-3.33820816,0.6701564026,3.570775641
13.21233508,-0.3122506714,-2.217488708,-1.216071167,2.548251506
13.22233808,0.4445755005,-0.08951385498,-2.231559448,2.277173177
13.23234008,0.9598040771,1.212478638,-0.4300556946,1.605078258
13.24234308,1.266965332,1.643432465,1.046773224,2.324178479
13.25234608,1.139280853,1.794468384,2.016456757,2.929876362
13.26234771,0.6625222778,1.758543091,1.868414612,2.649977874
13.27235071,0.4273612976,1.753753052,0.8714877319,2.00443965
13.28235271,0.4685256958,1.692380676,0.1387614441,1.761511686
13.29235571,0.6985972595,1.420246582,-0.1266366577,1.587820937
13.30235871,0.8791218567,0.08382568359,-0.03412902832,0.8837685074
13.31236071,0.6878196716,-1.128203888,0.03802093506,1.3218871
13.32236371,1.457668762,-1.410965881,-1.706750793,2.651154694
13.33236671,2.558329926,-1.185534668,-3.867806854,4.786488725
13.34236871,0.7915539551,-0.7059320068,-1.840273132,2.124029864
13.35237171,-0.8309220886,-0.4622387695,-0.5246589661,1.085984912
13.36237471,-1.294358368,-0.2155517578,-0.130229187,1.318630269
13.37237671,-0.8984317017,0.122744751,-0.2646496582,0.9446085105
13.38237971,-0.3986210632,0.2890489197,-0.7222480774,0.8741225974
13.39238271,0.04176315308,0.4640350342,-0.8963360596,1.010193549
13.40238471,0.3917353821,0.3553610229,-0.9479786682,1.085542087
13.41238771,0.5692662048,0.2278262329,-1.018931122,1.189196971
13.42238971,0.6171665955,0.3616479492,-0.9592053223,1.196561196
13.43239271,0.6072871399,0.5502557373,-0.6228547668,1.029333331
13.44239571,0.425565033,0.6911128235,-0.3079096985,0.8680731043
13.45239771,0.356408844,0.6601272583,-0.1986369324,0.776048898
13.46240071,0.3465293884,0.1914518738,-0.3857478333,0.5527547629
13.47240371,0.3200344849,-0.7409591675,-0.6432124329,1.032068211
13.48240571,0.4251159668,-1.536704407,-0.7923023987,1.780428912
13.49240871,0.5319937134,-2.03591629,-0.8107141113,2.255045415
13.50241171,0.6239025879,-2.427352295,-0.8553213501,2.648182058
13.51241371,0.7045848083,-2.951861572,-0.7056326294,3.115741309
13.52241671,0.5920188904,-3.482807465,-0.2338137817,3.540494752
13.53241871,0.3658392334,-3.101250916,0.5309458923,3.167569909
13.54242171,0.348924408,-1.651964722,1.423839111,2.20863159
13.55242471,0.3861968994,-1.139879608,2.782563629,3.031688295
13.56242671,0.4595443726,-1.855092316,4.166735229,4.584128162
13.57242971,1.298250275,-3.564986572,3.526965637,5.18016116
13.58243271,5.515280914,-6.653813324,-4.82431778,9.897757188
13.59243471,11.91522217,-15.31659897,-16.84626801,25.69761602
13.60243771,9.219028931,-25.13977158,0.2356100464,26.77786626
13.61244071,5.970783691,-32.10867966,2.275268555,32.7382714
13.62244271,11.21916962,-41.13176605,-17.59231659,46.12137843
13.63244571,9.070687408,-37.58324524,-39.79968613,55.4868697
13.64244871,7.742948456,-28.94261353,-15.7328833,33.8400908
13.65245071,5.130580902,-25.76562012,-9.96567627,28.09812705
13.66245371,5.623805237,-26.91133759,-16.82710785,32.23350484
13.67245571,8.84705246,-28.97719162,-13.65550323,33.23282624
13.68245871,11.68530029,-31.39451477,-15.38829987,36.86409599
13.69246171,11.13519424,-31.58282318,-13.33936066,36.04727193
13.70246371,8.879684601,-28.67152725,-10.3753743,31.75773395
13.71246671,7.050189056,-26.29117722,-10.72010742,29.25494605
13.72246971,5.475763092,-24.36737778,-9.307944031,26.65315935
13.73247171,4.492457886,-22.37666748,-8.667276306,24.41350249
13.74247471,4.443659363,-19.06630142,-7.880362701,21.1037929
13.75247771,4.961881714,-14.6473407,-6.104455719,16.62616129
13.76247971,5.181026001,-11.01065323,-4.199816437,12.87307162
13.77248271,4.377796326,-8.55800354,-2.485880585,9.928954
13.78248571,2.841391296,-5.332510986,-1.315763855,6.183883282
13.79248771,1.235979767,-4.66624649,-1.235081635,4.982662836
13.80249071,-0.3026705933,-3.527265015,-0.8973838806,3.652191917
13.81249271,-1.396146698,-1.481469269,-0.7027885437,2.153575755
13.82249571,-2.281106415,-0.6215075684,-1.108295288,2.611137028
13.83249871,-2.575095062,0.1240919495,-0.7411088562,2.682490583
13.84250071,-1.657503204,0.8306227112,0.664019165,1.969307597
13.85250371,-0.4007167053,1.38192627,1.652862854,2.191403593
13.86250671,0.05658233643,1.621128845,1.977687378,2.55783261
13.87250871,0.02724334717,1.617536316,2.175426178,2.711022868
13.88251171,0.1695973206,1.532064056,1.659000092,2.26456725
13.89251471,0.4013154602,1.315464478,0.633482666,1.514199848
13.90251671,0.6119274902,1.067280579,0.1342707825,1.237566859
13.91251971,0.8035290527,0.274379425,0.2652484131,0.8895502954
13.92252271,0.726738739,-0.4251159668,0.4959187317,0.9771428598
13.93252471,0.7911048889,-0.5881269836,0.4287084961,1.074956403
13.94252771,1.111887817,-0.6164181519,0.1312770081,1.278084312
13.95252971,0.8234376526,-0.5511538696,0.5869294739,1.151653751
13.96253271,0.2032772827,-0.5219645691,0.9418414307,1.095825691
13.97253571,-0.1092727661,-0.5566923523,0.6174659729,0.8385172271
13.98253771,-0.1820214844,-0.315693512,0.206869812,0.4190338094
13.99254071,-0.1857637024,0.02140548706,-0.2333647156,0.2990408642
14.00254371,-0.1278341675,0.2656974792,-0.6180647278,0.6847924741
14.01254571,-0.1121168518,0.366587677,-0.829125824,0.913458453
14.02254871,-0.04460723877,0.2844085693,-0.8765771484,0.9226405244
14.03255171,0.03772155762,0.1504371643,-0.8822653198,0.8957936988
14.04255371,0.1001417542,0.002544708252,-0.9774673462,0.9825870238
14.05255671,0.2764750671,-0.1251397705,-1.440903625,1.472515427
14.06255871,0.340841217,-0.2800675964,-1.641486511,1.699731908
14.07256171,0.436791687,-0.5146298218,-2.213447113,2.314082746
14.08256471,0.4658312988,-0.9859996033,-2.704276428,2.915871228
14.09256671,0.509690094,-1.462758179,-3.107986908,3.472611136
14.10256971,0.9686357117,-1.911824341,-3.590433655,4.181452054
14.11257271,2.104024658,-2.324815521,-3.72904541,4.872111107
14.12257471,2.21150116,-2.071991272,-3.902834015,4.941254755
14.13257771,1.314566345,-0.9342073059,-3.7185672,4.053217239
14.14258071,1.231189728,0.04370910645,-0.7194039917,1.426632656
14.15258271,-1.978435822,-1.189276886,7.899822235,8.230174917
14.16258571,-3.833677826,-4.380939789,3.60151062,6.845480104
14.17258871,1.536854095,-9.226513367,-20.53250244,22.56267107
14.18259071,7.529791718,-19.12991913,-20.63698517,29.12965372
14.19259371,10.81396225,-30.03070084,2.880310364,32.04810384
14.20259571,14.26967606,-40.08978287,-13.94964157,44.78176911
14.21259871,13.74441833,-43.05631393,-31.81184692,55.26978207
14.22260171,8.901389465,-32.38934601,-9.492809601,34.9058434
14.23260371,9.428443451,-26.61151108,-4.944068756,28.6620286
14.24260671,15.84979019,-30.84455841,-17.51837036,38.85223202
14.25260971,14.89118362,-30.71013794,-15.08982056,37.31705517
14.26261229,11.4794783,-27.0623735,-14.79134125,32.90796648
14.27261529,10.44827271,-25.51668777,-14.66964432,31.23245463
14.28261829,8.96291153,-24.71690094,-12.72189468,29.20797116
14.29262029,6.741081848,-24.06859909,-12.94343399,28.14732901
14.30262329,5.360502777,-23.87759628,-11.98333054,27.24839087
14.31262629,4.620142365,-22.84025345,-9.652377777,25.22283271
14.32262829,3.626658325,-20.48594925,-6.298152924,21.73691555
14.33263129,2.837200012,-16.28508499,-4.89676712,17.24041836
14.34263329,1.078956299,-11.3534404,-3.216810608,11.84958337
14.35263629,-1.548230438,-7.743247833,-1.385069733,8.017064467
14.36263929,-2.699187012,-5.595963135,-0.1019380188,6.213759352
14.37264129,-2.583926697,-4.089046783,0.9379495239,4.927142182
14.38264429,-1.946851501,-2.411185913,0.4026626587,3.125089678
14.39264729,-1.16891922,-1.764830017,-1.926194458,2.862031136
14.40264929,-0.1883084106,-1.002615051,-2.402054901,2.609705874
14.41265229,1.487905884,0.6869215393,-1.308728485,2.097259013
14.42265529,2.229463806,1.799857178,0.1977388,2.872123841
14.43265729,2.083816681,2.051034851,1.483564911,3.278719379
14.44266029,1.85224823,1.971999207,1.615740051,3.151225204
14.45266229,1.829794922,1.928589478,1.207838287,2.920013726
14.46266529,2.077230377,1.958377533,0.9976753235,3.024150236
14.47266829,2.600242767,1.165177002,0.3118016052,2.866377529
14.48267029,3.262765045,-0.3838018799,-0.0462538147,3.285586559
14.49267329,3.31485672,-0.9511221313,0.3787124634,3.469341654
14.50267629,2.188898163,-1.023122406,0.602946167,2.490300927
14.51267829,0.800684967,-0.7708969116,0.8949888611,1.427019105
14.52268129,0.3056643677,-0.526305542,1.126407623,1.280321195
14.53268429,-0.04161346436,-0.1779798889,1.064436493,1.080015541
14.54268629,-0.3246748352,0.04685256958,0.8059240723,0.8701278769
14.55268929,-0.4986131287,0.1460961914,0.4864883423,0.7117794998
14.56269129,-0.5295986938,0.2258802795,0.2216889954,0.6169624688
14.57269429,-0.3959266663,0.2627037048,-0.01062789917,0.4752726731
14.58269729,-0.2124082947,0.2219883728,-0.1058299255,0.3249555269
14.59269929,-0.01137634277,0.02918930054,-0.2303709412,0.2324913052
14.60270229,-0.1923500061,-0.2793191528,-1.120719452,1.170909819
14.61270529,-0.22348526,-0.5510041809,-2.060016174,2.144112382
14.62270729,0.2559677124,-0.6024971008,-1.506616974,1.64268589
14.63271029,0.5451663208,-0.6682104492,-1.128652954,1.420411565
14.64271329,0.4155358887,-0.8384065247,-1.392105103,1.677364657
14.65271529,0.1293310547,-1.149309998,-1.890418854,2.216150589
14.66271829,-0.1523831177,-1.475781097,-2.113455048,2.582216625
14.67272029,-0.3802093506,-1.590592346,-1.939516754,2.536980174
14.68272329,-0.4326004028,-1.52817215,-1.771266632,2.379041553
14.69272629,-0.8590635681,-1.294508057,-0.3332070923,1.588951947
14.70272829,-0.5303471375,-0.3875440979,0.4183799744,0.7787813024
14.71273129,0.04011657715,-0.3802093506,0.2830613708,0.4757018286
14.72273429,0.6430627441,-1.502276001,-1.300645294,2.088549989
14.73273629,1.700763245,-3.609144745,-3.768563232,5.488222867
14.74273929,3.141816559,-7.830067291,-9.026529236,12.35553298
14.75274229,9.101373596,-16.48731445,-20.58145065,27.8973592
14.76274429,13.42722794,-28.61434616,-1.39943985,31.63905321
14.77274729,14.3912233,-42.4714801,-17.77688278,48.23848558
14.78274929,10.93685669,-43.01993958,-29.5123288,53.30391718
14.79275229,4.39486084,-31.21563675,-12.66770737,33.97354249
14.80275529,6.538553009,-23.26656693,-1.174158325,24.19637286
14.81275729,11.44954056,-23.10714844,-9.90595047,27.62535326
14.82276029,11.94246552,-26.32066589,-13.85878052,32.05410634
14.83276329,11.09747269,-27.13721786,-13.46060852,32.26097449
14.84276529,12.55065079,-28.16483093,-14.90824814,34.24956057
14.85276829,11.5312706,-28.76418457,-12.68402344,33.48481695
14.86277129,10.11506561,-28.39205841,-11.52079239,32.26689
14.87277329,9.258097687,-27.40246628,-12.30456253,31.43262302
14.88277629,7.709268494,-24.9602948,-11.16168915,28.40831642
14.89277829,6.079607391,-21.63930084,-8.820258179,24.14576404
14.90278129,4.134402466,-17.84903275,-7.177873535,19.67747754
14.91278429,2.413281555,-13.37618408,-5.4583992,14.64719599
14.92278629,2.078876953,-8.62117218,-4.090543671,9.76621148
14.93278929,1.743125153,-4.965773621,-3.183879089,6.150973826
14.94279229,0.8731343079,-3.336411896,-2.388732605,4.195241509
14.95279429,-0.519868927,-2.525847473,-1.00156723,2.76646093
14.96279729,-0.9448352051,-1.613794098,-0.7077282715,1.999480998
14.97280029,-0.7327262878,-1.120420074,-1.320553894,1.880449825
14.98280229,0.2392025757,0.4433779907,-2.232906647,2.289033422
14.99280529,0.8089178467,1.202299805,-1.977837067,2.451879354
