Time (s),Acceleration x (m/s^2),Acceleration y (m/s^2),Acceleration z (m/s^2),Absolute acceleration (m/s^2)
-0.0001367083314,-10.5903273,-2.00313446,1.151555328,10.83944923
0.01236729167,-10.38585251,-1.842368774,0.5933660889,10.56467408
0.02237029167,-10.23975632,-1.688788147,0.3662882996,10.38454534
0.03237329167,-10.02136047,-1.494342499,0.4245172119,10.14105222
0.04237629167,-9.729617157,-1.319655762,0.7795788574,9.849603268
0.05238029167,-9.362879791,-1.208886108,1.307830353,9.530757779
0.06238329167,-8.933273163,-1.176253967,1.889520721,9.206369065
0.07238629167,-8.531658325,-1.106049957,2.402653656,8.932260905
0.08238929167,-8.079748077,-1.016087036,2.622696075,8.555308093
0.09239329167,-7.648045807,-1.012943573,2.849773865,8.224346201
0.1023962917,-7.235054626,-0.9720785522,3.124302979,7.940542882
0.1123992917,-6.927294617,-0.9647438049,3.347937927,7.754149191
0.1224022917,-6.721622314,-0.9500743103,3.491190033,7.633561134
0.1324062917,-6.633755035,-0.9596543884,3.609144745,7.612724099
0.1424092917,-6.711892548,-0.9592053223,3.656745758,7.70333473
0.1524122917,-6.790329437,-0.9189390564,3.504212952,7.696267359
0.1624152917,-6.840475159,-0.8927435303,3.13582901,7.577764511
0.1724182917,-6.84272049,-0.9048683167,2.739752655,7.426160177
0.1824222917,-6.77476181,-0.9174421692,2.414928131,7.2505845
0.1924252917,-6.770869904,-0.9692344666,2.212548981,7.188843279
0.2024282917,-6.85783905,-1.039288788,2.13306427,7.256723834
0.2124312917,-6.998696136,-1.138233032,2.105222168,7.396572343
0.2224352917,-7.212900696,-1.266516266,2.068997498,7.609911336
0.2324382917,-7.534581757,-1.407672729,2.029479675,7.929076397
0.2424412917,-7.970625,-1.555116119,1.906884613,8.341789854
0.2524442917,-8.425229645,-1.797162781,1.667981415,8.774762141
0.2624482917,-8.837771759,-2.050585785,1.392703857,9.178819955
0.2724512917,-9.077273712,-2.266885986,1.1665242,9.428491334
0.2824542917,-9.193731537,-2.470612335,1.06713089,9.579529906
0.2924572917,-9.260642395,-2.711461487,1.122366028,9.714485394
0.3024612917,-9.37710022,-2.938539276,1.255588989,9.906640466
0.3124642917,-9.630822601,-3.099304962,1.4239888,10.21695548
0.3224672917,-9.949509888,-3.171005859,1.696122894,10.57945452
0.3324702917,-10.41968216,-3.237767029,1.970202942,11.08758816
0.3424742917,-10.99748062,-3.360212402,2.165995789,11.70158729
0.3524772917,-11.38846756,-3.5102005,2.241139526,12.12606314
0.3624802917,-11.69083878,-3.606749725,2.276016998,12.44446095
0.3724832917,-11.98452805,-3.602558441,2.278861084,12.72008442
0.3824862917,-12.3380928,-3.61677887,2.291584625,13.05989983
0.3924902917,-12.8331134,-3.815116425,2.252066803,13.57629249
0.4024932917,-13.40163116,-4.226610718,2.156715088,14.21686942
0.4124962917,-13.84949982,-4.690795441,2.093696136,14.7714512
0.4224992917,-13.96715515,-5.015470276,2.051932983,14.98154845
0.4325032917,-13.71747437,-5.003644867,2.141147461,14.75771247
0.4425062917,-13.38082443,-4.771178284,2.436333618,14.41340786
0.4525092917,-13.036241,-4.28723465,2.750979309,13.99613688
0.4625122917,-12.48972748,-3.493135986,2.896027679,13.28842608
0.4725162917,-12.09499832,-2.964285736,3.027454376,12.81567222
0.4825192917,-11.85250259,-2.731070709,3.177592163,12.57130291
0.4925222917,-11.6706308,-2.656376038,3.404520264,12.44390273
0.5025252917,-11.49399811,-2.814746704,3.599714355,12.3690232
0.5125292917,-11.36047577,-3.261717224,3.731739807,12.39455892
0.5225322917,-11.23234222,-3.92678421,3.798500977,12.49054666
0.5325352917,-11.09073669,-4.591551819,3.815266113,12.59535804
0.5425382917,-10.92383377,-5.086422729,3.886068878,12.66109678
0.5525422917,-10.67235672,-5.46079422,4.017495575,12.64356525
0.5625452917,-10.36863831,-5.598208466,4.094285889,12.47444489
0.5725482917,-9.99366806,-5.436394958,4.077071686,12.08512743
0.5825512917,-9.689799957,-5.034480743,3.984863434,11.62399915
0.5925542917,-9.647737427,-4.522994385,3.797602844,11.31185675
0.6025582917,-9.751920776,-3.947291565,3.570075989,11.10974852
0.6125612917,-9.769284668,-3.398682404,3.254232788,10.84343101
0.6225642917,-9.656419373,-2.906206512,2.917433167,10.49780395
0.6325672917,-9.560618591,-2.490221558,2.647544403,10.22820232
0.6425712917,-9.456435242,-2.162253571,2.433639221,10.00110533
0.6525742917,-9.345366211,-1.853146362,2.263293457,9.792472534
0.6625764167,-9.273515625,-1.620230713,2.117646332,9.649231347
0.6725794167,-9.164841614,-1.481768646,2.115700378,9.521877347
0.6825834167,-8.983119507,-1.384770355,2.186802521,9.348589748
0.6925864167,-8.759035492,-1.358874207,2.289938049,9.154837963
0.7025894167,-8.379275208,-1.420995026,2.363135834,8.821331579
0.7125924167,-7.950566711,-1.503024445,2.362986145,8.429371094
0.7225964167,-7.592361603,-1.5925383,2.295925598,8.090204404
0.7325994167,-7.29193634,-1.687740326,2.278861084,7.82393832
0.7426024167,-7.099436646,-1.774260406,2.348915405,7.685532139
0.7526054167,-6.908583527,-1.821112976,2.453098755,7.553983871
0.7626094167,-6.696324921,-1.882485352,2.540966034,7.405472769
0.7726124167,-6.495891724,-1.929786987,2.555934906,7.242478191
0.7826154167,-6.226901093,-1.951641541,2.490221558,6.984583404
0.7926184167,-5.956114197,-2.025737457,2.403851166,6.734790939
0.8026214167,-5.695057068,-2.109114075,2.313588867,6.498825327
0.8126254167,-5.503455505,-2.180964661,2.175725555,6.307012846
0.8226284167,-5.34613266,-2.256707153,1.980232086,6.131490904
0.8326314167,-5.200036469,-2.335742798,1.780697021,5.97218181
0.8426344167,-5.117108917,-2.43498642,1.623374176,5.894854218
0.8526384167,-5.003495178,-2.54845047,1.441951447,5.797308666
0.8626414167,-5.012027435,-2.727627869,1.260828094,5.843805292
0.8726444167,-5.168452148,-2.944676514,1.205892334,6.069447562
0.8826474167,-5.401367798,-3.109483795,1.311871948,6.369040082
0.8926514167,-5.635780334,-3.171604614,1.492546234,6.636926252
0.9026544167,-5.924978943,-3.254083099,1.623074799,6.951892123
0.9126574167,-6.198011169,-3.398682404,1.750010834,7.282096021
0.9226604167,-6.543642426,-3.645668793,1.83353714,7.711810137
0.9326644167,-6.996600494,-4.024530945,1.857936401,8.282583865
0.9426674167,-7.296277313,-4.437372437,1.870210876,8.742060712
0.9526704167,-7.51078125,-4.673880615,1.937570801,9.056002186
0.9626734167,-7.679181061,-4.741539917,2.133513336,9.273828859
0.9726774167,-7.727979584,-4.725822601,2.38109848,9.366146362
0.9826804167,-7.956853638,-4.827311554,2.58242981,9.658333209
0.9926834167,-8.475674744,-5.140909424,2.702480164,10.27469762
1.002686417,-9.228309631,-5.523513794,2.783910828,11.10950326
1.012690417,-9.949060822,-5.904321899,2.794389038,11.901825
1.022693417,-10.61008621,-6.129304047,2.857707367,12.58208206
1.032696417,-11.01529358,-6.048621826,2.953957214,12.9092363
1.042699417,-11.17546051,-5.715414734,2.949017487,12.89393607
1.052703417,-11.18578903,-5.13432312,2.98254776,12.66407286
1.062706417,-10.95766342,-4.324357452,3.074905701,12.17478953
1.072709417,-10.57460999,-3.485501862,3.104993134,11.55906925
1.082712417,-10.32537827,-2.916085968,3.281326447,11.21980824
1.092716417,-10.58089691,-2.697540436,3.743265839,11.54314268
1.102719417,-10.91754684,-2.654430084,4.245770874,12.01105318
1.112722417,-11.35673355,-2.935844879,4.651576996,12.61870638
1.122725417,-11.79906372,-3.315156097,4.905449066,13.20119673
1.132728417,-11.99889816,-3.614683228,4.973407745,13.4823691
1.142732417,-11.94680649,-3.831731873,4.657564545,13.38287196
1.152735417,-11.71987839,-3.955225067,4.023183746,13.00712736
1.162738417,-11.47438889,-3.90687561,3.261717224,12.55245301
1.172741417,-11.25734024,-3.674558716,2.554887085,12.11435261
1.182745417,-11.00122284,-3.331921234,1.820514221,11.63799274
1.192748417,-10.66577042,-2.968926086,1.193767548,11.13545067
1.202751417,-10.3898941,-2.639161835,0.8069718933,10.75017573
1.212754417,-10.19200562,-2.30505661,0.6813830566,10.47160672
1.222758417,-9.976304169,-1.926942902,0.7343728638,10.18720066
1.232761417,-9.657766571,-1.502575378,1.01099762,9.8261032
1.242764417,-9.267378387,-1.102457428,1.383572845,9.434722485
1.252767417,-8.767717438,-0.7280859375,1.715881805,8.96366156
1.262771417,-8.226742401,-0.4577481079,2.050585785,8.490802431
1.272774417,-7.79743515,-0.2466870117,2.34951416,8.147457652
1.282777417,-7.278464355,-0.1020877075,2.500250702,7.696604371
1.292780417,-6.757547607,-0.06032455444,2.576142883,7.232191983
1.302784417,-6.4378125,-0.1580712891,2.575993195,6.935860239
1.312787417,-6.244115295,-0.2661465454,2.593357086,6.766484374
1.322790417,-6.136339417,-0.3653901672,2.6011409,6.67488617
1.332793417,-6.20145401,-0.5041516113,2.639012146,6.758445516
1.342796417,-6.427933044,-0.7111711121,2.673141174,6.997840475
1.352800417,-6.719526672,-0.895587616,2.704575806,7.298550964
1.362803417,-7.001091156,-0.9684860229,2.70173172,7.566544577
1.372806417,-7.382198639,-1.010398865,2.53093689,7.86914253
1.382809417,-7.9108992,-1.020877075,2.355950775,8.31715217
1.392813417,-8.343948669,-1.017284546,2.123334503,8.669769124
1.402816417,-8.593928833,-1.006956024,1.883233795,8.85528897
1.412819417,-8.893605652,-1.103954315,1.70600235,9.122794563
1.422822417,-9.280401306,-1.249002686,1.595382385,9.499005267
1.432826417,-9.724228363,-1.404229889,1.63460083,9.960140497
1.442829417,-10.16446289,-1.515747986,1.730700989,10.42157012
1.452832417,-10.644814,-1.623972931,1.789977722,10.91573971
1.462835417,-11.14926498,-1.808838501,1.877545624,11.45002987
1.472839417,-11.55402328,-2.059567108,2.027084656,11.90992624
1.482842417,-11.97090637,-2.378553772,2.163301392,12.39515996
1.492845417,-12.37791,-2.783012695,2.309547272,12.89541873
1.502848417,-12.73985733,-3.182980957,2.474504242,13.36257849
1.512852417,-13.03190002,-3.489842834,2.587668915,13.73701029
1.522855417,-13.26661194,-3.6097435,2.670297089,14.00584617
1.532858417,-13.504617,-3.534599762,2.746488647,14.22713168
1.542861417,-13.77181137,-3.455713806,2.687211914,14.45080808
1.552865417,-14.10561722,-3.607797546,2.530038757,14.77787997
1.562868417,-14.47804276,-4.032913513,2.411934357,15.22154857
1.572871417,-14.63551529,-4.55517746,2.318378906,15.50234918
1.582874417,-14.48971848,-4.868326263,2.395468597,15.47225943
1.592878417,-14.23180481,-4.906646576,2.615660706,15.27943486
1.602881417,-14.11699356,-4.863087158,2.895578613,15.20932278
1.612884417,-13.82495087,-4.38782547,3.122656403,14.83688855
1.622887417,-13.25613373,-3.581152954,3.274291077,14.11632813
1.632890417,-12.91065216,-3.088377686,3.30198349,13.67940463
1.642894417,-12.76979507,-3.054847412,3.204236755,13.51543163
1.652897417,-12.660672,-3.339854736,3.023113403,13.43824616
1.662901417,-12.49571503,-3.877835999,2.922522583,13.40603015
1.672904417,-12.28600113,-4.586911469,2.912194061,13.43378036
1.682908417,-12.15008377,-5.244643707,2.982697449,13.56566649
1.692911417,-11.97150513,-5.692662048,3.085383911,13.61039787
1.702914417,-11.51076324,-5.878874817,3.261567535,13.33029116
1.712917417,-10.98595459,-5.7755896,3.415896606,12.87311086
1.722921417,-10.49632278,-5.489983521,3.499123535,12.35137954
1.732924417,-10.12778915,-5.086572418,3.597618713,11.89067671
1.742927417,-9.833800507,-4.640949097,3.66348175,11.47445595
1.752930417,-9.569899292,-4.169429626,3.69746109,11.07421936
1.762934417,-9.28698761,-3.695664825,3.687731323,10.65389317
1.772937417,-8.984915771,-3.281476135,3.634142761,10.23248702
1.782940417,-8.709488525,-2.944676514,3.561394043,9.859504941
1.792943417,-8.448431396,-2.632425842,3.47277832,9.506095315
1.802947417,-8.177494812,-2.403551788,3.313808899,9.14493368
1.812950417,-7.961044922,-2.243833923,3.143912201,8.848571119
1.822953417,-7.799081726,-2.138602753,2.985840912,8.620588347
1.832956417,-7.596403198,-2.103126526,2.843187561,8.37927194
1.842960417,-7.392377472,-2.050585785,2.721790009,8.140042236
1.852963417,-7.202422485,-2.02663559,2.701132965,7.954763401
1.862966417,-7.055128784,-2.026934967,2.542462921,7.768360524
1.872969417,-6.915469208,-2.177970886,2.405198364,7.638864491
1.882972417,-6.787784729,-2.316432953,2.35415451,7.548637401
1.892976417,-6.656807098,-2.407144318,2.305954742,7.444786886
1.902979417,-6.53840332,-2.537223816,2.229613495,7.359306965
1.912982417,-6.417604523,-2.69589386,2.174827423,7.292692633
1.922985417,-6.269712067,-2.843486938,2.104324036,7.1988115
1.932989417,-6.045478363,-2.954256592,1.998643799,7.01926048
1.942992417,-5.83516571,-3.069217529,1.89431076,6.859859209
1.952995417,-5.660329285,-3.213966522,1.808539124,6.75571774
1.962998417,-5.544170837,-3.352877655,1.74342453,6.709630984
1.973002417,-5.524262238,-3.507805481,1.746418304,6.772898158
1.983005417,-5.621559906,-3.726800079,1.780547333,6.975766869
1.993008417,-5.72289917,-3.884272614,1.802102509,7.147497611
2.003011417,-5.789061584,-4.01105896,1.756746826,7.258649146
2.013015417,-5.828579407,-4.102219391,1.727108459,7.333719756
2.023018417,-5.915249176,-4.226910095,1.610950012,7.446616796
2.033021417,-5.974376221,-4.397405548,1.498234406,7.568028351
2.043024417,-6.115233307,-4.587510223,1.478026428,7.78626294
2.053028417,-6.44948822,-4.830904083,1.50242569,8.197000398
2.063031417,-6.763984222,-5.068909149,1.515598297,8.587337231
2.073034417,-6.990762634,-5.310656433,1.486558685,8.904138964
2.083037417,-7.081024933,-5.474266205,1.454525299,9.067753218
2.093040417,-7.107220459,-5.498515778,1.504072266,9.110899615
2.103044417,-7.422315216,-5.506149902,1.703307953,9.397324507
2.113047417,-8.009693756,-5.662574615,1.938618622,9.998909316
2.123050417,-8.66218689,-5.965394897,2.073188782,10.71995941
2.133053417,-9.216633911,-6.331234131,2.050136719,11.36811008
2.143057417,-9.449100494,-6.613397369,2.014361115,11.70812434
2.153060417,-9.375753021,-6.609206085,2.049537964,11.65276601
2.163063417,-9.192833405,-6.30204483,2.182611237,11.35727726
2.173066417,-9.140592041,-5.779780884,2.484383698,11.09632607
2.183070417,-9.260941772,-5.074896698,2.778222656,10.91962179
2.193073417,-9.235943756,-4.250710602,2.918031921,10.57762298
2.203076417,-9.335935822,-3.49388443,2.9368927,10.39193268
2.213079417,-9.557774506,-2.960244141,3.07146286,10.46651723
2.223083417,-9.761500854,-2.78241394,3.233875122,10.65301246
2.233086417,-10.03273682,-3.091072083,3.443289642,11.04838351
2.243089417,-10.30382309,-3.781436462,3.664978638,11.57152109
2.253092417,-10.48794022,-4.522545319,3.885470123,12.06429377
2.263096417,-10.54452255,-5.035378876,4.030518494,12.36070692
2.273099417,-10.57910065,-5.254074097,4.060007172,12.49024913
2.283102417,-10.73836945,-5.225483551,3.945944366,12.57731027
2.293105417,-10.97502731,-4.912783813,3.575165405,12.5446593
2.303108417,-11.18474121,-4.444707184,2.936593323,12.38860114
2.313112417,-11.16677856,-3.816014557,2.269580383,12.01706727
2.323115417,-10.9778714,-3.041824493,1.612147522,11.50501527
2.333118417,-10.72878937,-2.329156494,0.9598040771,11.0205769
2.343121417,-10.48060547,-1.805096283,0.5993536377,10.65179273
2.353125417,-10.29693741,-1.335373077,0.6192622375,10.40161656
2.363128417,-10.12913635,-0.9008267212,0.876277771,10.20679944
2.373131417,-9.929750977,-0.6122268677,1.328188019,10.03687499
2.383134417,-9.675878906,-0.3956272888,1.781744843,9.84651046
2.393138417,-9.42859314,-0.3303630066,2.229164429,9.694157125
2.403141417,-9.016350403,-0.2788700867,2.629731445,9.396160417
2.413144417,-8.465495911,-0.226179657,2.845133514,8.933675781
2.423147417,-7.898924103,-0.2980302429,2.914289703,8.424660734
2.433151417,-7.254963226,-0.3845503235,2.794089661,7.783913373
2.443154417,-6.902146912,-0.5240602112,2.548300781,7.376185191
2.453157417,-6.749913483,-0.7343728638,2.440674591,7.215090296
2.463160417,-6.665039978,-0.8652008057,2.448009338,7.152907106
2.473163417,-6.691983948,-0.9382489014,2.528990936,7.215175349
2.483167417,-6.771768036,-1.003213806,2.569406891,7.311985506
2.493170417,-6.942263489,-1.064885559,2.628084869,7.499055519
2.503173417,-7.19254303,-1.066681824,2.615511017,7.727314102
2.513176417,-7.487130432,-1.083147583,2.519111481,7.973471857
2.523180417,-7.782765656,-1.102607117,2.328557739,8.19813179
2.533183417,-8.180189209,-1.119671631,2.083666992,8.515329012
2.543186417,-8.664731598,-1.261576538,1.898202667,8.959482261
2.553189417,-9.123228149,-1.409618683,1.857637024,9.416535032
2.563193417,-9.639654236,-1.5726297,1.909129944,9.95192821
2.573196417,-10.18781433,-1.864223328,1.939217377,10.53695656
2.583199417,-10.7907605,-2.149530029,1.981279907,11.17973441
2.593202417,-11.39894577,-2.414928131,2.093845825,11.83858239
2.603206417,-12.08631638,-2.78361145,2.271376648,12.60899235
2.613209417,-12.86514679,-3.201093292,2.464026031,13.48445121
2.623212417,-13.53620132,-3.65764389,2.637814636,14.26762668
2.633215417,-14.03316788,-3.995191956,2.800675964,14.85715805
2.643219417,-14.27775925,-4.053420868,2.975662079,15.13734437
2.653222417,-14.33134781,-3.861819305,3.139870605,15.17102389
2.663224792,-14.50753143,-3.648961945,3.192860413,15.29633123
2.673227792,-14.92097168,-3.711980896,3.054997101,15.67632627
2.683230792,-15.46808395,-4.095633087,2.816542969,16.247115
2.693234792,-15.94574066,-4.684807892,2.615361328,16.82421425
2.703237792,-16.06818604,-5.095853119,2.425256653,17.03044895
2.713240792,-15.59382248,-5.125491486,2.205962677,16.56213253
2.723243792,-14.67458405,-4.832251282,1.968556366,15.5746359
2.733247792,-13.80638947,-4.310286713,1.735341339,14.56730487
2.743250792,-13.22350159,-3.861819305,1.606159973,13.8691886
2.753253792,-12.94163773,-3.723057861,1.655557251,13.56790392
2.763256792,-12.89209076,-3.848646698,1.802850952,13.57454814
2.773260792,-12.92083099,-4.285139008,1.864223328,13.73992789
2.783263792,-12.96543823,-5.061574402,1.944606171,14.05359801
2.793266792,-13.02531372,-5.923332367,2.163750458,14.47157489
2.803269792,-12.92951294,-6.653813324,2.453098755,14.74663453
2.813272792,-12.60603561,-7.153025208,2.755170593,14.75360527
2.823276792,-12.04694824,-7.291487274,3.006348267,14.39905825
2.833279792,-11.41062149,-7.005432129,3.123704224,13.74903234
2.843282792,-10.90302704,-6.434519348,3.140319672,13.0437972
2.853285792,-10.63553329,-5.805377655,3.138074341,12.51656857
2.863289792,-10.4018692,-5.207221527,3.150049438,12.05142524
2.873292792,-10.11461655,-4.646936646,3.148552551,11.56775135
2.883295792,-9.935439148,-4.16434021,3.155288544,11.22544103
2.893298792,-9.716743927,-3.710933075,3.193010101,10.880324
2.903302792,-9.456884308,-3.378624115,3.241359558,10.5524487
2.913305792,-9.192983093,-3.110830994,3.274590454,10.24261443
2.923308792,-8.854686584,-2.879711609,3.241808624,9.859388248
2.933311792,-8.513246613,-2.730771332,3.184627533,9.490749837
2.943315792,-8.149952087,-2.618504791,3.103945312,9.105644561
2.953318792,-7.774383087,-2.49935257,2.984643402,8.694589806
2.963321792,-7.481292572,-2.423161011,2.859353943,8.367637229
2.973324792,-7.280859375,-2.375559998,2.708916779,8.123572407
2.983328792,-7.052883453,-2.369273071,2.54605545,7.863778878
2.993331792,-6.831793213,-2.445614319,2.393822021,7.64099547
3.003334792,-6.630611572,-2.531535645,2.218686218,7.436144907
3.013337792,-6.438111877,-2.63976059,2.058369598,7.256342462
3.023340792,-6.265520782,-2.777474213,1.944306793,7.124004673
3.033344792,-6.064189453,-2.924169159,1.821562042,6.97447111
3.043347792,-5.882617035,-3.066223755,1.663640442,6.83919665
3.053350792,-5.702391815,-3.196303253,1.568737793,6.722690322
3.063353792,-5.489384766,-3.334465942,1.560504913,6.609628114
3.073357792,-5.247338104,-3.438200226,1.553319855,6.462861637
3.083360792,-5.089416504,-3.587739258,1.599723358,6.429086106
3.093363792,-4.891228638,-3.734583893,1.678609314,6.378790141
3.103366792,-4.631967773,-3.892505493,1.686542816,6.281015136
3.113370792,-4.456382904,-4.078418884,1.607806549,6.251231165
3.123373792,-4.385131073,-4.268673248,1.479373627,6.295990165
3.133376792,-4.299209747,-4.389322357,1.410217438,6.3038138
3.143379792,-4.259841614,-4.499792633,1.429377594,6.359049034
3.153382792,-4.375550995,-4.656666412,1.474733276,6.557806556
3.163386792,-4.663252716,-4.857997742,1.552870789,6.910678378
3.173389792,-5.054239655,-5.05004837,1.634301453,7.329342963
3.183392792,-5.444927216,-5.247936859,1.708247681,7.752817797
3.193395792,-5.746849365,-5.41633667,1.835632782,8.107559945
3.203399792,-6.047873383,-5.447022858,2.047142944,8.392712595
3.213402792,-6.46355896,-5.37651947,2.268682251,8.708126963
3.223405792,-7.189848633,-5.49941391,2.529440002,9.398699029
3.233408792,-7.964637451,-5.857768707,2.662962341,10.23915389
3.243412792,-8.66922226,-6.283633118,2.54605545,11.00553761
3.253415792,-9.190737762,-6.691085815,2.351609802,11.60906364
3.263418792,-9.413175201,-6.790628815,2.20326828,11.81418208
3.273421792,-9.464967499,-6.529571686,2.236499176,11.7142155
3.283425792,-9.420509949,-5.892197113,2.456691284,11.37977709
3.293428792,-9.339528351,-4.98927475,2.678080902,10.92207717
3.303431792,-9.260492706,-4.10236908,2.78480896,10.50434758
3.313434792,-9.449848938,-3.351380768,2.798131256,10.40965593
3.323437792,-9.813293152,-2.854264526,2.844983826,10.60855699
3.333441792,-10.35756134,-2.837050323,2.92985733,11.1315765
3.343444792,-11.13953522,-3.346141663,3.006497955,12.01353149
3.353447792,-11.80250656,-4.203858032,2.893033905,12.85850803
3.363450792,-12.12224167,-5.064717865,2.628983002,13.39819621
3.373454792,-12.32267487,-5.782924347,2.441123657,13.82930275
3.383457792,-12.52161118,-6.179749146,2.367177429,14.16275308
3.393460792,-12.48508713,-6.151757355,2.238445129,14.09723929
3.403463792,-12.29617996,-5.728138275,2.004032593,13.71217548
3.413467792,-12.01506454,-4.959187317,1.714235229,13.11083206
3.423470792,-11.50522476,-4.201013947,1.499282227,12.3396338
3.433473792,-11.19372253,-3.655997314,1.404379578,11.85909029
3.443476792,-10.84764221,-3.210523682,1.449286194,11.40522838
3.453480792,-10.40097107,-2.681074677,1.587149506,10.85759661
3.463483792,-9.879904633,-2.312391357,1.847158813,10.313664
3.473486792,-9.312434692,-2.053878937,2.29218338,9.807852121
3.483489792,-8.734187164,-1.794468384,2.775977325,9.338746828
3.493492792,-8.227341156,-1.577569427,3.123704224,8.9406597
3.503496792,-7.755522308,-1.388512573,3.319048004,8.549396066
3.513499792,-7.334298248,-1.176852722,3.38970108,8.164985397
3.523502792,-6.968159637,-1.01099762,3.391647034,7.815410067
3.533505792,-6.60860733,-0.887504425,3.308120728,7.443454688
3.543509792,-6.313720551,-0.7999365234,3.158432007,7.104833452
3.553512792,-6.118077393,-0.7310797119,2.937192078,6.82586594
3.563515792,-5.979765015,-0.6881190491,2.701282654,6.59757724
3.573518792,-5.911656647,-0.6875202942,2.467468872,6.442730097
3.583522792,-6.007457428,-0.7632627869,2.287992096,6.473563367
3.593525792,-6.218219147,-0.9101074219,2.171234894,6.648970284
3.603528792,-6.457122345,-1.035995636,2.033670959,6.848615445
3.613531792,-6.800957336,-1.158141632,1.823957062,7.135904434
3.623534792,-7.209008789,-1.229393463,1.665287018,7.500293118
3.633538792,-7.658074951,-1.237326965,1.579216003,7.916502584
3.643541792,-8.262368317,-1.259181519,1.575623474,8.50499016
3.653544792,-8.958420868,-1.333427124,1.594633942,9.19642266
3.663547667,-9.640252991,-1.501377869,1.616937561,9.889545
3.673551667,-10.37103333,-1.784888306,1.649120636,10.65193679
3.683554667,-11.2100386,-2.205812988,1.740879822,11.55686978
3.693557667,-12.00967575,-2.692151642,1.911674652,12.45529976
3.703560667,-12.68656815,-3.079246674,2.177821198,13.23531928
3.713564667,-13.22499847,-3.26575882,2.528841248,13.854992
3.723567667,-13.7448674,-3.386856995,2.907254333,14.45144657
3.733570667,-14.30320633,-3.566034393,3.237767029,15.09243015
3.743573667,-14.72053848,-3.716770935,3.469784546,15.57395403
3.753576667,-14.95689697,-3.730392609,3.680995331,15.84848014
3.763580667,-15.06392441,-3.591182098,3.905528412,15.97095988
3.773583667,-15.0878746,-3.478167114,4.095633087,16.01611117
3.783586667,-15.23441986,-3.713627472,4.205354919,16.23464159
3.793589667,-15.43170959,-4.241878967,4.234843597,16.55491161
3.803593667,-15.48245407,-4.810845795,4.224964142,16.75413213
3.813596667,-15.31944305,-5.230722656,4.263134766,16.73977637
3.823599667,-14.98264343,-5.402714996,4.195325775,16.4702669
3.833602667,-14.6566214,-5.225034485,4.006867676,16.06774797
3.843606667,-14.22896072,-4.747228088,3.79805191,15.47335439
3.853609667,-13.79186966,-4.123774567,3.508853302,14.81665404
3.863612667,-13.51988525,-3.755091248,3.144510956,14.37970642
3.873615667,-13.40402618,-3.801794128,2.741249542,14.19985935
3.883619667,-13.32109863,-4.189338226,2.351759491,14.16096735
3.893622667,-13.14222061,-4.792583771,2.100132751,14.14557809
3.903625667,-12.96004944,-5.448968811,2.133513336,14.21991637
3.913628667,-12.84673508,-6.145919495,2.421514435,14.44557582
3.923631667,-12.49990631,-6.81697403,2.722987518,14.49598061
3.933635667,-11.96132629,-7.1106633,3.01293457,14.23771871
3.943638667,-11.32320328,-6.941365356,3.302582245,13.6859247
3.953641667,-10.75049423,-6.447841644,3.517984314,13.02013831
3.963644667,-10.30247589,-5.858966217,3.552263031,12.37283586
3.973648667,-10.06447083,-5.235812073,3.494034119,11.87078664
3.983651667,-9.893226929,-4.568200378,3.461401978,11.4335339
3.993654667,-9.601034546,-3.928430786,3.475921783,10.94049656
4.003657667,-9.334888,-3.398083649,3.435954895,10.51155995
4.013660667,-9.261540527,-3.082689514,3.376528473,10.32860359
4.023664667,-9.001980286,-2.784210205,3.298989716,9.983526865
4.033667667,-8.633746033,-2.569107513,3.178639984,9.552258169
4.043670667,-8.322992249,-2.475552063,3.011138306,9.190620865
4.053673667,-8.115523682,-2.478096771,2.875370636,8.959377463
4.063677667,-7.956254883,-2.489173737,2.864892426,8.815077212
4.073680667,-7.716453552,-2.444566498,2.867586823,8.587352035
4.083683667,-7.45928833,-2.474653931,2.802472229,8.343784816
4.093686667,-7.20541626,-2.618504791,2.666405182,8.116914895
4.103690667,-6.953190765,-2.713706818,2.558778992,7.890400271
4.113693667,-6.747219086,-2.830164642,2.495610352,7.730644754
4.123696667,-6.669081573,-3.003055115,2.465522919,7.718406074
4.133699667,-6.593039703,-3.206182709,2.471360779,7.736627443
4.143702667,-6.459367676,-3.397784271,2.479893036,7.708322658
4.153706667,-6.273454285,-3.605402527,2.437680817,7.635276276
4.163709667,-6.12885498,-3.861370239,2.408641205,7.633779925
4.173712667,-6.026916962,-4.097728729,2.381547546,7.667260105
4.183715667,-5.863606567,-4.300257568,2.315834198,7.631329187
4.193719667,-5.760021973,-4.541406097,2.227966919,7.665902364
4.203722667,-5.69131485,-4.851411438,2.121238861,7.773474897
4.213725667,-5.694458313,-5.120551758,2.091899872,7.93869957
4.223728667,-5.551355896,-5.20108429,2.10731781,7.893644179
4.233732667,-5.379662933,-5.166805573,2.121238861,7.754760306
4.243735667,-5.284760284,-5.166955261,2.058369598,7.672222842
4.253738667,-5.293741608,-5.271887054,1.961520996,7.724251287
4.263741667,-5.40466095,-5.403014374,1.905537415,7.876166399
4.273745667,-5.599405975,-5.461542664,1.843865662,8.036270038
4.283748667,-5.865402832,-5.495522003,1.817670135,8.24060903
4.293751667,-6.154451752,-5.601351929,1.825753326,8.519729749
4.303754667,-6.27749588,-5.695206757,1.775158539,8.659880043
4.313757667,-6.077811127,-5.642516327,1.750160522,8.475897619
4.323761667,-5.87618042,-5.518723755,1.779798889,8.255512843
4.333764667,-6.0025177,-5.56258255,1.929038544,8.407956534
4.343767667,-6.600224762,-5.83052536,2.143392792,9.063780974
4.353770667,-7.352260895,-6.201753387,2.301464081,9.890107293
4.363774667,-8.015531616,-6.589596863,2.353256378,10.63998823
4.373777667,-8.425379333,-6.823260956,2.339634705,11.09133885
4.383780667,-8.566835175,-6.799909515,2.281405792,11.17292472
4.393783667,-8.45382019,-6.265969849,2.391726379,10.79119127
4.403787667,-8.304730225,-5.434299316,2.561024323,10.24982921
4.413790667,-8.201594696,-4.757406921,2.72508316,9.865351205
4.423793667,-8.203989716,-4.216731262,2.87956192,9.663236862
4.433796667,-8.473579102,-3.919599152,3.103196869,9.838426252
4.443799667,-8.96515686,-3.813170471,3.37458252,10.31029164
4.453803667,-9.532028046,-4.098177795,3.512445831,10.95408123
4.463806667,-10.08722351,-4.837789764,3.568878479,11.74279275
4.473809667,-10.39857605,-5.576353912,3.554208984,12.32308842
4.483812667,-10.51159103,-6.071973267,3.446283417,12.61900451
4.493816667,-10.89644073,-6.423442383,3.363056488,13.08828414
4.503819667,-11.31242569,-6.454427948,3.380270691,13.45573651
4.513822667,-11.50672165,-6.083948364,3.202739868,13.40435054
4.523825667,-11.60117523,-5.507796478,2.806064758,13.14523063
4.533829667,-11.55297546,-4.71893692,2.335742798,12.69627119
4.543832667,-11.31961075,-3.885619812,1.812281342,12.10437906
4.553835667,-11.10136459,-3.175945587,1.298699341,11.61953296
4.563838667,-10.84809128,-2.590962067,0.9891430664,11.19698945
4.573841667,-10.65020279,-1.994452515,1.072070618,10.88825035
4.583845667,-10.59885956,-1.502276001,1.405128021,10.79662178
4.593848667,-10.39109161,-1.066232758,1.659000092,10.57657404
4.603851667,-10.09231293,-0.7125183105,1.93772049,10.30132143
4.613854667,-9.64264801,-0.3900888062,2.318528595,9.925140038
4.623858667,-9.127120056,-0.209564209,2.722239075,9.526742531
4.633861667,-8.697812805,-0.2001338196,3.030448151,9.21279638
4.643864667,-8.296796722,-0.2570155334,3.145109711,8.876632691
4.653867667,-8.014633484,-0.3688330078,3.07730072,8.593030164
4.663871833,-7.858208771,-0.5051994324,2.77073822,8.347674037
4.673874833,-7.741750946,-0.5977070618,2.444416809,8.140462823
4.683877833,-7.733218689,-0.6454577637,2.189047852,8.062953399
4.693880833,-7.826774139,-0.7134164429,1.860780487,8.076500509
4.703883833,-7.971672821,-0.8195457458,1.432071991,8.14064205
4.713887833,-8.060288544,-0.892893219,0.9650431824,8.166811988
4.723890833,-8.189619598,-0.9836045837,0.6679110718,8.275472938
4.733893833,-8.517437897,-1.104702759,0.5406756592,8.605779841
4.743896833,-8.872649231,-1.204395447,0.492026825,8.967528264
4.753900833,-9.123527527,-1.309027863,0.4435276794,9.227622949
4.763903833,-9.439370728,-1.503922577,0.3978726196,9.566702957
4.773906833,-9.853858795,-1.716330872,0.4001179504,10.01021574
4.783909833,-10.35067566,-1.925895081,0.5239105225,10.54134909
4.793913833,-10.97158447,-2.1260289,0.6951544189,11.19727219
4.803916833,-11.71419022,-2.34951416,0.9949809265,11.98884716
4.813919833,-12.56187744,-2.575843506,1.424587555,12.90213875
4.823922833,-13.37663315,-2.850073242,1.922003174,13.8112754
4.833925833,-14.14708099,-3.139571228,2.38693634,14.68653374
4.843929833,-14.94162872,-3.497027893,2.658172302,15.57393184
4.853932833,-15.58349396,-3.809577942,2.822829895,16.288847
4.863935833,-15.93047241,-3.882027283,2.929408264,16.65627569
4.873938833,-15.96879272,-3.69042572,3.044668579,16.67008068
4.883942833,-15.94948288,-3.471730499,3.188369751,16.63143465
4.893945833,-16.14991608,-3.599864044,3.248544617,16.86214258
4.903948833,-16.42175079,-4.203109589,3.187022552,17.24810546
4.913951833,-16.27550491,-4.872966614,3.129691772,17.27520866
4.923954833,-15.65504517,-5.311404877,3.007545776,16.80288048
4.933958833,-14.77592331,-5.234165497,2.866838379,15.93559413
4.943961833,-13.66089203,-4.75052124,2.779120789,14.7278965
4.953964833,-12.78132111,-4.173620911,2.705623627,13.71501659
4.963967833,-12.30486191,-3.745810547,2.583477631,13.11926369
4.973971833,-12.11221252,-3.600013733,2.531236267,12.88692935
4.983974833,-12.16535202,-3.866459656,2.463876343,13.00061486
4.993977833,-12.2810614,-4.522994385,2.53557724,13.33083266
