Time (s),Acceleration x (m/s^2),Acceleration y (m/s^2),Acceleration z (m/s^2),Absolute acceleration (m/s^2)
10.005644,0.1004411316,-10.30951126,0.6412664795,10.32992418
10.015648,-0.006735992432,-11.5299234,0.5281018066,11.54201328
10.025651,-0.2104623413,-11.87735092,-0.5057981873,11.8899786
10.035654,-0.2788700867,-11.25554398,-1.606609039,11.37304846
10.045657,-0.37676651,-10.43420197,-1.874252472,10.60789074
10.055661,-0.2459385681,-10.20428009,-1.201251984,10.27768574
10.065664,0.5932164001,-10.10264145,-0.590072937,10.13723118
10.075667,2.03127594,-9.950857086,-0.2857557678,10.16008342
10.085671,4.535568237,-10.43809387,-0.3267704773,11.38560327
10.095674,7.895930328,-12.38913666,-0.5887257385,14.70316363
10.105677,6.979835358,-14.21324341,-2.573448486,16.04235104
10.11568,3.650309143,-15.04581207,-3.209625549,15.81148045
10.125684,0.6797364807,-14.85885086,-2.030677185,15.01236625
10.135687,-2.022444305,-14.45259567,-0.416434021,14.59935683
10.14569,-2.979853363,-14.30111069,-0.8464897156,14.6327659
10.155693,-3.808380432,-13.49578537,-5.294939117,14.98920827
10.165697,-2.676134949,-12.62280075,-9.753267975,16.17476532
10.1757,0.3357518005,-12.14514404,-7.094496918,14.06943992
10.185703,2.693049774,-11.38727005,-1.621128845,11.81314924
10.195707,3.24929306,-10.36085449,2.191442871,11.07734774
10.20571,0.904119873,-10.30262558,5.050796814,11.50965139
10.215713,-4.711153107,-10.80408279,6.482719116,13.45172167
10.225716,-5.957760773,-12.11281128,6.512207794,14.98746012
10.23572,-5.843099213,-13.37259155,5.587730255,15.62660368
10.245723,-6.99824707,-14.61979797,2.534230042,16.40537341
10.255726,-7.49326767,-16.46007111,-5.902825012,19.02436186
10.26573,-6.437962189,-17.38844055,-7.887847137,20.1500212
10.275733,-6.276148682,-17.00838089,-2.995271301,18.37516566
10.285736,-5.587730255,-15.73827209,-0.2550695801,16.70272428
10.295739,-4.278852081,-15.05853561,0.07454498291,15.65482759
10.305743,-3.384461975,-14.67144058,-0.7704478455,15.0764499
10.315746,-2.066901855,-13.55835526,-1.162931671,13.7642105
10.325749,-1.19466568,-12.39377701,-0.9392967224,12.48660134
10.335752,-0.5861810303,-10.75872711,0.3558100891,10.78055741
10.345756,0.2257305908,-9.82407074,0.445922699,9.836776263
10.355759,0.7725434875,-9.00961441,-0.5897735596,9.061887668
10.365762,0.9773176575,-8.325686646,-1.006806335,8.443095814
10.375766,1.287472687,-7.645650787,-1.42638382,7.883408697
10.385769,1.370699615,-7.612719269,-1.225351868,7.831589832
10.395772,1.12565918,-7.0708461,-0.9912387085,7.228175934
10.405775,0.6978488159,-6.01419342,-0.2767744446,6.060867888
10.415779,-0.06167175293,-4.830455017,0.6216572571,4.870683404
10.425782,-1.00036972,-3.70329895,0.8325686646,3.925344988
10.435785,-1.833986206,-3.043620758,0.8560697937,3.655131764
10.445789,-2.035018158,-3.031945038,0.7918533325,3.73644501
10.455792,-2.31209198,-3.542832642,1.127455444,4.378194631
10.465795,-2.712808685,-3.41784256,1.669777679,4.672166117
10.475798,-3.529210968,-2.567610626,2.138602753,4.8602033
10.485802,-3.925437012,-1.839225311,1.690434723,4.652888891
10.495805,-3.902983704,-1.393302612,1.686243439,4.474146946
10.505808,-3.592529297,-1.228495331,1.890718231,4.241495368
10.515811,-2.753524017,-0.9891430664,1.057850189,3.11116466
10.525815,-2.244732056,-1.248403931,0.1224453735,2.571444583
10.535818,-1.902992706,-1.803000641,-0.5966592407,2.688530231
10.545821,-1.657802582,-2.592009888,-1.549877014,3.445133295
10.555825,-1.712888031,-3.812571716,-3.137625275,5.226316185
10.565828,-1.883383484,-5.720354462,-5.493126984,8.15132091
10.575831,-1.182540894,-8.504414978,-8.371641083,11.99199114
10.585834,0.04565505981,-12.45993942,-11.89516388,17.22634896
10.595838,2.369273071,-17.57600052,-14.95001129,23.19551868
10.605841,3.12999115,-24.03177567,-15.42676987,28.7281798
10.615844,1.375789032,-27.99149139,-17.65428772,33.12235289
10.625847,1.30348938,-25.29724411,-14.32715652,29.10183943
10.635851,0.720302124,-19.03277115,-7.093748474,20.32452903
10.645854,0.2195933533,-11.76044403,-5.209017792,12.86429677
10.655857,1.430126038,-5.409600677,-8.786727905,10.41708343
10.665861,2.215692444,-1.266216888,-10.51653076,10.82173819
10.675864,3.038830719,0.9075627136,-9.416318665,9.936056532
10.685867,3.418441315,-0.2671943665,-8.251740417,8.935790607
10.69587,1.291214905,-3.687431946,-6.676865387,7.735949953
10.705874,-1.750010834,-7.761509857,-2.676883392,8.394598137
10.715877,-5.4982164,-12.98564621,3.685186615,14.57525271
10.72588,-10.73986633,-18.22999054,7.718549194,22.5222842
10.735884,-14.04888519,-21.66789139,7.832162933,26.98539362
10.745887,-9.264983368,-23.54094635,-2.901416473,25.46437294
10.75589,0.5628295898,-17.54875717,-8.078700256,19.32721018
10.765893,-2.1260289,-7.26978241,-1.918560333,7.813488908
10.775897,-8.158035278,-0.4766088867,-4.111799469,9.148092179
10.7859,-9.776320038,1.031205597,-4.872667236,10.97190523
10.795903,-4.147275696,-0.9283694458,1.149759064,4.402693656
10.805906,-1.314416656,-4.780908051,8.126001892,9.519279368
10.81591,-3.793860626,-8.925938416,7.150181122,12.04951639
10.825913,-4.620890808,-11.83888092,6.110742645,14.10152151
10.835916,-4.34920578,-13.92643982,5.474565582,15.58307368
10.84592,-3.986659698,-15.31734741,4.15026947,16.36274195
10.855923,-3.151546326,-15.74934906,2.754571838,16.29607026
10.865926,-0.8045768738,-15.2962413,0.4076023865,15.3228092
10.875929,2.568808136,-14.64853821,-3.682043152,15.32109293
10.885933,3.629951477,-13.54877518,-3.911216583,14.56171253
10.895936,3.416046295,-11.56360336,-3.27039917,12.49327042
10.905939,2.12842392,-9.769584045,-2.616858215,10.33551681
10.915943,0.5951623535,-8.714278564,-1.696721649,8.897849936
10.925946,-0.6393205261,-8.105644226,-1.441203003,8.257558062
10.93594912,-1.30348938,-7.88874527,-1.342408447,8.1076166
10.94595212,-1.541344757,-7.698191528,-0.7698490906,7.888635122
10.95595612,-1.38536911,-7.219487,0.3246748352,7.358373044
10.96595913,-1.292711792,-6.928192749,1.278341675,7.162758964
10.97596212,-1.516646118,-6.702761536,1.623972931,7.061481129
10.98596613,-1.465751953,-6.777755585,1.548829193,7.105298827
10.99596912,-0.8122109985,-7.443121948,0.8174501038,7.531797642
11.00597212,0.05628295898,-8.182883606,0.2125579834,8.185837329
11.01597512,0.4315525818,-8.727900238,-0.4345463562,8.74936059
11.02597912,0.5547463989,-8.838071136,-0.8809181213,8.899171968
11.03598213,0.5152285767,-8.331823883,-0.5947132874,8.368896797
11.04598512,0.3992198181,-8.040978699,-0.1716929626,8.052713417
11.05598813,0.2034269714,-7.990234222,-0.1933978271,7.995162799
11.06599212,-0.05837860107,-8.102949829,-0.5292993164,8.120428669
11.07599513,-0.4519102478,-8.325536957,-1.320404205,8.441697445
11.08599812,-0.7990383911,-8.744964752,-2.934048615,9.258591261
11.09600212,-0.443228302,-8.931177521,-4.324357452,9.932897393
11.10600513,0.1422042847,-9.386979675,-2.987637177,9.85198383
11.11600812,0.6523434448,-10.15742752,-0.8044271851,10.2100925
11.12601113,0.8369096375,-10.98610428,0.5074447632,11.02961491
11.13601512,0.8756790161,-11.61270126,0.7530839539,11.66999485
11.14601813,0.999022522,-11.58845169,0.01646575928,11.63144573
11.15602112,1.080602875,-10.97188385,-1.100062408,11.07971458
11.16602512,1.097068634,-10.11626312,-2.020049286,10.37414759
11.17602813,1.436412964,-9.44850174,-2.414479065,9.857341248
11.18603112,2.230062561,-9.085356903,-2.199675751,9.610174946
11.19603413,3.936813354,-9.69997879,-1.528770905,10.57947203
11.20603812,6.899901581,-11.37664215,-0.1935475159,13.30691884
11.21604113,6.504274292,-13.75175308,-0.3525169373,15.21645705
11.22604412,4.941524048,-15.17559219,-0.7038363647,15.97537618
11.23604812,2.444865875,-15.56403442,-0.1869612122,15.75599858
11.24605112,-1.403032379,-15.38994644,0.7414082336,15.47154283
11.25605412,-3.442241821,-15.36869064,-0.007484436035,15.74946783
11.26605713,-4.069138184,-15.19819519,-3.993246002,16.23234537
11.27606112,-4.14682663,-14.67368591,-9.287137299,17.85396731
11.28606413,-1.383423157,-14.37071594,-7.880811768,16.44805552
11.29606712,0.2709365845,-14.17716843,-2.073637848,14.33057867
11.30607113,-0.4141886902,-12.79194901,2.54725296,13.04967468
11.31607412,-3.826043701,-10.63059357,5.110522614,12.40022465
11.32607712,-5.278173981,-9.388626251,6.105952606,12.38095637
11.33608013,-4.444707184,-9.518256683,6.378236389,12.28961072
11.34608412,-4.064797211,-10.36040543,5.333409119,12.34122481
11.35608713,-4.054468689,-12.64151184,0.2327659607,13.27782806
11.36609012,-4.529281311,-15.54083267,-7.03686676,17.65076098
11.37609413,-5.769452362,-16.97275497,-5.05004837,18.6242847
11.38609712,-6.113437042,-16.26951736,-1.322350159,17.43043079
11.39610012,-5.842051392,-15.24444901,0.43409729,16.33129604
11.40610313,-5.457201691,-14.78894623,0.4105961609,15.76903834
11.41610712,-5.401367798,-15.15328857,-1.263073425,16.1366751
11.42611013,-4.939578094,-15.00539612,-1.518292694,15.87030425
11.43611312,-3.567531281,-13.70175705,-0.982407074,14.19262306
11.44611613,-2.296374664,-12.31279541,0.2035766602,12.52675979
11.45612012,-1.495839386,-10.69091812,0.8225395203,10.8263492
11.46612312,0.3128494263,-8.817264404,0.7902067566,8.858129208
11.47612613,2.166594543,-7.612419891,0.5095404053,7.931122237
11.48613012,2.869981842,-7.383396149,-0.6599775696,7.949019113
11.49613313,3.027604065,-6.705006866,-1.583856354,7.525430513
11.50613612,1.922152863,-6.037993927,-1.337169342,6.476114895
11.51613913,0.510737915,-5.531896362,-0.5216651917,5.579862467
11.52614312,0.07888595581,-4.680017853,0.1917512512,4.684608696
11.53614612,0.5093907166,-4.458328857,0.698896637,4.541434973
11.54614913,0.494122467,-4.307742004,1.490450592,4.585001762
11.55615312,-0.1953437805,-3.656147003,1.527872772,3.967362513
11.56615613,-1.603465576,-2.851570129,0.980760498,3.415325052
11.57615912,-3.598816223,-1.65211441,0.7851173401,4.037000058
11.58616213,-3.331322479,-1.348545685,2.052980804,4.138963047
11.59616612,-3.395688629,-1.252744904,2.018552399,4.144227895
11.60616912,-3.712579651,-0.9855505371,1.372196503,4.07890681
11.61617212,-3.806135101,-1.087638245,2.0172052,4.442829974
11.62617612,-3.029849396,-0.8011340332,1.544039154,3.493688597
11.63617913,-2.382146301,-0.8942404175,0.724044342,2.645472951
11.64618212,-2.082020416,-1.811682587,-0.4670288086,2.799128207
11.65618513,-1.504221954,-2.862198029,-1.297352142,3.483960939
11.66618912,-0.7686515808,-3.921994171,-2.781366119,4.869174573
11.67619212,-0.1754351807,-5.870641937,-5.980812836,8.382442152
11.68619512,0.3975732422,-9.245823212,-9.893526306,13.54714635
11.69619912,1.446591797,-13.21062836,-14.13540527,19.40162394
11.70620213,2.558479614,-18.156194,-17.5471106,25.37901276
11.71620512,1.828447723,-24.70881775,-19.15970718,31.32033325
11.72620813,0.7141648865,-27.13422409,-20.75029953,34.16651986
11.73621212,1.514251099,-22.29179398,-13.51823868,26.11436026
11.74621513,0.8478369141,-15.86700439,-5.128185883,16.69667471
11.75621812,1.062939606,-9.462422791,-4.311184845,10.45244471
11.76622212,1.05545517,-4.82431778,-7.771239624,9.20761603
11.77622513,0.7354206848,-2.5613237,-8.055797882,8.485110618
11.78622812,1.309027863,-3.040177917,-8.632099457,9.24496494
11.79623113,0.2894979858,-6.604266357,-9.634864197,11.68463741
11.80623512,-2.920426941,-12.16011292,-5.918542328,13.83569235
11.81623813,-7.049290924,-17.91100388,1.364562378,19.29659537
11.82624112,-10.09216324,-20.70105194,8.068222046,24.40248998
11.83624412,-12.1152063,-21.18289993,8.418942719,25.8141835
11.84624813,-5.516328735,-15.84679642,-3.095413055,17.06260301
11.85625112,-3.254382477,-7.250771942,-3.642076263,8.742392039
11.86625413,-7.162455597,-1.754052429,-1.458716583,7.51700234
11.87625812,-9.216633911,1.537901917,-3.453917542,9.961979188
11.88626113,-5.593717804,0.7807763672,-1.975591736,5.983498418
11.89626412,-0.2841091919,-3.541335754,6.593039703,7.489322365
11.90626712,-1.006057892,-8.827892303,9.448950806,12.97021613
11.91627112,-3.121309204,-11.08774292,6.940018158,13.44784244
11.92627412,-3.434458008,-12.52325775,5.868396606,14.25010755
11.936277,-3.139870605,-14.30141006,4.952301636,15.45685637
11.946281,-2.56716156,-15.12978745,3.508104858,15.74190542
11.956284,0.7918533325,-15.16930527,-0.7249424744,15.20724813
11.966287,5.056784363,-15.26944702,-6.575526123,17.37712934
11.97629,4.594246216,-14.31248703,-4.075724487,15.57452771
11.986294,4.301904144,-12.13137268,-5.199587402,13.88208527
11.996297,2.639610901,-10.54452255,-5.736221466,12.29059552
12.0063,0.5231620789,-9.961484985,-3.860172729,10.69606541
12.016304,-0.6738986206,-8.893455963,-2.176773376,9.180742925
12.026307,-1.350042572,-7.602241058,-1.148561554,7.806143587
12.03631,-1.83697998,-6.576274567,-0.2624043274,6.833062173
12.046313,-2.129920807,-6.112089844,0.7622149658,6.517298256
12.056317,-2.183659058,-6.149661713,1.752705231,6.757120813
12.06632,-2.000290375,-6.447093201,2.098336487,7.068888762
12.076323,-1.303938446,-6.954537964,1.443448334,7.221453929
12.086327,-0.4364923096,-7.760462036,0.6057902527,7.796299018
12.09633,0.0426612854,-8.438102875,0.3685336304,8.446254622
12.106333,-0.09310638428,-8.60829895,0.4366419983,8.619868668
12.116336,-0.4773573303,-8.40472229,0.2453398132,8.421841747
12.12634,-0.5016069031,-8.098309479,0.03233276367,8.11389372
12.136343,-0.3793112183,-7.855065308,-0.01945953369,7.864242281
12.146346,-0.3650907898,-7.66286499,-0.1080752563,7.672318516
12.15635,-0.4318519592,-7.858358459,-0.2276765442,7.873508138
12.166353,-0.8997789001,-8.436156921,-0.2736309814,8.488416789
12.176356,-0.9116043091,-8.425079956,-0.806073761,8.512505483
12.186359,-1.168021088,-8.566535797,-1.530567169,8.780230332
12.196363,-1.549128571,-9.065448303,-1.976190491,9.406778467
12.206366,-1.649120636,-9.691596222,-2.127825165,10.05854245
12.216369,-1.457219696,-10.21969803,-1.862277374,10.48969943
12.226372,-1.01803299,-10.76666061,-0.9735754395,10.85841706
12.236376,-0.518821106,-11.18983063,0.04715194702,11.20195109
12.246379,-0.07244934082,-11.0986702,0.5135820007,11.11078285
12.256382,0.7182064819,-10.76052338,0.176333313,10.78590642
12.266386,2.160307617,-10.28331573,-0.710123291,10.53175135
12.276389,4.441563721,-10.23960663,-1.610500946,11.27700073
12.286392,8.338410187,-11.42229721,-1.159339142,14.18950405
12.296395,9.9785495,-13.32349365,-1.219813385,16.69056254
12.306399,7.65582962,-14.74029739,-2.460134125,16.79107961
12.316402,4.357288971,-15.33381317,-2.828667755,16.18990904
12.326405,1.456171875,-15.85862183,-1.466500397,15.99271541
12.336409,-1.110989685,-15.94888412,0.6732998657,16.00170415
12.346412,-3.059487762,-15.22394165,-1.455124054,15.59635376
12.356415,-3.787274323,-14.21683594,-6.310427399,16.0088527
12.366418,-3.011287994,-13.61119537,-7.562573547,15.85954014
12.376422,-1.704655151,-13.33921097,-3.728596344,13.95502881
12.386425,-1.011147308,-12.86799088,-0.1743873596,12.90883492
12.396428,-3.804787903,-11.78574142,2.820135498,12.70170367
12.406431,-6.743327179,-10.61113403,5.7755896,13.83568076
12.416435,-6.45308075,-10.37073395,6.636150055,13.90082233
12.426438,-5.354066162,-10.88251968,6.197861481,13.62015955
12.436441,-4.515809326,-12.1111647,3.788322144,13.46938117
12.446445,-4.299060059,-14.84837265,-6.277944946,16.68438433
12.456448,-4.639003143,-17.183367,-8.494086456,19.72151
12.466451,-4.795876923,-16.4521376,-3.287313995,17.44934671
12.476454,-4.420158234,-14.78011459,-1.425485687,15.49263037
12.486458,-4.426295471,-14.62818054,-1.039438477,15.31849176
12.496461,-4.828808441,-15.11002853,-1.911824341,15.97765394
12.506464,-4.190386047,-14.19333481,-1.721869354,14.89882285
12.516468,-2.822081451,-12.85751266,-1.075962524,13.20747784
12.526471,-2.156565399,-11.7448764,0.04176315308,11.94129977
12.536474,-1.517244873,-10.55036041,1.045875092,10.71008831
12.546477,-0.08831634521,-8.810827789,0.7479945374,8.842962283
12.556481,1.597777405,-7.633076935,-0.4212240601,7.809877453
12.566484,2.581681366,-7.087311859,-1.366059265,7.665584517
12.576487,2.424807587,-6.402186584,-0.7056326294,6.882267236
12.58649,1.193617859,-6.020779724,-0.6987469482,6.177601426
12.596494,0.4245172119,-5.321883087,-0.8726852417,5.409642686
12.606497,0.3174897766,-5.097948761,0.1740879822,5.110791324
12.6165,0.1871109009,-4.894222412,1.33387619,5.076184512
12.626504,-0.219743042,-3.988905029,1.742376709,4.358385817
12.636507,-0.7234455872,-3.282823334,0.8030799866,3.456188656
12.64651,-1.656305695,-2.924767914,0.9828561401,3.501945473
12.656513,-2.994073792,-2.471809845,0.7661068726,3.95742865
12.666517,-3.364253998,-2.049837341,0.4065545654,3.960470263
12.67652,-3.639980621,-1.518592072,1.222058716,4.129044479
12.686523,-3.598965912,-1.083147583,1.590442657,4.081087131
12.696527,-3.165467377,-0.8949888611,1.453627167,3.596417761
12.70653,-2.649190979,-1.165027313,0.7978408813,3.002007921
12.716533,-2.265089722,-1.600022736,0.2395019531,2.783534693
12.726536,-1.862876129,-2.204914856,-0.615819397,2.951472603
12.73654,-1.236428833,-3.131937103,-1.516197052,3.692782119
12.746543,-0.506995697,-4.107458496,-2.603535919,4.889443651
12.756546,0.09924362183,-5.729186096,-4.939428406,7.56514214
12.766549,0.6146218872,-8.404273224,-8.388555908,11.8902245
12.776553,1.349294128,-12.21489899,-11.77211975,17.01784814
12.786556,2.765798492,-17.05179062,-15.95786545,23.51736963
12.796559,2.806813202,-23.70575363,-17.66536469,29.69690329
12.806563,0.7020401001,-27.1487439,-19.13890045,33.22415787
12.816566,-1.360520782,-22.57605286,-14.30709824,26.76232873
12.826569,-0.07963439941,-17.15507584,-7.792645111,18.84219431
12.836572,-0.6530918884,-11.21692429,-4.917274475,12.26480769
12.846576,-0.5137316895,-5.294340363,-6.769223328,8.609085003
12.856579,-1.19466568,-2.098336487,-8.916208649,9.237370771
12.866582,-1.741628265,-2.645299072,-8.777896271,9.33179185
12.876586,-2.224823456,-6.404431915,-9.721533966,11.85220698
12.886589,-3.652105408,-11.07457031,-7.746990051,13.99999416
12.896592,-5.227728882,-15.79081284,-0.08187973022,16.63386977
12.906595,-6.775809631,-18.68025421,7.200326843,21.13547256
12.916599,-9.584419098,-19.77597565,10.76501404,24.47112236
12.926602,-4.563560028,-17.45639923,1.893113251,18.14210109
12.936605,-0.2954855347,-11.610905,-2.205962677,11.82229664
12.94660792,-4.224814453,-5.698499908,-0.8277786255,7.141930819
12.95661192,-6.774013367,-0.905766449,-3.828588409,7.833630012
12.96661492,-6.436465302,0.07364685059,-4.115841064,7.640265513
12.97661792,-1.990111542,-2.435435486,2.653831329,4.115180516
12.98662192,-1.46141098,-6.725214844,8.450826416,10.89865606
12.99662492,-3.610042877,-9.547745361,6.958579559,12.35369097
13.00662792,-4.287833405,-11.45313309,5.419480133,13.37649198
13.01663092,-4.051474915,-13.44563965,4.605772247,14.77879604
13.02663492,-3.381917267,-14.776073,3.22594162,15.49762553
13.03663792,-1.479972382,-15.40252029,1.729802856,15.56984803
13.04664092,3.233725433,-15.71806412,-3.426823883,16.40907193
13.05664492,5.206323395,-15.32962189,-5.536536713,17.11012417
13.06664792,4.363575897,-13.25748093,-4.265829163,14.59448161
13.07665092,2.933300171,-10.68567902,-5.193749542,12.23777023
13.08665392,1.033001862,-9.474098511,-4.59604248,10.58060688
13.09665792,-0.3538641357,-8.848249969,-3.17205368,9.406310217
13.10666092,-0.9605525208,-7.662266235,-1.738933868,7.915609642
13.11666392,-1.174457703,-6.644233246,-0.7827223206,6.792484122
13.12666692,-1.515747986,-6.117029572,-0.1710942078,6.304348972
13.13667092,-1.457070007,-5.808820496,0.620609436,6.020847501
13.14667392,-0.9584568787,-5.931864624,1.114133148,6.111215115
13.15667692,-0.8755293274,-6.528972931,1.200802917,6.695966456
13.16668092,-0.08158035278,-7.185208282,0.9526190186,7.248541675
13.17668392,0.6384223938,-7.885601807,0.4363426208,7.923426903
13.18668692,0.7354206848,-8.369096375,0.2583627319,8.405317901
13.19668992,0.2944377136,-8.46205307,0.3978726196,8.476516876
13.20669392,0.1050814819,-8.262068939,0.2630030823,8.266921791
13.21669692,0.09131011963,-8.172255707,-0.3056643677,8.178479784
13.22669992,-0.1633103943,-8.169261932,-0.7167095947,8.20226697
13.23670392,-0.6857240295,-8.060438232,-0.6761439514,8.11776155
13.24670692,-0.8310717773,-7.897576904,-1.553768921,8.091761188
13.25670992,-0.763711853,-7.831713867,-3.242856445,8.5108822
13.26671292,-0.8202941895,-8.43630661,-3.722459106,9.257475551
13.27671692,-0.5620811462,-9.40045166,-2.001487885,9.627584348
13.28671992,-0.01930984497,-10.15473312,-0.2779719543,10.15855532
13.29672292,-0.2392025757,-10.74884766,0.08307723999,10.75182987
13.30672692,-0.7581733704,-11.15001343,-0.3052153015,11.17992767
13.31672992,-0.7131170654,-10.98879868,-0.9154962158,11.04990342
13.32673292,-0.4694238281,-10.72100555,-1.161135406,10.79391283
13.33673592,0.1553768921,-10.3740271,-0.9415420532,10.41782519
13.34673992,1.491348724,-9.964778137,-0.8708889771,10.11332645
13.35674292,3.29030777,-10.07345215,-1.190324707,10.66383779
13.36674592,6.143823853,-11.32664612,-0.9644444275,12.92167315
13.37674992,8.671168213,-13.37019653,-0.4541555786,15.94232012
13.38675292,6.065836029,-15.00599487,-1.972597961,16.30537922
13.39675592,2.507585449,-15.21106842,-1.914818115,15.53483555
13.40675892,0.6740483093,-15.18337601,0.05942642212,15.19844662
13.41676292,-1.729653168,-15.3095636,1.328637085,15.46414285
13.42676592,-3.737727356,-14.66934494,1.315913544,15.19512801
13.43676892,-3.919299774,-13.82225647,-4.961432648,15.19972034
13.44677292,-1.905238037,-13.07845322,-9.830058289,16.47136656
13.45677592,0.1442999268,-13.03339691,-4.590803375,13.81903517
13.46677892,1.084045715,-13.24475739,0.3421884155,13.29345125
13.47678192,-0.736917572,-13.03339691,3.049159241,13.40559042
13.48678592,-5.077291718,-12.16939362,5.628595276,14.33715861
13.49678892,-7.496261444,-11.27141098,7.405550079,15.42986757
13.50679192,-6.813082123,-10.97368011,7.545658722,14.95916805
13.51679592,-7.373516693,-11.7143399,5.010081482,14.72057826
13.52679892,-7.279512177,-13.66628082,-2.940335541,15.76084078
13.53680192,-6.048771515,-15.84724548,-8.244555359,18.85989182
13.54680592,-5.782026215,-16.26188324,-4.301604767,17.78719981
13.55680892,-5.698499908,-15.99543732,-1.337169342,17.03276073
13.56681192,-5.360802155,-15.78272964,-0.6313870239,16.68026991
13.57681492,-5.176385651,-15.54068298,-1.288370819,16.4306937
13.58681892,-4.134103088,-15.08682678,-1.672172699,15.73211086
13.59682192,-2.357148285,-13.71807312,-1.163979492,13.96769582
13.60682492,-0.8629554749,-12.40575211,0.2715353394,12.43869402
13.61682892,-0.007484436035,-10.77668976,1.438358917,10.8722571
13.62683192,1.07177124,-9.149423676,1.242566071,9.295408416
13.63683492,2.533780975,-8.325686646,0.8276289368,8.741971963
13.64683792,3.394491119,-7.525001678,-0.4537065125,8.267652014
13.65684192,2.723885651,-6.45188324,-1.417252808,7.145275075
13.66684492,1.310973816,-5.641169128,-1.622476044,6.014471714
13.67684792,0.3002755737,-4.778513031,-1.318907318,4.966273122
13.68685192,0.03577560425,-4.499642944,-0.5227130127,4.530043644
13.69685492,0.3357518005,-4.815336456,0.4454736328,4.847539708
13.70685792,0.143102417,-4.187991028,0.8798703003,4.281812571
13.71686192,-0.4267625427,-3.503015442,1.098116455,3.695822399
13.72686492,-1.321152649,-3.031495972,1.134191437,3.495969445
13.73686792,-2.449655914,-2.379751282,1.079405365,3.581779754
13.74687092,-3.292702789,-1.722917175,1.350791016,3.954108195
13.75687492,-4.041894836,-1.072519684,1.646725616,4.494320593
13.76687792,-4.069886627,-0.8045768738,1.736538849,4.497431298
13.77688092,-3.486549683,-0.7735913086,1.767674103,3.984864356
13.78688492,-2.681972809,-0.9849517822,1.421144714,3.191043788
13.79688792,-2.080523529,-1.512604523,0.8195457458,2.699667725
13.80689092,-1.59134079,-2.072290649,0.1654060364,2.618036135
13.81689492,-1.108295288,-2.648442535,-0.5129832458,2.916456432
13.82689792,-0.7280859375,-3.498674469,-1.816772003,4.008926625
13.83690092,-0.458795929,-4.799020386,-4.013603668,6.272966186
13.84690392,-0.5445675659,-7.009473724,-6.911427612,9.858859334
13.85690792,-0.6494993591,-10.20832169,-10.3421434,14.54618889
13.86691092,0.5019062805,-14.30769699,-15.29219971,20.94787519
13.87691392,2.190694427,-20.54597443,-17.49965927,27.07719117
13.88691792,0.9286688232,-27.82533691,-19.18260956,33.80952986
13.89692092,0.746048584,-28.41136826,-18.73578873,34.0410372
13.90692392,1.101259918,-22.64999908,-10.8955426,25.15845942
13.91692692,0.05852828979,-15.28905624,-4.841382294,16.03738286
13.92693092,0.9719288635,-7.556885376,-5.661975861,9.492583049
13.93693392,1.358275452,-2.609673157,-8.549920349,9.041927016
13.94693754,2.033970337,0.03233276367,-7.92496994,8.181884214
13.95694154,3.052003326,-0.1297801208,-7.808063049,8.384355417
13.96694454,1.853296051,-3.46574295,-6.20848938,7.347885467
13.97694754,-2.175575867,-7.586523743,-1.271755371,7.994112494
13.98695154,-7.331903229,-12.17822525,3.195854187,14.56981329
13.99695454,-11.46076721,-16.83354446,5.966891785,21.22077289
14.00695754,-13.90608215,-19.64814148,6.776408386,25.00696493
14.01696054,-10.50290909,-21.92176346,-3.240910492,24.52301599
14.02696454,0.1507365417,-17.75892014,-10.08662476,20.42405359
14.03696754,-2.187401276,-7.93200531,0.6012995911,8.250029926
14.04697054,-9.749974823,-1.124611359,-1.330583038,9.904403616
14.05697454,-11.02382584,0.6469546509,-6.604116669,12.86692051
14.06697754,-3.854334869,-1.16068634,-0.1460961914,4.027956574
14.07698054,0.2591111755,-5.532345428,7.782466278,9.552003241
14.08698454,-2.133363647,-9.405541077,7.673792267,12.32487449
14.09698754,-3.88816452,-11.31242569,6.039191437,13.40002356
14.10699054,-4.101470947,-12.9566066,5.119653625,14.52262276
14.11699354,-3.769161987,-14.79268845,3.944297791,15.76666416
14.12699754,-2.763852539,-16.1362944,2.442620544,16.55250051
14.13700054,0.00419128418,-16.63011749,-1.010698242,16.66080239
14.14700354,2.907404022,-16.21173752,-3.716621246,16.8845108
14.15700754,3.501518555,-14.55827591,-3.15918045,15.30308631
14.16701054,3.614234161,-11.89471481,-3.121608582,12.81761948
14.17701354,2.034868469,-9.612859955,-2.265838165,10.08373883
14.18701754,-0.4586462402,-8.524622955,-1.504521332,8.668514137
14.19702054,-1.559457092,-7.959248657,-1.698667603,8.286556416
14.20702354,-2.288291473,-7.385641479,-1.608554993,7.8975583
14.21702654,-2.596051483,-6.950945435,-0.7714956665,7.459914966
14.22703054,-1.9083815,-6.458020477,0.7545808411,6.776233517
14.23703354,-1.703906708,-5.962101746,2.121538239,6.553692073
14.24703654,-1.63924118,-6.007457428,2.7391539,6.802912647
14.25704054,-0.9623487854,-6.700067139,2.638114014,7.264754669
14.26704354,0.08158035278,-7.59969635,1.987117767,7.855614361
14.27704654,0.3477268982,-8.170010376,1.67202301,8.346594784
14.28704954,-0.06152206421,-8.500074005,1.340462494,8.605340363
14.29705354,-0.5789959717,-8.471184082,0.9415420532,8.542991135
14.30705654,-1.04018692,-8.262068939,0.330662384,8.333853226
14.31705954,-0.9475296021,-7.780370636,-0.5545967102,7.857452328
14.32706354,-0.9114546204,-7.613467712,-1.311871948,7.779244702
14.33706654,-0.5081932068,-7.636669464,-2.760110321,8.136042639
14.34706954,0.05718109131,-8.077652435,-4.805606689,9.399233703
14.35707354,0.06451583862,-9.001231842,-4.400549011,10.01953934
14.36707654,0.2983296204,-9.616003418,-1.394949188,9.721234774
14.37707954,0.5545967102,-9.96567627,0.7753875732,10.01116911
14.38708254,0.6292913818,-10.53569092,1.387165375,10.64523455
14.39708654,0.4971162415,-11.1185788,0.7813751221,11.15708143
14.40708954,0.7080276489,-11.23788071,-0.6387217712,11.27826367
14.41709254,1.096020813,-10.58299255,-2.261048126,10.87719319
14.42709654,0.9530680847,-9.808652802,-3.085982666,10.32672734
14.43709954,0.7547305298,-9.094038849,-2.688110046,9.512996183
14.44710254,1.292562103,-8.67730545,-1.864373016,8.968959439
14.45710654,2.637215881,-9.265582123,-1.256936188,9.715235883
14.46710954,6.266568604,-11.35224289,-0.09295669556,12.96734135
14.47711254,7.871980133,-14.02747971,0.3724255371,16.08965378
14.48711554,5.566923523,-15.61642548,-0.5221142578,16.58722356
14.49711954,2.523003387,-15.6373819,-1.504970398,15.91094575
14.50712254,-0.4116439819,-15.13936752,-1.046324158,15.18106367
14.51712554,-3.919150085,-15.35985901,0.5769003296,15.86246577
14.52712954,-5.447771301,-15.02740036,-3.326233063,16.32681231
14.53713254,-3.758683777,-14.31742676,-8.48076416,17.05988785
14.54713554,-0.5358856201,-14.07493103,-5.930667114,15.28278997
14.55713954,2.627785492,-13.81941238,-2.288590851,14.25198454
14.56714254,3.276686096,-12.76799881,-0.1387614441,13.18247777
14.57714554,1.103804626,-11.93019104,1.276844788,12.04899064
14.58714854,-4.939129028,-10.72759186,4.023333435,12.47651532
14.59715254,-6.916666718,-10.20532791,6.372997284,13.87818758
14.60715554,-5.463039551,-11.36287079,6.907236328,14.37600596
14.61715854,-5.558990021,-13.25957657,5.698499908,15.46582174
14.62716254,-6.980134735,-16.20485184,-0.4734654236,17.65059981
14.63716554,-6.753506012,-19.07483368,-7.468269653,21.56928777
14.64716854,-5.647456055,-19.27751221,-4.705764313,20.63154029
14.65717254,-4.980143738,-17.31329681,-1.710493011,18.09634948
14.66717554,-4.366270294,-15.32782562,-1.31980545,15.99213685
14.67717854,-4.91547821,-14.78026428,-1.416354675,15.64046671
14.68718154,-4.582869873,-14.41442505,-1.262175293,15.17799171
14.69718554,-3.304977264,-13.60939911,-0.315693512,14.00850746
14.70718854,-1.937121735,-12.36189331,0.6494993591,12.52959282
14.71719154,-0.9779164124,-10.94404175,0.8270301819,11.0187272
14.72719554,-0.02948867798,-9.395511932,0.6337820435,9.416909989
14.73719854,1.424886932,-8.285270691,0.2278262329,8.409989179
14.74720154,2.168241119,-7.806416473,-0.5878276062,8.123235132
14.75720554,2.054028625,-7.216343536,-1.319655762,7.618145375
14.76720854,0.7282356262,-6.348148956,-1.263073425,6.513422816
14.77721154,-0.1582209778,-5.113366699,-0.9113049316,5.196347713
14.78721454,-0.004041595459,-4.408332825,0.008083190918,4.408342088
14.79721854,0.1667532349,-3.59103241,1.162332916,3.778139518
14.80722154,-0.7560777283,-2.584974518,1.470092926,3.068374162
14.81722454,-1.085093536,-2.222129059,1.509610748,2.897276333
14.82722854,-1.097966766,-2.315534821,1.801204376,3.132342531
14.83723154,-1.850302277,-2.091899872,1.293460236,3.077775653
14.84723454,-2.681374054,-1.45437561,1.218615875,3.284813524
14.85723754,-3.250340881,-0.8074209595,1.34330658,3.608478491
14.86724154,-3.969894562,-1.038390656,1.796863403,4.479624546
14.87724454,-3.640878754,-1.020877075,1.309476929,4.001614415
14.88724754,-2.730621643,-1.147513733,0.8535250854,3.0824645
14.89725154,-2.214345245,-1.661095734,0.3556604004,2.790888429
14.90725454,-2.286195831,-1.8592836,-0.1175056458,2.949141309
14.91725754,-2.40564743,-2.006427612,-0.8488847351,3.245534874
14.92726154,-1.78907959,-2.491269379,-1.807341614,3.560015815
14.93726454,-1.018182678,-3.645818481,-3.449875946,5.121555663
14.94726692,-0.933608551,-5.806126099,-6.819967804,9.0052588
14.95726992,-0.06301895142,-9.318122864,-11.68335434,14.94430171
14.96727392,2.743494873,-14.21024963,-17.35625748,22.59862014
14.97727692,5.610932007,-21.20535324,-18.18912552,28.49550581
14.98727992,2.637066193,-29.17193665,-16.89910812,33.81620708
14.99728392,-1.405726776,-30.01333694,-16.02672226,34.05337412
