Time (s),Acceleration x (m/s^2),Acceleration y (m/s^2),Acceleration z (m/s^2),Absolute acceleration (m/s^2)
10.00309933,-4.114344177,-21.01330261,-4.984484711,21.98480845
10.01310233,-3.843407593,-16.40453659,-4.790637817,17.51658681
10.02310433,-3.689527588,-12.05084015,-3.815864868,13.16799859
10.03310733,-3.150947571,-8.787027283,-3.796105957,10.07723868
10.04311033,-3.286565552,-6.029910736,-3.197201385,7.575185365
10.05311333,-2.570305023,-3.629203033,-3.054847412,5.395338292
10.06311533,-0.6767427063,-1.823507996,-2.593506775,3.241826567
10.07311833,0.9683363342,-0.6982978821,-2.361788635,2.646382577
10.08312133,1.712738342,-0.07259902954,-2.450404358,2.99052249
10.09312333,2.762355652,0.2550695801,-0.9855505371,2.943973352
10.10312633,3.064726868,0.2920426941,0.6803352356,3.15288689
10.11312933,1.980381775,1.02027832,0.6620732117,2.324052659
10.12313133,0.8147557068,1.71184021,0.33230896,1.924747519
10.13313433,0.2424957275,1.891616364,0.427660675,1.954459081
10.14313733,-0.03248245239,2.131118317,0.2266287231,2.143380733
10.15314033,-0.9457333374,1.942061462,-1.360221405,2.552688101
10.16314233,-3.178939362,0.649050293,-6.637646942,7.388185073
10.17314533,-3.766617279,0.2016307068,-0.9036708069,3.878747426
10.18314833,-2.070793762,0.2878514099,3.572171631,4.139016236
10.19315071,-0.02874023438,-0.3520678711,2.921025696,2.942306732
10.20315371,0.8750802612,-0.8881031799,2.489473114,2.784235821
10.21315671,1.034199371,-1.1771521,1.531764679,2.191245864
10.22315971,0.9880952454,-1.199605408,0.7667056274,1.732980919
10.23316171,0.9999206543,-1.064286804,0.2389031982,1.479737292
10.24316471,1.016536102,-0.7949967957,-0.2472857666,1.313969483
10.25316771,0.9833052063,-0.3324586487,-0.9991722107,1.440750842
10.26316971,0.735869751,-0.1216969299,-1.939367065,2.077849621
10.27317271,0.4328997803,-0.09924362183,-1.582808533,1.643938675
10.28317571,0.1724414062,0.1282832336,-0.02948867798,0.2169382602
10.29317871,-0.02694396973,0.4261637878,0.8515791321,0.9526429393
10.30318071,0.02005828857,0.5153782654,0.885408783,1.024678391
10.31318371,-0.4686753845,0.4381388855,0.6497987366,0.9131597325
10.32318671,-1.046773224,0.4055067444,0.5923182678,1.269256015
10.33318871,-1.309776306,0.08367599487,0.3279679871,1.352803993
10.34319171,-1.201401672,-0.4237687683,-0.2339634705,1.295254744
10.35319471,-0.5739065552,-0.8852590942,-0.8659492493,1.364888457
10.36319671,0.4055067444,-1.220262451,-2.035018158,2.407233905
10.37319971,0.9852511597,-1.242117004,-3.09137146,3.474212429
10.38320271,0.5614823914,-0.7360194397,-2.854863281,3.001204999
10.39320571,0.1429527283,0.1158590698,-2.578986969,2.585542998
10.40320771,0.1137634277,-0.06227050781,-2.608026581,2.611249199
10.41321071,-0.1296304321,-1.543739777,-2.008672943,2.536671744
10.42321371,-0.7458988953,-3.973936157,0.6065386963,4.088572237
10.43321571,-3.117566986,-10.54616913,-10.49228119,15.19963393
10.44321871,-7.371421051,-22.73801605,-17.73377243,29.76309639
10.45322171,-6.083648987,-31.29751648,-5.473068695,32.34964921
10.46322471,-1.059197388,-39.37621674,-13.43860428,41.61976007
10.47322671,0.05269042969,-46.67893066,-13.11991699,48.48770531
10.48322971,3.329226837,-49.41074982,-16.2039537,52.10637259
10.49323271,-2.715203705,-39.64730301,-13.88796982,42.09699125
10.50323471,-8.098908234,-31.05202698,-7.120542755,32.87130699
10.51323771,-9.797575836,-26.99321732,-7.976013794,29.80340701
10.52324071,-9.947563934,-25.17704407,-9.705517273,28.75820999
10.53324371,-8.547974396,-24.38653793,-9.239685974,27.44344905
10.54324571,-7.114405518,-25.86321716,-6.877897339,27.69162761
10.55324871,-6.163732452,-28.93917068,-6.129603424,30.21653911
10.56325171,-5.441184998,-29.86709106,-7.219936066,31.20540177
10.57325371,-4.396657104,-28.03879303,-7.137008514,29.26502005
10.58325671,-3.984264679,-24.10182999,-6.04937027,25.16679269
10.59325971,-3.334016876,-18.3566272,-4.376748505,19.16343805
10.60326271,-2.534529419,-12.9274173,-3.282973022,13.57644538
10.61326471,-1.735491028,-8.850195923,-1.072669373,9.082318898
10.62326771,-1.498982849,-5.258265381,-1.02731369,5.56342321
10.63327071,-0.8216413879,-2.419867859,-2.14833252,3.338590667
10.64327271,1.091380463,-0.9758207703,-1.719025269,2.257960443
10.65327571,2.65727417,-0.9882449341,-0.4538562012,2.871187823
10.66327871,3.058140564,-1.250349884,0.5941145325,3.356869169
10.67328171,2.521955566,-0.7280859375,0.2125579834,2.633543223
10.68328371,1.868115234,0.6125262451,-0.5638774109,2.045238535
10.69328671,1.040935364,1.361867981,-0.7015910339,1.85215032
10.70328971,0.5815406799,1.604363708,-0.5563929749,1.794922175
10.71329171,0.4770579529,1.852846985,-0.4117936707,1.957089744
10.72329471,0.1383123779,2.151475983,-1.289867706,2.512317241
10.73329771,-1.352886658,2.487527161,-7.316784668,7.845599503
10.74330071,-2.659220123,2.832260284,-5.903573456,7.067200969
10.75330271,-3.44703186,2.304457855,1.646725616,4.461419047
10.76330571,-4.161496124,1.414408722,5.017416229,6.67031241
10.77330871,-1.701811066,1.189426575,4.44635376,4.907235295
10.78331071,1.005608826,0.7319778442,2.298919373,2.613823054
10.79331371,0.9966275024,0.1508862305,1.428329773,1.748187339
10.80331671,0.9202862549,0.09190887451,0.8921447754,1.285027755
10.81331871,0.8529263306,0.04864883423,0.7747888184,1.153320314
10.82332171,0.7797285461,-0.112565918,0.7836204529,1.111174471
10.83332471,0.767454071,-0.3173400879,0.7694000244,1.132107274
10.84332771,0.7770341492,-0.4581971741,0.7390132141,1.166133461
10.85332971,0.7512876892,-0.5577401733,0.6077362061,1.115728726
10.86333271,0.6879693604,-0.7099736023,-0.005987548828,0.9886355281
10.87333571,0.2891986084,-0.9857002258,-2.058668976,2.300730041
10.88333771,-0.5206173706,-1.113684082,-2.627186737,2.900593876
10.89334071,-1.073417816,-0.8282276917,-1.438358917,1.976629275
10.90334371,-1.310225372,-0.603993988,-0.5571414185,1.546578748
10.91334671,-1.178948364,-0.4652325439,-0.0375718689,1.267979578
10.92334871,-0.9557624817,-0.6518943787,-0.006137237549,1.1569295
10.93335171,-0.9433383179,-0.9967771912,-0.04954696655,1.373283238
10.94335471,-1.0683284,-1.33971405,-0.4638853455,1.775203909
10.95335671,-1.263821869,-1.597927094,-1.293460236,2.413225247
10.96335971,-1.610351257,-1.738185425,-1.711690521,2.923081282
10.97336271,-1.821262665,-1.759141846,-1.598076782,2.994232311
10.98336471,-1.759291534,-1.851649475,-1.971101074,3.226290738
10.99336771,-0.6789880371,-2.097737732,-1.341660004,2.581003664
11.00337071,0.9618997192,-5.010979614,-4.725822601,6.954751399
11.01337371,1.216969299,-10.44273422,-12.53448441,16.35985977
11.02337571,-0.1935475159,-18.20843536,-8.007298737,19.89224502
11.03337871,-3.060385895,-33.14527405,-11.64099243,35.26312321
11.04338171,-1.107696533,-39.04645248,-10.04590942,40.33327087
11.05338371,-1.813179474,-39.39193405,-10.4788092,40.80217556
11.06338671,-1.258433075,-39.26035767,-19.08471313,43.67133629
11.07338971,-5.610932007,-28.77346527,-13.02396652,32.07831925
11.08339271,-7.727829895,-24.21664124,-12.22328156,28.20591568
11.09339471,-7.788902893,-25.45830917,-11.07591751,28.83519487
11.10339771,-6.566694489,-26.97285965,-10.64945435,29.73327281
11.11340071,-5.433700562,-28.95114578,-11.04328537,31.45867282
11.12340271,-4.991819458,-29.48852829,-9.689949646,31.43861775
11.13340571,-4.15969986,-28.98632263,-9.011710052,30.63855285
11.14340871,-3.99115036,-29.09394882,-9.242080994,30.78641259
11.15341171,-4.246669006,-28.32275253,-8.876541138,29.98342027
11.16341371,-4.2520578,-25.28826279,-7.11530365,26.61209831
11.17341671,-4.741090851,-20.80748062,-5.495671692,22.03705061
11.18341971,-5.147795105,-16.54000488,-4.69558548,17.947704
11.19342104,-5.024451599,-12.50649261,-4.099225616,14.08762301
11.20342404,-3.873195648,-8.811426544,-1.729653168,9.779293551
11.21342704,-3.533252563,-6.408024445,-0.5583389282,7.338827789
11.22343004,-2.156266022,-4.183350677,-1.509161682,4.94241591
11.23343204,-0.1167572021,-2.991229706,-0.7698490906,3.090914916
11.24343504,1.666484528,-2.055076447,-0.3074606323,2.66365199
11.25343804,2.902913361,-0.3802093506,-0.852177887,3.049208468
11.26344004,3.617976379,0.4287084961,0.6879693604,3.70767392
11.27344304,2.974464569,0.5599855042,1.507515106,3.381364374
11.28344604,1.617386627,0.9530680847,0.7704478455,2.029253104
11.29344904,0.4285588074,1.421444092,0.2944377136,1.513558563
11.30345104,-0.01691482544,1.518891449,-0.007185058594,1.519002623
11.31345404,-0.1004411316,1.73519165,-0.2164498901,1.751521921
11.32345704,-0.1504371643,1.974693604,-0.8333171082,2.148595721
11.33345904,-0.6255491638,1.601070557,-3.326382751,3.744270409
11.34346204,-2.097887421,-0.03203338623,-8.241262207,8.504149607
11.35346504,-2.845432892,-0.6938072205,-3.747307434,4.756066632
11.36346704,-3.768263855,-1.20050354,1.625320129,4.275825856
11.37347004,-2.846181335,-1.528471527,3.760779419,4.957865997
11.38347304,-0.08577163696,-0.9343569946,2.774779816,2.929126626
11.39347604,0.8153544617,-0.7662565613,1.940863953,2.240291253
11.40347804,0.9581575012,-0.5516029358,1.374142456,1.763689056
11.41348104,0.8261320496,-0.1294807434,0.9526190186,1.267573438
11.42348404,0.3200344849,0.1050814819,0.692460022,0.770042253
11.43348604,-0.1724414062,0.2653981018,-0.1422042847,0.3469787452
11.44348904,-0.2248324585,0.40251297,-2.50863327,2.55064839
11.45349204,0.1922003174,0.2478845215,-3.657793579,3.671217995
11.46349504,0.4918771362,0.05897735596,-1.940265198,2.002511044
11.47349704,0.7083270264,0.07753875732,-0.6423143005,0.9593263761
11.48350004,0.8897497559,0.09774673462,0.07274871826,0.8980542457
11.49350304,0.7264393616,-0.0209564209,0.3278182983,0.7972566427
11.50350504,0.2269281006,-0.2917433167,0.1228944397,0.3895042605
11.51350804,-0.1354682922,-0.4343966675,0.2576142883,0.5228931482
11.52351104,-0.3704795837,-0.6948550415,0.7191046143,1.066391156
11.53351304,-0.7355703735,-1.145717468,0.3829037476,1.414336442
11.54351604,-0.9099577332,-1.584904175,-0.6732998657,1.9476337
11.55351904,-0.8333171082,-1.810485077,-1.588796082,2.5488324
11.56352204,-1.044078827,-1.54568573,-2.463127899,3.089699665
11.57352404,-1.244212646,-1.284179535,-2.453547821,3.035964278
11.58352704,-1.372944946,-1.429078217,-1.631906433,2.567169839
11.59353004,-0.7628137207,-1.831291809,-1.461261292,2.463899151
11.60353204,0.9093589783,-3.805686035,-1.418450317,4.161992462
11.61353504,0.112565918,-8.495134277,-4.33872757,9.539629678
11.62353804,-1.046174469,-14.85181549,-1.267564087,14.94247714
11.63354104,-6.683302002,-29.02045166,-9.74563385,31.33417494
11.64354304,-7.156767426,-43.05107483,-19.42929657,47.77145517
11.65354604,0.8416996765,-49.59426819,-10.45695465,50.69169356
11.66354904,5.836961975,-49.65983185,-14.36637497,52.02462642
11.67355104,1.162781982,-39.48833359,-19.22691742,43.93580436
11.68355404,-2.146536255,-31.84238342,-11.57228531,33.94794231
11.69355704,-6.364614716,-27.60544418,-6.108347626,28.98069667
11.70355904,-6.604865112,-24.81225266,-6.539002075,26.49586143
11.71356204,-6.921307068,-24.47934494,-5.333409119,25.99207712
11.72356504,-7.922425232,-26.8845433,-5.232219543,28.51174515
11.73356804,-8.812474365,-29.98040543,-6.606960754,31.93957333
11.74357004,-9.019793243,-30.68933121,-6.556216278,32.65234589
11.75357304,-8.382867737,-27.85228088,-5.991440735,29.69712754
11.76357604,-7.024143219,-23.17735245,-4.703518982,24.67086025
11.77357804,-5.329666901,-19.04998535,-3.39553894,20.07079908
11.78358104,-4.790488129,-13.51165237,-3.044219513,14.65540169
11.79358404,-3.954626312,-9.468260651,-2.634072418,10.59364746
11.80358704,-1.867666168,-7.014413452,-2.818339233,7.786732885
11.81358904,0.4593946838,-5.077591095,-2.466870117,5.663781685
11.82359204,2.663411407,-3.346590729,-1.785487061,4.634802463
11.83359504,4.024980011,-1.92709259,1.044228516,4.583073547
11.84359704,4.391118622,-0.7650590515,2.988684998,5.366514336
11.85360004,4.208049316,0.1898052979,3.5699263,5.521601116
11.86360304,2.932551727,1.146016846,2.804867249,4.216692368
11.87360604,1.681603088,1.768721924,1.436113586,2.831711218
11.88360804,0.9403445435,1.904639282,0.3243754578,2.148748029
11.89361104,0.6683601379,2.080673218,-1.290167084,2.53780169
11.90361404,0.3344046021,2.482737122,-5.326523438,5.886226464
11.91361604,-0.5599855042,2.330204315,-6.602919159,7.024384481
11.92361904,-0.8583151245,1.705253906,-2.609373779,3.233176033
11.93362204,-1.106648712,1.415606232,1.64627655,2.436973298
11.94362404,-1.46500351,1.335822144,3.303779755,3.853001006
11.95362704,-1.925595703,0.8909472656,3.017724609,3.688952109
11.96363004,-2.289189606,0.02544708252,2.767594757,3.59174294
11.97363304,-2.099983063,-0.3902384949,2.223027191,3.082866335
11.98363504,-1.485660553,-0.4701722717,1.546583862,2.195488758
11.99363804,-1.266665955,-0.5345384216,1.09407486,1.757035504
12.00364104,-1.246907043,-0.6559359741,0.9514215088,1.700068253
12.01364304,-1.211879883,-0.7911048889,0.904119873,1.706438555
12.02364604,-1.155297546,-0.7355703735,0.8354127502,1.604272626
12.03364904,-0.8583151245,-0.5830375671,0.7319778442,1.269814641
12.04365204,-0.4355941772,-0.3549119568,0.4757107544,0.7362102323
12.05365404,-0.1811233521,-0.2273771667,0.2255809021,0.36795759
12.06365704,0.002544708252,-0.2469863892,0.1426533508,0.2852345184
12.07366004,0.0845741272,-0.3890409851,0.01586700439,0.3984437638
12.08366204,0.2395019531,-0.6242019653,-0.6051914978,0.9018015458
12.09366504,0.4402345276,-0.9616003418,-1.210832062,1.607667857
12.10366804,0.4397854614,-1.298250275,-1.506018219,2.036407598
12.11367004,0.2794688416,-1.808688812,-2.157912598,2.829495508
12.12367304,0.3100053406,-2.48647934,-2.818488922,3.771281297
12.13367604,0.03966751099,-3.173101501,-3.491639099,4.718229567
12.14367904,-0.7801776123,-3.390449524,-4.251309357,5.493401162
12.15368104,-1.113833771,-2.10731781,-6.233487396,6.673663098
12.16368404,-2.232008514,-0.4685256958,-10.2744841,10.52456184
12.17368704,-4.03680542,-0.2555186462,-11.36346954,12.06190399
12.18368904,-3.559747467,-3.761527863,-3.991599426,6.538635933
12.19369179,-4.029021606,-10.64556244,-4.483626251,12.23372058
12.20369479,-3.951482849,-19.05118286,-9.951306152,21.85383901
12.21369679,2.029030609,-32.30701721,-23.30249222,39.88566747
12.22369979,11.66823578,-48.48507477,-16.5093187,52.53101755
12.23370279,-4.762047272,-54.03253876,-11.18279526,55.38273421
12.24370579,-8.712332611,-40.02841049,-21.18948624,46.12128265
12.25370779,-7.52829483,-19.06196045,-2.148931274,20.60707318
12.26371079,-12.56127869,-16.22984985,-3.527115326,20.82388751
12.27371379,-7.798932037,-15.76237198,-13.17964279,21.97677627
12.28371579,-8.515791321,-18.91825928,-11.87390808,23.90416133
12.29371879,-7.200177155,-26.05362122,-12.6102269,29.82702721
12.30372179,-3.544928284,-32.5752594,-9.39341629,34.08739226
12.31372479,-2.714155884,-35.28357742,-6.044131165,35.90026462
12.32372679,-3.547622681,-30.34519684,-5.305866394,31.0091731
12.33372979,-3.880829773,-24.79069748,-4.760400696,25.54018277
12.34373279,-3.538491669,-21.00596786,-4.343068542,21.74014383
12.35373479,-3.414848785,-16.36501877,-4.012705536,17.19234822
12.36373779,-3.939058685,-12.24199265,-2.368075562,13.07632781
12.37374079,-4.397854614,-9.571994934,-1.525477753,10.64383834
12.38374379,-3.726351013,-6.743027802,-2.378553772,8.062979217
12.39374579,-2.722538452,-4.208947449,-2.672392731,5.680593029
12.40374879,-1.196911011,-2.322270813,-2.620600433,3.700416778
12.41375179,0.5072950745,-1.305435333,-2.38693634,2.767485284
12.42375379,1.700314178,-1.164877625,-1.114582214,2.343139283
12.43375679,2.374661865,-1.135388947,0.5980064392,2.699210762
12.44375979,2.590213623,-0.297431488,2.071991272,3.330288266
12.45376179,2.227667542,0.6776408386,2.204166412,3.206251605
12.46376479,1.298998718,1.384470978,1.08584198,2.187055181
12.47376779,0.6888674927,1.690883789,0.3004252625,1.850373408
12.48377079,0.403560791,1.775757294,-0.06167175293,1.822080866
12.49377279,0.1926493835,1.720821533,-0.2019300842,1.743306139
12.50377579,-0.195643158,1.336570587,-0.1866618347,1.363649449
12.51377879,-0.7265890503,0.3525169373,-0.2887495422,0.8576573542
12.52378079,-1.633253632,-0.6198609924,-0.7786807251,1.912613068
12.53378379,-2.848726044,-1.181493073,-2.072440338,3.715666146
12.54378679,-3.922592926,-1.675765228,-2.19279007,4.796170624
12.55378979,-2.987337799,-1.599423981,-0.1008901978,3.390062393
12.56379179,-0.8411009216,-0.8873547363,0.8297245789,1.477596719
12.57379479,0.2854563904,-0.5182223511,1.034049683,1.19134315
12.58379779,0.9410929871,-0.1564247131,1.192719727,1.527319563
12.59379979,1.125060425,0.3046165466,0.4153862,1.237375406
12.60380279,1.196312256,0.7554789734,-1.005908203,1.736019241
12.61380579,1.451381836,0.7964936829,-1.562899933,2.276744962
12.62380779,1.697320404,0.2883004761,-0.4323010254,1.77507687
12.63381079,1.956281891,-0.02005828857,0.7439529419,2.093061669
12.64381379,1.812580719,-0.1856140137,1.185534668,2.17379711
12.65381679,1.372645569,-0.352666626,0.9764195251,1.721024316
12.66381879,0.674197998,-0.5522016907,0.5881269836,1.051362448
12.67382179,-0.1158590698,-0.8797206116,-0.05239105225,0.8888624758
12.68382479,-0.9098080444,-1.386416931,-0.4778063965,1.725746661
12.69382679,-1.478026428,-1.724563751,-0.4429289246,2.314058834
12.70382979,-1.462907867,-1.845063171,-0.6421646118,2.440641908
12.71383279,-1.390308838,-1.844165039,-1.215921478,2.610051417
12.72383479,-1.251547394,-1.837578735,-3.332669678,4.006214381
12.73383779,-1.486708374,-1.849703522,-6.077960815,6.524822801
12.74384079,-0.5191204834,-2.155517578,-4.931045837,5.40656593
12.75384379,-1.378034363,-4.804558868,-3.51379303,6.109787728
12.76384579,-4.76459198,-10.1882634,-1.387165375,11.33253174
12.77384879,-10.84300186,-20.58459412,-7.671546936,24.49793536
12.78385179,-9.726473694,-31.02732834,-13.51599335,35.21337062
12.79385379,-1.775158539,-38.06898514,-9.358838196,39.2426639
12.80385679,0.6262976074,-48.55018936,-6.351741486,48.96792578
12.81385979,-1.396895142,-49.95846085,-18.06159073,53.14151095
12.82386279,-1.903591461,-37.31141052,-21.30235153,43.00645529
12.83386479,-1.400188293,-28.93423096,-6.317612457,29.64898777
12.84386779,-4.929099884,-25.87938354,-3.678001556,26.6001168
12.85387079,-3.622317352,-26.15690643,-9.211843872,27.96717727
12.86387279,-2.026485901,-27.87159073,-10.76127182,29.94557039
12.87387579,-2.323468323,-29.18870178,-4.229454803,29.58491346
12.88387879,-2.541564789,-29.61082397,-2.917433167,29.86254953
12.89388179,-3.778442688,-27.91964081,-4.54230423,28.53796594
12.90388379,-4.901407471,-23.72775787,-5.400619354,24.82331522
12.91388679,-5.375621338,-19.03007675,-4.052672424,20.18576924
12.92388979,-5.724246368,-14.37221283,-2.807411957,15.72288332
12.93389179,-5.433999939,-10.68478088,-3.169958038,12.39925529
12.94389479,-4.752766571,-7.214247894,-3.11592041,9.183851194
12.95389779,-2.376158752,-4.226760406,-1.856289825,5.192056035
12.96389979,-0.1303788757,-2.191442871,-0.730480957,2.313660074
12.97390279,1.174308014,-0.5095404053,0.09624984741,1.283703536
12.98390579,1.855391693,0.1592687988,0.1444496155,1.867809031
12.99390879,2.251917114,0.5376818848,-0.589025116,2.388971135
13.00391079,2.08037384,1.138233032,-1.017134857,2.580328093
13.01391379,1.435814209,1.538350983,-0.8117619324,2.255447544
13.02391679,1.064137115,1.725461884,-0.4773573303,2.082660926
13.03391879,1.124012604,1.964514771,-0.1293310547,2.267035319
13.04392179,0.9508227539,2.135010223,-0.8791218567,2.497035803
13.05392479,0.5029541016,1.669178925,-3.805536346,4.185836594
13.06392779,-0.3938310242,0.5613327026,-6.869514771,6.903653414
13.07392979,-0.8213420105,0.5432203674,-2.83390686,3.000119857
13.08393279,-0.9656419373,0.2230361938,0.9517208862,1.374038624
13.09393579,-0.3088078308,-0.6692582703,2.744692383,2.841936872
13.10393779,1.038091278,-0.9851014709,2.589914246,2.959005612
13.11394079,0.9616003418,-0.9788145447,2.020049286,2.441997594
13.12394379,0.2472857666,-0.9481283569,1.416504364,1.722376917
13.13394579,-0.1490899658,-0.8002359009,0.7731422424,1.122654997
13.14394879,-0.3248245239,-0.4206253052,0.4254153442,0.6807457924
13.15395179,-0.3300636292,0.04370910645,0.3141966248,0.4577903497
13.16395479,-0.416434021,0.1863624573,0.3014730835,0.5468402686
13.17395679,-0.4423301697,0.2086660767,0.3623963928,0.6087106505
13.18395979,-0.07065307617,0.1158590698,-1.170565796,1.178405475
13.19396279,0.5551954651,-0.2977308655,-2.943179626,3.009849163
13.20396529,0.5194198608,-0.5517526245,-0.3773652649,0.8465414896
13.21396829,0.8683442688,-0.7288343811,0.193996582,1.150154771
13.22397129,0.3050656128,-1.115180969,0.1959425354,1.172641079
13.23397429,-0.1254391479,-1.16308136,0.2061213684,1.187846475
13.24397629,-0.4484674072,-1.175804901,-0.3688330078,1.311364926
13.25397929,-0.6102809143,-1.250948639,-1.228195953,1.856281388
13.26398229,-0.4872367859,-1.169817352,-2.196681976,2.53599764
13.27398429,-0.5315446472,-0.866098938,-2.241438904,2.461039504
13.28398729,-0.9716294861,-0.7393125916,-1.667232971,2.066473505
13.29399029,-1.826052704,-0.6215075684,-2.266287231,2.97603729
13.30399229,-2.49111969,-0.5174739075,-2.910697174,3.865955845
13.31399529,-2.719694366,-0.8675958252,-1.174158325,3.086763311
13.32399829,-3.846401367,-5.041965179,-4.112996979,7.55863483
13.33400129,-4.406686249,-10.4642894,-5.917943573,12.80399517
13.34400329,-4.549189911,-19.47435287,-7.96822998,21.5276157
13.35400629,-2.768193512,-33.46560791,-14.13660278,36.43423317
13.36400929,3.016227722,-41.9791539,-10.0807869,43.27781483
13.37401129,5.028792572,-53.12811951,-16.09243561,55.73914532
13.38401429,3.432062988,-56.11336166,-21.67807022,60.253026
13.39401729,-3.632645874,-38.33004227,-15.15598297,41.37743438
13.40402029,-8.513246613,-25.1274971,-9.641899567,28.22822534
13.41402229,-10.83746338,-21.0374025,-8.894204407,25.28101636
13.42402529,-10.46593597,-20.87334366,-5.841901703,24.06990043
13.43402829,-7.807913361,-23.42194382,-6.662944336,25.5723638
13.44403029,-5.341192932,-27.27433273,-7.615263977,28.81683212
13.45403329,-4.455484772,-29.16475159,-6.767277374,30.2692934
13.46403629,-4.414170685,-27.57400955,-6.295608215,28.62596004
13.47403829,-5.02549942,-24.14464096,-5.159470825,25.19602093
13.48404129,-5.935307465,-20.18477554,-3.594774628,21.34421334
13.49404429,-5.501659241,-14.32042053,-3.287763062,15.68923467
13.50404729,-3.955075378,-10.18332367,-3.146007843,11.36838016
13.51404929,-2.677931213,-7.737409973,-2.485431519,8.556646452
13.52405229,-0.9240284729,-5.414241028,-2.704575806,6.122300615
13.53405529,0.6926097107,-3.254232788,-2.702330475,4.286295515
13.54405729,1.609902191,-1.739083557,-1.059945831,2.596089723
13.55406029,2.175126801,-0.9235794067,1.097817078,2.605643463
13.56406329,2.405797119,-0.2230361938,1.366957397,2.776000261
13.57406629,2.32616272,0.4567002869,1.690434723,2.911559325
13.58406829,1.931732941,1.377734985,1.642234955,2.885598983
13.59407129,1.166224823,2.03007843,0.5282514954,2.400072585
13.60407429,0.6800358582,2.151625671,-0.3011737061,2.276542861
13.61407629,0.6337820435,2.269879761,-0.4664300537,2.402413537
13.62407929,0.5408253479,2.360291748,-0.3150947571,2.441875078
13.63408229,0.2550695801,2.259102173,-0.09610015869,2.2754864
13.64408429,-0.5625302124,1.679357758,-1.697919159,2.453489798
13.65408729,-1.98217804,0.3894900513,-3.950734406,4.437232766
13.66409029,-2.820734253,-0.4884342957,-0.008981323242,2.862724306
13.67409329,-2.886297913,-1.229842529,2.228415985,3.848254941
13.68409529,-2.790946198,-1.765578461,1.600771179,3.670029475
13.69409829,-1.775457916,-1.850302277,0.9301657104,2.727833862
13.70410129,-0.325872345,-1.232686615,0.1016386414,1.279077593
13.71410329,0.3359014893,-0.5240602112,-0.3188369751,0.6993753871
13.72410629,0.6710545349,-0.01676513672,-0.2830613708,0.7285046316
13.73410929,0.9134005737,0.3429368591,-0.1405577087,0.9857295607
13.74411229,1.191821594,0.6462062073,-0.5701643372,1.470751014
13.75411429,1.390608215,0.8825646973,-1.442400513,2.189344855
13.76411729,1.017733612,0.512384491,-1.219364319,1.668882534
13.77412029,0.5990542603,-0.0904119873,-0.7424560547,0.9582699658
13.78412229,0.2805166626,-0.5252577209,-0.5095404053,0.7837197816
13.79412529,-0.1606159973,-0.9180409241,-0.1606159973,0.9457241329
13.80412829,-0.6069877625,-1.222208405,-0.07858657837,1.366895526
13.81413029,-0.8086184692,-1.39240448,-0.3664379883,1.65134214
13.82413329,-0.8779243469,-1.590442657,-0.9578581238,2.053716434
13.83413629,-1.113085327,-1.700314178,-1.353635101,2.441793447
13.84413929,-1.423839111,-1.683249664,-1.662592621,2.76131517
13.85414129,-1.382525024,-1.683998108,-2.385439453,3.230719185
13.86414429,-1.408421173,-1.867067413,-1.950294342,3.045199328
13.87414729,-1.597777405,-2.837200012,0.3715274048,3.27728991
13.88414929,-2.192191315,-6.278992767,-2.476599884,7.096830273
13.89415229,-5.336702271,-13.16168015,-11.15240845,18.05786337
13.90415529,-7.975115662,-23.31925735,-5.392536163,25.22835071
13.91415829,-2.337389374,-30.81536911,-1.928739166,30.96401778
13.92416029,-0.1444496155,-39.55748978,-17.5364827,43.2705915
13.93416329,1.015188904,-43.69548477,-13.63020584,45.78327762
13.94416629,0.7906558228,-37.54851746,-11.32080826,39.22597353
13.95416829,-4.055067444,-28.05480972,-10.88237,30.36349613
13.96417129,-7.639363861,-27.49826706,-10.95362183,30.5695339
13.97417429,-8.033494263,-29.07478867,-11.04657852,32.12331339
13.98417729,-6.632856903,-30.40597046,-8.513246613,32.2644262
13.99417929,-4.99631012,-31.27656006,-8.478369141,32.78824587
14.00418229,-3.353027344,-30.41839462,-8.052355042,31.64430352
14.01418529,-2.059267731,-28.69652527,-6.843169556,29.57296258
14.02418729,-1.535357208,-26.05676468,-5.946085052,26.77065996
14.03419029,-1.960473175,-22.72259811,-5.077291718,23.36533354
14.04419329,-3.11008255,-19.15776123,-4.223916321,19.86287738
14.05419529,-3.647914124,-16.03450607,-3.601211243,16.83393551
14.06419829,-4.190236359,-11.73065598,-2.569257202,12.71878347
14.07420129,-4.399052124,-7.929161224,-2.602039032,9.433655942
14.08420429,-3.553161163,-5.674549713,-2.621947632,7.190276635
14.09420629,-1.894161072,-3.810476074,-2.415826263,4.893239276
14.10420929,0.7291337585,-2.375859375,-0.7885601807,2.607330237
14.11421229,3.98067215,-2.102228394,4.218228149,6.169162318
14.12421429,3.172802124,-0.5626799011,-0.1041833496,3.223993821
14.13421729,1.019529877,0.5340893555,-0.502205658,1.255748037
14.14422029,0.4809498596,1.408870239,1.867217102,2.388038489
14.15422329,-0.5222639465,2.264640656,1.034648438,2.543983946
14.16422529,-1.405427399,2.403252411,-0.9180409241,2.931492361
14.17422829,-2.829715576,1.522633667,-5.986501007,6.794401948
14.18423129,-4.398453369,-0.2544708252,-8.712781677,9.763386298
14.19423329,-3.64716568,-0.4770579529,-5.449866943,6.574986805
14.20423542,-2.890489197,-0.1252894592,-1.559307404,3.286649483
14.21423842,-2.261946259,-0.1567240906,2.001338196,3.024287997
14.22424042,-0.5921685791,-0.3182382202,2.586022339,2.671975061
14.23424342,0.9080117798,-0.6735992432,3.301684113,3.489891017
14.24424642,2.055076447,-0.9012757874,3.54882019,4.198781012
14.25424942,2.523602142,-0.9580078125,3.271147614,4.241079279
14.26425142,2.496807861,-0.7915539551,2.766247559,3.809558074
14.27425442,2.192939758,-0.5224136353,1.753004608,2.855683096
14.28425742,1.396446075,-0.1167572021,0.7131170654,1.572332609
14.29425942,0.5513035583,0.3857478333,-0.189206543,0.6989535895
14.30426242,0.5381309509,0.8536747742,-1.432970123,1.752640555
14.31426542,0.656534729,0.7740403748,-1.370549927,1.705456963
14.32426842,0.6110293579,0.5098397827,-0.3314108276,0.8620479203
14.33427042,0.375718689,0.3044668579,0.06885681152,0.4884729893
14.34427342,0.1549278259,0.03427871704,-0.05807922363,0.1689699911
14.35427642,0.076640625,-0.1574725342,-0.2857557678,0.3351533131
14.36427842,0.1565744019,-0.3275189209,-0.4156855774,0.5518864794
14.37428142,0.2868035889,-0.4559518433,-0.3752696228,0.6564873736
14.38428442,0.4544549561,-0.5966592407,-0.3644920349,0.8338980754
14.39428642,0.462538147,-0.6709048462,-0.6547384644,1.045340761
14.40428942,0.8050259399,-0.7008425903,-1.215472412,1.617597071
14.41429242,1.015488281,-0.9098080444,-2.632126465,2.964297025
14.42429542,-0.08726852417,-1.077908478,-3.80044693,3.951316154
14.43429742,-1.147513733,-0.422870636,-2.262694702,2.572040952
14.44430042,-1.478026428,0.3288661194,-0.1658551025,1.52322781
14.45430342,-2.543660431,-0.1692979431,-0.843046875,2.685069499
14.46430542,-4.824018402,-4.275558929,-7.756420441,10.08531684
14.47430842,-4.680167542,-9.820328522,-9.30689621,14.31646386
14.48431142,-3.406765594,-16.51470749,-4.685107269,17.50119554
14.49431442,-6.293662262,-30.8499472,-16.63236282,35.60849506
14.50431642,-6.775210876,-54.0332872,-24.34657104,59.65111172
14.51431942,0.6339317322,-71.66916321,-23.69752075,75.48803424
14.52432242,7.839797058,-56.7936969,-20.10648834,60.75571824
14.53432442,-1.905537415,-21.78375046,3.779041443,22.19107954
14.54432742,-8.834328918,-13.64816849,-12.10278214,20.26808343
14.55433042,-8.152197418,-14.46906143,-17.4156839,24.06487289
14.56433342,-9.106163635,-15.76686264,-0.2893482971,18.20988457
14.57433542,-8.633895721,-21.66399948,-8.27479248,24.7456101
14.58433842,-8.497229919,-29.45005829,-14.42460388,33.87592134
14.59434142,-5.601950684,-37.63653442,-8.207731934,38.92630779
14.60434342,-1.647623749,-35.63519623,-6.429878998,36.24810641
14.61434642,-0.6167175293,-28.41885269,-7.782166901,29.4715736
14.62434942,-1.127156067,-22.08073288,-6.279142456,22.98383944
14.63435242,-2.069296875,-16.85509964,-4.860093384,17.66343345
14.64435442,-3.02700531,-12.28315704,-3.672014008,13.17278995
14.65435742,-3.767964478,-8.28302536,-2.794838104,9.519305933
14.66436042,-3.880081329,-4.44515625,-2.619253235,6.455612497
14.67436242,-2.7789711,-2.406096497,-3.23058197,4.89373483
14.68436542,-1.958377533,-1.875899048,-2.539618835,3.715360498
14.69436842,-0.6424639893,-1.313817902,-0.9984237671,1.770798542
14.70437042,1.45677063,-0.5167254639,-0.1989363098,1.558448436
14.71437342,2.435136108,0.02185455322,-0.3230282593,2.456565233
14.72437642,2.233206024,0.6132746887,0.9999206543,2.522529743
14.73437942,1.437311096,1.078956299,1.994153137,2.684521674
14.74438142,0.5393284607,1.386117554,1.562151489,2.156968784
14.75438442,0.06676116943,1.56903717,0.7851173401,1.755774454
14.76438742,-0.2044747925,1.806892548,0.2661465454,1.837798847
14.77438942,-0.5417234802,1.763931885,0.1202000427,1.84915334
14.78439242,-1.441801758,0.9812095642,0.0549357605,1.744873192
14.79439542,-2.284698944,0.1580712891,-0.06825805664,2.291177636
14.80439742,-2.563569031,-0.3917353821,-0.4876858521,2.638783863
14.81440042,-2.337688751,-0.2435435486,-0.3433859253,2.375292835
14.82440342,-1.802701263,0.2800675964,0.690813446,1.950741634
14.83440642,-0.6625222778,0.325872345,1.301393738,1.496246709
14.84440842,0.4040098572,0.4254153442,1.279090118,1.407221983
14.85441142,0.9401948547,0.5372328186,1.110839996,1.551306212
14.86441442,1.023122406,0.5346881104,0.9388476562,1.487987149
14.87441642,0.8825646973,0.5008584595,0.6252497864,1.191938311
14.88441942,0.8116122437,0.4430786133,0.3061134338,0.974032097
14.89442242,0.8566685486,0.2219883728,0.346230011,0.950281569
14.90442542,1.015338593,-0.2628533936,0.7009922791,1.261504871
14.91442742,1.244512024,-0.7692503357,0.7430548096,1.640940799
14.92443042,1.235231323,-1.008901978,0.4294569397,1.651699999
14.93443342,1.050964508,-0.96414505,0.2619552612,1.450076768
14.94443542,1.11862381,-0.8774752808,0.05837860107,1.422916075
14.95443842,1.522034912,-0.9948312378,-0.2260299683,1.832312477
14.96444142,1.804796906,-1.377585297,-0.6451583862,2.36035219
14.97444442,1.727557526,-1.918859711,-1.459614716,2.96596573
14.98444642,1.216969299,-2.582878876,-2.647095337,3.893506297
14.99444942,-0.008232879639,-3.204386444,-4.181704102,5.26828335
