Time (s),Acceleration x (m/s^2),Acceleration y (m/s^2),Acceleration z (m/s^2),Absolute acceleration (m/s^2)
15.02286396,2.516716461,-7.465275879,-9.015003204,11.97223824
15.03286796,3.704197083,-9.43907135,-10.68163742,14.72801826
15.04287196,5.103337555,-12.12029572,-12.5916655,18.20702234
15.05287596,6.16283432,-15.72899139,-15.49053726,22.92026269
15.06287996,6.242468719,-20.16082535,-17.91085419,27.68078742
15.07288396,5.796096954,-22.57066406,-15.79006439,28.14881436
15.08288796,4.597539368,-20.85268661,-11.44355301,24.22657245
15.09289196,3.549119568,-16.10860199,-9.458381195,19.01431783
15.10289596,3.270698547,-9.812544708,-8.620124359,13.46439923
15.11289996,2.949915619,-4.582570496,-8.853489075,10.39645244
15.12290396,1.928888855,-0.8384065247,-8.0104422,8.281951579
15.13290796,0.9066645813,1.584754486,-5.851930847,6.130137199
15.14291096,0.8129594421,2.441722412,-3.461551666,4.313380499
15.15291496,2.423909454,0.4956193542,-1.786534882,3.051668801
15.16291896,4.78330307,-3.2633638,-0.8689430237,5.855304734
15.17292296,6.903045044,-7.678582306,0.5770500183,10.34145269
15.18292696,8.733588409,-12.2452858,1.135538635,15.0835022
15.19293096,9.057065735,-16.13285156,-0.4706213379,18.50731811
15.20293496,7.601043549,-19.08366531,-5.85043396,21.35859832
15.21293896,5.79190567,-20.89205475,-13.85324203,25.72812542
15.22294296,3.807931366,-17.9107045,-9.314530334,20.54395659
15.23294696,-0.2218386841,-8.325536957,12.0183577,14.62206209
15.24295096,3.567381592,-1.121318207,10.82219513,11.4500425
15.25295496,9.568851471,0.3083587646,2.703228607,9.948137942
15.26295896,8.925788727,-2.329156494,-3.345842285,9.812712926
15.27296196,4.401147766,-6.048023071,-4.059109039,8.510290884
15.28296596,1.213676147,-9.01081192,0.4264631653,9.102176228
15.29296996,0.5580395508,-10.67714676,2.857108612,11.06688487
15.30297396,1.043480072,-11.32859207,3.717519379,11.96853372
15.31297796,2.803669739,-11.01140167,4.611460419,12.26283401
15.32298196,3.489693146,-11.22755219,4.267475739,12.50788693
15.33298596,3.612737274,-11.61584473,3.91750351,12.77992774
15.34298996,2.607577515,-12.0568277,3.8074823,12.90982092
15.35299396,-0.5650749207,-13.31181793,1.510658569,13.40917207
15.36299796,-5.640720062,-15.9213414,-8.82714386,19.05847065
15.37300196,-3.371289368,-15.58334427,-6.646328888,17.27367646
15.38300596,-0.5649252319,-12.74734177,-2.416874084,12.98672949
15.39300896,0.4559518433,-11.04942261,-2.295476532,11.29454933
15.40301296,0.9053173828,-10.5969136,-1.449435883,10.73382699
15.41301696,0.9563612366,-9.565109253,-0.1487905884,9.613952386
15.42302096,0.9222322083,-8.481213226,0.6161187744,8.553425769
15.43302496,1.099164276,-7.366481323,0.7354206848,7.484253655
15.44302896,1.706601105,-6.568341064,0.3025209045,6.793166461
15.45303296,2.328408051,-6.247857513,-1.02027832,6.745233533
15.46303696,2.232158203,-6.710545349,-1.746867371,7.284606697
15.47304096,1.931732941,-7.09659256,-1.751208344,7.560419881
15.48304496,0.7327262878,-7.483088837,-1.211430817,7.615843418
15.49304896,-0.8399034119,-8.140970764,-0.3802093506,8.19300933
15.50305296,-0.4391867065,-8.755892029,-0.2981799316,8.771969075
15.51305696,-0.2451901245,-9.059760132,-0.9801617432,9.115925015
15.52305996,0.122744751,-8.727900238,-1.225651245,8.814393332
15.53306396,0.5203179932,-8.347990265,-1.350940704,8.472585973
15.54306796,0.8652008057,-8.188871155,-1.55855896,8.380649692
15.55307196,1.077908478,-8.00924469,-1.589095459,8.236207353
15.56307596,1.318308563,-7.745642853,-1.623972931,8.023104683
15.57307996,1.491049347,-7.626490631,-1.74806488,7.965068633
15.58308396,1.334325256,-7.880811768,-1.837878113,8.201549486
15.59308796,0.983454895,-8.464148712,-1.82530426,8.714398005
15.60309196,0.7126679993,-9.430688782,-1.753004608,9.618669956
15.61309596,0.6212081909,-10.45605652,-1.695673828,10.61085893
15.62309996,0.4746629333,-11.33338211,-1.756896515,11.47856874
15.63310396,0.1716929626,-11.90249863,-1.92125473,12.0577847
15.64310696,-0.3004252625,-12.26369751,-2.097288666,12.44536668
15.65311096,-0.6349795532,-12.05862396,-2.291135559,12.29076536
15.66311496,-0.6008505249,-11.28608047,-2.493664398,11.57389286
15.67311896,-0.8261320496,-10.93640762,-2.290087738,11.20410673
15.68312296,-1.983824615,-11.20225479,-1.619482269,11.49124864
15.69312696,-3.585493927,-11.34206406,-0.5348377991,11.90731856
15.70313096,-4.286785583,-11.23638382,0.713865509,12.04750829
15.71313496,-3.432811432,-10.98894836,0.9535171509,11.55207234
15.72313896,-1.600771179,-11.07442062,0.1080752563,11.19003757
15.73314296,0.697250061,-11.66763702,-1.289568329,11.75937489
15.74314696,2.378853149,-12.97022827,-4.202361145,13.84000011
15.75314946,2.636617126,-14.12402893,-6.894961853,15.93676385
15.76315346,1.484912109,-14.33479065,-7.432494049,16.21521368
15.77315746,0.3414399719,-14.224021,-5.342989197,15.1982528
15.78316146,-0.9493258667,-13.88407791,-2.191742249,14.08802943
15.79316546,-1.810036011,-12.97097672,-0.2151026917,13.09842496
15.80316946,-1.585203552,-12.06116867,0.9729766846,12.20374302
15.81317346,-0.8629554749,-11.54534134,1.55391861,11.68136387
15.82317746,-0.1692979431,-11.6534166,1.275796967,11.72426706
15.83318146,1.619332581,-10.40935364,2.428100739,10.81076104
15.84318546,3.988156586,-9.417216797,5.335804138,11.53517104
15.85318946,5.06995697,-9.959838409,4.075275421,11.89582761
15.86319346,5.693260803,-10.48030609,1.911225586,12.07902387
15.87319646,5.856571198,-12.00982544,1.286873932,13.4235382
15.88320046,6.527476044,-14.02747971,1.211131439,15.51918071
15.89320446,6.583759003,-15.08368332,1.141675873,16.49747886
15.90320846,5.515131226,-14.27296921,0.03158432007,15.30148097
15.91321246,4.54574707,-12.90661057,-1.473835144,13.76287044
15.92321646,3.918551331,-12.03751785,-2.690954132,12.94210627
15.93322046,3.213966522,-11.54070099,-2.953657837,12.3386164
15.94322446,2.710114288,-11.08564728,-2.459984436,11.67423738
15.95322846,2.236349487,-10.62101349,-2.292482758,11.09336125
15.96323246,1.646725616,-10.44557831,-2.490670624,10.86394273
15.97323646,1.566342773,-10.06761429,-2.274071045,10.4394294
15.98324046,1.536854095,-9.455686798,-1.879042511,9.762311924
15.99324346,0.8599617004,-8.776549072,-2.202669525,9.08950498
16.00324746,0.1199006653,-8.113577728,-2.211351471,8.410386142
16.01325146,-0.2239343262,-7.608977051,-1.888622589,7.843058946
16.02325546,-0.2284249878,-7.318730621,-2.065105591,7.607933818
16.03325946,-0.2290237427,-7.341483307,-1.257085876,7.451851711
16.04326346,-0.07439529419,-7.775430908,-0.2029779053,7.778435607
16.05326746,-0.00209564209,-8.052804108,0.2386038208,8.056338509
16.06327146,0.5261558533,-7.356452179,-0.5715115356,7.397354532
16.07327546,1.340612183,-6.211333466,0.2037263489,6.35762604
16.08327946,2.023641815,-5.149142303,1.015937347,5.625026342
16.09328346,2.533780975,-4.307292938,1.620230713,5.253376633
16.10328646,2.895578613,-3.704646149,2.300865326,5.234764545
16.11329046,3.122357025,-3.066672821,2.470462646,5.025612527
16.12329446,3.148402863,-2.617307281,2.245480499,4.669573927
16.13329846,2.66775238,-2.609224091,1.73294632,4.114371892
16.14330246,2.344574432,-2.664010162,0.775537262,3.632552472
16.15330646,1.927242279,-2.879861298,-0.04056564331,3.465473917
16.16331046,1.493594055,-3.064726868,-0.9794132996,3.547199513
16.17331446,1.260678406,-3.423381042,-2.197280731,4.258742821
16.18331846,1.393751678,-4.01929184,-3.639980621,5.598813228
16.19332246,1.759590912,-4.857398987,-5.162614288,7.303634122
16.20332646,2.277364197,-5.962251434,-6.709796906,9.260464587
16.21332946,2.507286072,-7.492219849,-8.063132629,11.28866465
16.22333346,2.922672272,-9.384884033,-9.311835938,13.53987999
16.23333746,4.256847839,-11.96731384,-10.97293167,16.78518941
16.24334146,5.761219482,-15.68992264,-13.88662262,21.73024643
16.25334546,6.268215179,-20.57411591,-17.99677551,28.0440492
16.26334946,5.13432312,-24.0671022,-17.00538712,29.91270421
16.27335346,4.417463837,-22.27413071,-11.19956039,25.31957817
16.28335746,4.914729767,-16.66694092,-10.05324417,20.07508921
16.29336146,3.375330963,-9.110654297,-10.90512268,14.60542986
16.30336546,1.27310257,-2.922223206,-11.59952866,12.02951552
16.31336946,0.7467970276,0.06556365967,-10.58329193,10.6098102
16.32337246,2.403701477,0.4406835938,-5.7158638,6.216355991
16.33337646,4.535867615,-0.7246430969,0.07095245361,4.593934794
16.34338046,7.043303375,-3.750899963,2.762804718,8.444552261
16.35338446,10.74375824,-9.213340759,1.715283051,14.25679435
16.36338846,12.76261002,-15.7899147,-0.9568103027,20.32538085
16.37339246,10.26041336,-20.68144272,-4.763693848,23.57309768
16.38339646,3.913461914,-20.69835754,-8.848249969,22.84794776
16.39340046,0.2389031982,-15.53858734,-7.248526611,17.14776689
16.40340446,0.3674858093,-5.473068695,8.292605438,9.942677291
16.41340846,2.006876678,3.007396088,11.2989537,11.8633191
16.42341246,6.997947693,4.88389389,5.126688995,9.955231363
16.43341546,8.840466156,1.932780762,-0.845741272,9.08871617
16.44341946,5.371579742,-3.397634583,-6.72910675,9.256277186
16.45342346,2.441423035,-9.521100769,-2.017055511,10.03396329
16.46342746,2.423759766,-13.54533234,3.513643341,14.20198328
16.47343146,2.6993367,-14.38897797,5.014422455,15.47493257
16.48343546,2.815046082,-13.3202005,5.395080872,14.64442295
16.49343946,3.188669128,-12.73806107,4.977000275,14.04266151
16.50344346,2.980003052,-12.06491089,4.10117157,13.08671468
16.51344746,1.010698242,-11.74083481,2.374512177,12.02110731
16.52345146,-5.062472534,-13.55146957,-5.857020264,15.60691008
16.53345546,-6.853647766,-15.26465698,-6.684798889,18.01856755
16.54345846,-3.372337189,-15.16421585,-2.165995789,15.68494942
16.55346246,-1.349593506,-13.52692062,-2.76026001,13.87148224
16.56346646,1.039588165,-11.6122522,-2.527643738,11.9295485
16.57347046,2.123184814,-10.70663544,-1.37129837,11.00092793
16.58347446,2.104623413,-9.458830261,-0.8842112732,9.730402828
16.59347846,2.32616272,-7.954009552,-1.217118988,8.376077816
16.60348246,2.219734039,-7.139403534,-1.566941528,7.638953317
16.61348646,1.983076172,-6.654412079,-1.615590363,7.129089945
16.62349046,1.523232422,-6.517147522,-1.322499847,6.822203067
16.63349446,1.729204102,-6.662794647,-1.447489929,7.034074668
16.64349746,1.544338531,-7.04854248,-1.77740387,7.431426318
16.65350146,1.249751129,-7.646997986,-1.546134796,7.901201737
16.66350546,0.9589059448,-8.191266174,-1.237476654,8.339525803
16.67350946,-0.1845661926,-8.433612213,-0.7873626709,8.472297187
16.68351346,-1.182091827,-8.568032684,-0.5450166321,8.666346883
16.69351746,0.0809815979,-9.023236084,-1.697470093,9.181870842
16.70352146,0.5562432861,-8.856931915,-2.755320282,9.292278483
16.71352546,0.6619235229,-8.53345459,-2.7789711,8.998926067
16.72352946,0.8541238403,-8.469687195,-2.35774704,8.833125144
16.73353346,0.926124115,-8.408763885,-1.776505737,8.644130297
16.74353746,0.8898994446,-8.312364349,-1.309177551,8.461753244
16.75354025,0.8027806091,-8.199349365,-0.9418414307,8.29221635
16.76354425,0.7077282715,-8.293952637,-0.8256829834,8.364943636
16.77354825,0.6971003723,-8.575068054,-0.8527766418,8.645517281
16.78355225,0.7848179626,-9.108558655,-0.9136999512,9.187852176
16.79355625,0.7000941467,-9.85565506,-1.17939743,9.950630471
16.80356025,0.4346960449,-10.48210236,-1.66274231,10.62205924
16.81356425,0.2468367004,-11.16797607,-2.360441437,11.41736842
16.82356825,0.06242019653,-11.67227737,-2.843486938,12.01379929
16.83357225,0.1787283325,-11.32305359,-2.936443634,11.69898233
16.84357625,0.3873944092,-10.75962524,-2.654729462,11.08905759
16.85357925,-0.8542735291,-10.76381653,-2.09100174,10.99826431
16.86358325,-3.085832977,-11.37035522,-0.929866333,11.81829068
16.87358725,-4.893623657,-11.82750458,0.2983296204,12.80337524
16.88359125,-5.915398865,-11.91597061,0.3912863159,13.30922253
16.89359525,-5.283113708,-11.88259003,0.04610412598,13.00420554
16.90359925,-1.501826935,-11.44774429,-0.04011657715,11.54590589
16.91360325,1.752405853,-12.17867432,-1.977687378,12.46203361
16.92360725,4.00986145,-13.31600922,-5.208419037,14.85000738
16.93361125,3.678899689,-13.94185776,-7.625293121,16.31118622
16.94361525,1.698218536,-14.66784805,-6.418053589,16.10034548
16.95361925,0.05882766724,-14.21159683,-1.747017059,14.31869456
16.96362225,-1.613045654,-13.1914682,0.7854167175,13.31291212
16.97362625,-2.496059418,-12.48598526,1.880539398,12.87115259
16.98363025,-0.98989151,-12.41563156,2.188598785,12.64585928
16.99363425,3.17564621,-12.01371735,0.9789642334,12.46485075
17.00363825,5.987099762,-10.85422852,1.281934204,12.46206225
17.01364225,6.012546844,-9.995614014,3.870201874,12.28989347
17.02364625,5.540727997,-10.98535583,3.491639099,12.78941958
17.03365025,4.722679138,-12.20651642,2.088457031,13.2538445
17.04365425,6.260281677,-13.56224716,1.814975739,15.04725263
17.05365825,8.438402252,-14.87756195,1.75510025,17.19386109
17.06366225,7.817942505,-15.29160095,1.183139648,17.21490936
17.07366525,5.329068146,-14.38463699,-0.7509883118,15.35840917
17.08366925,4.300407257,-13.20134766,-2.921923828,14.18825998
17.09367325,3.4120047,-12.12343918,-4.240232391,13.28906032
17.10367725,2.806214447,-11.2473111,-3.654350739,12.15446937
17.11368125,2.618055725,-10.67624863,-2.842439117,11.35411646
17.12368525,2.447709961,-10.09216324,-2.328557739,10.64261359
17.13368925,1.923050995,-9.410181427,-2.262095947,9.867457509
17.14369325,1.260678406,-8.819809113,-1.926044769,9.115261449
17.15369725,-0.1085243225,-8.48076416,-1.448837128,8.604316782
17.16370125,-1.49658783,-8.167315979,-1.455273743,8.429866375
17.17370425,-1.721270599,-7.773484955,-1.328337708,8.071822711
17.18370825,-1.363364868,-7.594008179,-1.205742645,7.809067762
17.19371225,-0.1508862305,-7.441325684,-0.7454498291,7.480092916
17.20371625,0.2671943665,-7.265291748,0.1905537415,7.272700169
17.21372025,0.5857319641,-7.091952209,0.6710545349,7.147669709
17.22372425,1.341360626,-6.237978058,-0.2017803955,6.383755471
17.23372825,1.783840485,-5.324727173,-0.2987786865,5.6235287
17.24373225,2.342628479,-4.436025238,-0.2935395813,5.025175976
17.25373625,3.019071808,-3.797602844,0.5960604858,4.88793106
17.26374025,3.035537567,-3.677103424,2.104024658,5.211765313
17.27374325,3.298540649,-3.37802536,2.132914581,5.180805957
17.28374725,3.225492554,-3.140768738,2.305954742,5.05822674
17.29375125,2.836601257,-3.080294495,2.235900421,4.74697499
17.30375525,2.448308716,-3.236719208,1.823657684,4.449302659
17.31375925,2.00672699,-3.520678711,1.142723694,4.210457129
17.32376325,1.765279083,-3.692970428,-0.03338058472,4.093330562
17.33376725,1.564097443,-3.669319611,-1.14077774,4.148696309
17.34377125,1.339115295,-3.7676651,-2.398761749,4.66289481
17.35377525,1.18179245,-4.310286713,-3.953428802,5.966976138
17.36377925,1.499282227,-5.388494568,-5.844745789,8.08979445
17.37378325,1.69432663,-6.679559784,-7.971523132,10.5371933
17.38378625,2.125579834,-8.292755127,-10.20113663,13.31732202
17.39379025,3.346291351,-10.62774948,-11.99889816,16.37437883
17.40379425,5.251080322,-13.18233719,-12.79060181,19.10359529
17.41379825,6.546037445,-15.82134933,-14.48732346,22.42873697
17.42380225,6.419700165,-18.44838638,-16.78803909,25.75643156
17.43380625,5.715115356,-19.26793213,-15.44922318,25.34944277
17.44381025,4.55397995,-17.75457916,-11.81193695,21.80563389
17.45381425,3.843108215,-14.50887863,-9.438472595,17.73025112
17.46381825,2.706521759,-9.773475952,-7.764952698,12.77264979
17.47382225,1.993404694,-5.106780396,-8.24560318,9.901658451
17.48382625,0.6328839111,-1.556613007,-8.950337677,9.106708002
17.49382925,-0.1848655701,0.04236190796,-7.654183044,7.656532367
17.50383325,1.943708038,-0.8529263306,-4.132306824,4.645583273
17.51383725,4.934788055,-3.569028168,-1.949695587,6.394639012
17.52384125,8.046966248,-7.92377243,-1.814676361,11.43822039
17.53384525,10.51323761,-14.19243668,-1.033750305,17.69242955
17.54384925,9.436975708,-19.81893631,-0.1905537415,21.95183495
17.55385325,5.532345428,-21.38527908,-4.223317566,22.48940681
17.56385725,3.708837433,-18.08045151,-10.22239243,21.0987087
17.57386125,1.633702698,-9.04943161,5.421575775,10.67495578
17.58386525,2.84917511,-0.02305206299,17.61357239,17.84254081
17.59386825,8.41999054,2.460283813,8.117918701,11.95198064
17.60387225,10.32133667,0.4068539429,-3.505859528,10.90809662
17.61387625,6.277196503,-4.009113007,-8.591683502,11.37071715
17.62388025,1.537602539,-9.727371826,-0.05224136353,9.848284793
17.63388425,0.592767334,-13.5338063,4.370012512,14.23419459
17.64388825,0.5909710693,-14.76784012,4.162094879,15.35452319
17.65389225,2.432441711,-14.20426208,4.108506317,14.98524802
17.66389625,4.103716278,-13.37902817,3.944746857,14.53959799
17.67390025,4.478237457,-12.98654434,3.334016876,14.13579192
17.68390425,3.193309479,-12.77578262,2.65487915,13.43377201
17.69390725,-0.2173480225,-13.08967987,-0.07813751221,13.09171741
17.70391125,-3.856131134,-14.21384216,-4.464017029,15.38929837
17.71391525,-4.068539429,-14.60902039,-4.908293152,15.93950537
17.72391925,-0.8279283142,-12.82053955,-3.549269257,13.32850374
17.73392325,0.3764671326,-10.84554657,-3.287164307,11.339006
17.74392725,1.101259918,-9.947414246,-2.627935181,10.34745703
17.75393125,1.730850677,-9.368567963,-1.444047089,9.635931804
17.76393537,1.420096893,-8.575666809,-0.4544549561,8.704324541
17.77393937,0.9262738037,-7.52365448,0.1008901978,7.581130439
17.78394337,0.7183561707,-6.503675537,0.04475692749,6.54338095
17.79394738,0.6447093201,-5.94398941,-0.2384541321,5.983604314
17.80395037,1.100062408,-6.012846222,-0.6472540283,6.146819891
17.81395438,1.079405365,-6.597530365,-1.473984833,6.845812892
17.82395837,1.478924561,-7.631580048,-2.012864227,8.029934886
17.83396237,1.526375885,-8.510701904,-1.989213409,8.872363847
17.84396637,0.7746391296,-8.832382965,-2.173480225,9.128804462
17.85397037,-0.03233276367,-8.646319885,-2.213896179,8.925313959
17.86397437,-0.1269360352,-8.510402527,-2.289638672,8.813938346
17.87397837,-0.1986369324,-8.456813965,-2.262395325,8.756459997
17.88398237,0.1450483704,-8.479866028,-2.329006805,8.795080419
17.89398637,0.5219645691,-8.480913849,-2.322719879,8.808710142
17.90398938,0.735869751,-8.338559875,-2.073039093,8.623837671
17.91399337,0.9315129089,-8.132288818,-1.703158264,8.360776626
17.92399738,0.9093589783,-8.106692047,-1.357676697,8.269744598
17.93400137,0.7032376099,-8.190368042,-1.171912994,8.303616794
17.94400538,0.7574249268,-8.461753693,-0.8481362915,8.53781607
17.95400937,0.6126759338,-9.071884918,-0.70907547,9.120156566
17.96401337,0.06930587769,-10.03662872,-1.150058441,10.10254195
17.97401737,-0.3650907898,-10.76411591,-1.836680603,10.92578959
17.98402137,-0.7014413452,-11.34909943,-2.422412567,11.62592622
17.99402537,-0.8972341919,-11.85669388,-2.707719269,12.19499744
18.00402837,-0.565973053,-11.84651505,-2.5215065,12.1251078
18.01403237,0.002993774414,-11.1145372,-2.266736298,11.34332577
18.02403637,-0.007933502197,-10.52221893,-2.159259796,10.74148766
18.03404037,-1.205892334,-10.62789917,-1.362616425,10.78253869
18.04404437,-2.708168335,-11.06873245,-0.264200592,11.39828126
18.05404838,-3.690575409,-11.39310791,0.113613739,11.97648374
18.06405237,-3.624562683,-11.25913651,-0.1127156067,11.82870721
18.07405638,-2.798580322,-11.13115265,-0.8030799866,11.50563117
18.08406037,-0.8930429077,-11.5140564,-1.801204376,11.68825725
18.09406438,1.887275391,-12.67534149,-2.114652557,12.98837348
18.10406737,3.35811676,-13.20763458,-3.542533264,14.08077062
18.11407137,3.448678436,-13.15748886,-5.50764679,14.67470849
18.12407537,2.28514801,-13.04911423,-5.844446411,14.47960073
18.13407937,-0.3535647583,-13.49578537,-3.838617554,14.03553403
18.14408337,-2.720742188,-13.74666367,-0.972228241,14.04700779
18.15408737,-2.744692383,-13.12021637,0.1255888367,13.40481952
18.16409137,-1.367107086,-12.68312531,0.2251318359,12.75857883
18.17409537,1.110091553,-11.72796158,1.064885559,11.82841356
18.18409938,4.813839569,-10.02435425,2.163301392,11.32875114
18.19410337,6.451733551,-9.397457886,1.681752777,11.52238573
18.20410738,5.30871048,-9.517657928,1.657203827,11.02336355
18.21411037,4.249363403,-10.99553467,2.202968903,11.99216177
18.22411437,4.738546143,-13.20314392,2.705773315,14.28628847
18.23411837,7.218439178,-14.68865479,2.559976501,16.56550401
18.24412237,8.544980621,-15.02934631,1.052162018,17.3206521
18.25412637,5.877826996,-14.2000708,-0.5911207581,15.37986621
18.26413037,3.414549408,-12.59001892,-1.648222504,13.14854979
18.27413437,3.081641693,-11.86073547,-2.634521484,12.53452292
18.28413837,2.795137482,-11.77825699,-3.398083649,12.57326941
18.29414237,2.389630737,-11.65296753,-3.322939911,12.35086705
18.30414637,2.311792603,-11.30539032,-3.101101227,11.94876831
18.31414938,2.523302765,-10.80857346,-2.790497131,11.44461407
18.32415337,2.385439453,-9.968370667,-2.571203156,10.56739423
18.33415738,1.557211761,-9.117240601,-2.235151978,9.515507816
18.34416137,0.2158511353,-8.495583344,-1.637893982,8.654722685
18.35416537,-0.8153544617,-8.018974457,-1.305734711,8.165396339
18.36416937,-0.7735913086,-7.688012695,-1.115180969,7.806895113
18.37417337,-1.195114746,-7.65822464,-0.6875202942,7.781348729
18.38417737,-0.3682342529,-7.608977051,-0.7496411133,7.654677656
18.39418137,0.4343966675,-7.56930954,-0.2151026917,7.584814865
18.40418537,-0.3085084534,-7.759713593,0.9689350891,7.826056971
18.41418837,0.467328186,-6.753955078,-0.5700146484,6.79405781
18.42419237,1.561103668,-5.574557648,-0.360151062,5.800210894
18.43419637,2.097138977,-5.009782104,1.791025543,5.71871324
18.44420038,3.045566711,-4.189936981,1.893412628,5.515075691
18.45420437,3.341201935,-3.489693146,1.731299744,5.132152319
18.46420838,3.530558167,-2.771187286,1.747017059,4.816262924
18.47421237,3.592678986,-2.341131592,1.398691406,4.510496322
18.48421637,3.247047729,-2.422562256,1.178349609,4.219079834
18.49422037,2.791395264,-2.580184479,0.9297166443,3.913261108
18.50422437,2.130070496,-2.917582855,0.3894900513,3.633344538
18.51422837,1.716630249,-3.435954895,-0.7402107239,3.911587576
18.52423137,1.609602814,-3.55241272,-1.550775146,4.197065749
18.53423537,1.742975464,-3.866459656,-2.302212524,4.825728571
18.54423937,1.899998932,-4.605921936,-3.328478394,5.991934682
18.55424337,2.014361115,-5.72170166,-4.629572754,7.630757791
18.56424737,2.178569641,-7.017556915,-6.481970673,9.798378159
18.57425138,2.290387115,-8.764424286,-8.704997864,12.56335918
18.58425537,2.698288879,-10.98595459,-11.85205353,16.38423431
18.59425938,3.535497894,-14.45558945,-16.65436707,22.33454172
18.60426337,4.499343567,-20.10768585,-21.58197006,29.83864197
18.61426738,5.141059113,-24.86179962,-19.44920517,31.98141884
18.62427037,6.236630859,-23.62043106,-11.32410141,26.9268565
18.63427437,6.268514557,-17.76850021,-8.788823547,20.7907983
18.64427837,4.366270294,-10.61577438,-9.616452484,14.97448298
18.65428237,2.93225235,-4.254602509,-10.65289719,11.83993095
18.66428637,1.862576752,0.3847000122,-9.811496887,9.994131149
18.67429037,0.9725276184,2.129920807,-7.142696686,7.516680687
18.68429437,0.3585044861,2.477797394,-2.91354126,3.841448693
18.69429837,1.393302612,0.7204518127,0.09220825195,1.571255977
18.70430238,4.879403229,-2.690954132,-0.1465452576,5.574162316
18.71430637,8.265811157,-6.83209259,-1.259181519,10.79753034
18.72430938,10.46204407,-12.19798416,-2.166444855,16.21538365
18.73431337,10.32148636,-17.76790146,-4.706213379,21.08031896
18.74431737,7.125931549,-22.27038849,-7.777227173,24.64212585
18.75432137,5.007686462,-22.94488586,-11.15914444,26.0013695
18.76432533,0.3950285339,-14.93414429,-2.101330261,15.08642774
18.77432933,-2.390229492,-2.818189545,14.08750488,14.56410599
18.78433333,4.448599091,1.945204926,9.559121704,10.72150474
18.79433733,9.921218719,0.4834945679,2.03127594,10.13856153
18.80434133,6.373146973,-2.878214722,-6.094276886,9.275846758
18.81434533,1.354084167,-7.266638947,-4.35968399,8.581633295
18.82434933,0.3849993896,-10.12419662,3.071013794,10.58672317
18.83435233,1.08344696,-11.98767151,4.402195587,12.81629633
18.84435633,1.499282227,-13.71358246,3.115471344,14.14271377
18.85436033,2.67359024,-13.68633911,2.853216705,14.23393159
18.86436433,3.628304901,-13.4568663,2.648592224,14.18685617
18.87436833,3.258424072,-13.40357712,1.834884338,13.9154593
18.88437233,0.7680528259,-13.84875137,1.094673615,13.91316391
18.89437633,-3.222648468,-15.44039154,-1.681752777,15.86251703
18.90438033,-4.508025513,-15.51194275,-4.143982544,16.67678786
18.91438433,-0.9136999512,-13.05719742,-4.278403015,13.77062033
18.92438833,1.588047638,-11.00676132,-3.197051697,11.57116371
18.93439233,2.121987305,-10.32822235,-2.211201782,10.77331984
18.94439533,2.585573273,-9.724827118,-1.176253967,10.1311907
18.95439933,2.550246735,-8.888516235,-0.2583627319,9.250742163
18.96440333,2.319277039,-7.74594223,0.4282594299,8.097041012
18.97440733,2.373614044,-6.643035736,0.3954776001,7.065434874
18.98441133,2.725232849,-5.851182404,0.06810836792,6.455065325
18.99441533,3.024610291,-5.444478149,-0.7915539551,6.278309278
19.00441933,2.480641479,-6.168223114,-1.213975525,6.758276046
19.01442333,1.194216614,-7.041806488,-1.054706726,7.219805968
19.02442733,-0.2525248718,-7.715854797,-0.3999682617,7.73034014
19.03443133,-0.2284249878,-8.48315918,-0.5933660889,8.506953095
19.04443533,-0.4306544495,-8.917705536,-1.316961365,9.024706229
19.05443833,-1.003513184,-8.774902496,-1.535057831,8.964505289
19.06444233,-1.043031006,-8.728199615,-1.554667053,8.926722347
19.07444633,-0.8896000671,-8.771609344,-1.706750793,8.980284909
19.08445033,-0.7723937988,-8.825347595,-1.601220245,9.002625097
19.09445433,-0.4918771362,-8.660240936,-1.610500946,8.822438976
19.10445833,-0.1089733887,-8.339458008,-1.688189392,8.509313632
19.11446233,0.386945343,-7.980803833,-1.699715424,8.168964992
19.12446633,0.6658154297,-7.748786316,-1.861977997,7.997122083
19.13447033,0.7268884277,-7.942034454,-1.918260956,8.20268268
19.14447433,0.6451583862,-8.699309692,-1.952090607,8.938952746
19.15447833,0.2752775574,-9.787696381,-2.066452789,10.00724764
19.16448233,-0.1416055298,-10.62655197,-2.038910065,10.82131291
19.17448633,-0.4090992737,-10.99613342,-1.785936127,11.14772983
19.18448933,-0.6562353516,-11.32350266,-1.61005188,11.45620462
19.19449333,-0.6149212646,-11.52827682,-1.868414612,11.69488212
19.20449733,-0.5322930908,-11.39924515,-2.241588593,11.62973969
19.21450133,-0.5417234802,-10.80378342,-2.321821747,11.06372707
19.22450533,-0.63887146,-10.51353699,-2.127974854,10.7457384
19.23450933,-1.366807709,-10.7921077,-1.378633118,10.96532631
19.24451333,-2.395019531,-11.29072083,-0.4414320374,11.55038344
19.25451733,-3.12759613,-11.30943192,-0.1107696533,11.7344526
19.26452133,-3.07266037,-11.09492798,0.06541397095,11.51272981
19.27452533,-2.503543854,-11.03505249,0.1957928467,11.31717501
19.28452933,-0.8708889771,-11.11573471,-0.660276947,11.16933174
19.29453333,1.326541443,-11.90983337,-1.655108185,12.09724044
19.30453733,2.534230042,-13.24011703,-2.617157593,13.73217153
19.31454133,3.138673096,-13.74606491,-3.713178406,14.58057829
19.32454433,2.639610901,-13.80159943,-3.937861176,14.59309573
19.33454833,0.5760021973,-13.8072876,-3.203638,14.18577688
19.34455233,-1.728904724,-14.03376663,-1.778451691,14.25126689
19.35455633,-2.856060791,-14.00323013,-0.516126709,14.30083649
19.36456033,-2.4034021,-13.90248962,0.002544708252,14.10870532
19.37456433,-0.3049159241,-13.44324463,0.1417552185,13.44744936
19.38456833,3.983216858,-11.95114746,-0.360151062,12.60260493
19.39457233,6.287525024,-9.484576721,0.2362088013,11.38182591
19.40457633,5.842500458,-7.808512115,2.132764893,9.982803171
19.41458033,4.799319763,-8.636290741,2.209405518,10.12425112
19.42458433,3.951782227,-11.01200043,1.95403656,11.86166072
19.43458833,4.995411987,-14.09558807,2.633623352,15.18471982
19.44459233,6.993007965,-15.8894577,2.673141174,17.56481455
19.45459633,7.05677536,-15.31465302,1.797911224,16.95786426
19.46460033,4.246369629,-13.55700806,0.4071533203,14.21231495
19.47460333,2.821931763,-11.88318878,-0.8713380432,12.24470108
19.48460733,3.101101227,-11.14597183,-2.037712555,11.74741628
19.49461133,2.928659821,-11.20015915,-2.711611176,11.89005671
19.50461533,2.046095123,-11.5538736,-2.888543243,12.08396385
19.51461933,2.069296875,-11.68290527,-2.967878265,12.23031343
19.52462333,2.643951874,-11.19701569,-3.314407654,11.97284176
19.53462733,1.945055237,-10.25906616,-3.720962219,11.0850006
19.54463133,0.9530680847,-9.088799744,-3.150648193,9.666499035
19.55463533,0.09909393311,-8.12390625,-2.191293182,8.414834412
19.56463933,-0.5301974487,-7.658074951,-1.460063782,7.814026333
19.57464333,-1.083147583,-7.088209991,-0.7306306458,7.207617547
19.58464733,-0.878972168,-6.782695313,-0.5499563599,6.861486703
19.59465133,-0.3385958862,-6.756799164,-0.3924838257,6.776652984
19.60465533,-0.2023791504,-6.785539398,-0.2555186462,6.793363822
19.61465933,0.08951385498,-6.444548492,-0.2287243652,6.449227305
19.62466233,1.106499023,-5.444029083,-1.352437592,5.717593916
19.63466633,1.578916626,-4.718188477,-1.070124664,5.08914993
19.64467033,1.752256165,-4.493655396,-0.1011895752,4.824269873
19.65467433,2.484982452,-4.234843597,0.3674858093,4.923828176
19.66467833,2.858306122,-4.073179779,1.017883301,5.079054421
19.67468233,3.058439941,-3.934568024,1.183588715,5.122085772
19.68468633,2.962788849,-3.794309692,1.09632019,4.937288908
19.69469033,2.697690125,-3.99115036,0.9306147766,4.906409794
19.70469433,2.472109222,-4.265080719,0.5580395508,4.961214134
19.71469833,2.354453888,-4.459975433,0.03772155762,5.043437012
19.72470233,2.294129333,-4.503834229,-0.6339317322,5.094057479
19.73470633,2.272723846,-4.375101929,-1.279838562,5.093601605
19.74471033,2.249073029,-4.314028931,-1.989512787,5.256171252
19.75471433,2.248174896,-4.515060883,-2.866089935,5.801253025
19.76471896,2.25236618,-5.132077789,-3.628155212,6.676442622
19.77472296,2.318977661,-6.149212646,-4.446503448,7.934851384
19.78472596,2.522254944,-7.43818222,-6.018235016,9.894820739
19.79472996,2.995121613,-9.042096863,-8.871900787,13.01694637
19.80473396,3.940555573,-11.33697464,-12.94373337,17.65205953
19.81473796,4.929249573,-14.99446884,-17.4328981,23.51675006
19.82474196,5.238057404,-19.7102623,-20.22354492,28.72148071
19.83474596,5.602549438,-22.67155426,-17.05104218,28.91584292
19.84474996,5.653443604,-20.65898941,-11.52243896,24.32122258
19.85475396,4.594246216,-15.18711823,-9.478439484,18.48232868
19.86475796,2.985391846,-9.256451111,-9.601483612,13.6668555
19.87476196,2.062261505,-3.749552765,-10.06192612,10.93409464
19.88476596,1.561103668,-0.518821106,-8.833580475,8.985452911
19.89476996,2.031874695,0.1022373962,-4.901557159,5.306998196
19.90477396,3.021915894,-1.426982574,-0.9729766846,3.480652031
19.91477796,5.993835754,-4.871170349,0.06316864014,7.723882307
19.92478196,9.218879242,-9.513316956,-0.2962339783,13.25061087
19.93478596,10.01941452,-14.42400513,0.00628692627,17.56247792
19.94478996,7.924221497,-17.69185959,-1.435215454,19.43849339
19.95479296,5.859564972,-17.54800873,-7.141199799,19.83088113
19.96479696,4.438270569,-14.33658691,-8.883127441,17.4397799
19.97480096,0.8731343079,-7.055278473,4.789589996,8.572017859
19.98480496,2.378853149,-1.044976959,10.42881317,10.74760733
19.99480896,7.07548645,-0.05149291992,4.631518707,8.456720733
20.00481296,6.762487335,-2.12842392,-2.924318848,7.668967601
20.01481696,1.977088623,-6.399941254,-5.88201828,8.91438537
