Time (s),Acceleration x (m/s^2),Acceleration y (m/s^2),Acceleration z (m/s^2),Absolute acceleration (m/s^2)
10.00113412,1.007105713,-1.258133698,1.980381775,2.553247793
10.01113613,0.8502319336,-1.58430542,2.458936615,3.046192259
10.02113912,0.7095245361,-1.940265198,2.839295654,3.511360693
10.03114113,0.802331543,-4.111949158,2.84917511,5.066523521
10.04114313,-0.7060816956,-16.23389145,5.957012329,17.30675529
10.05114612,-9.326655121,-53.75935684,20.60165863,58.3222366
10.06114813,-19.08965286,-92.12951569,34.12154388,100.0826771
10.07115112,-16.30199982,-70.07991806,24.3272612,75.95239134
10.08115313,-9.548493805,-37.00230331,10.45291306,39.61827326
10.09115613,-9.48936676,-29.60229172,6.093528442,31.67767108
10.10115812,-14.30126038,-32.8354184,-0.1618135071,35.81503781
10.11116013,-26.73305832,-43.68291092,-37.1870192,63.29081695
10.12116312,-17.18815704,-40.11103867,0.669407959,43.64374265
10.13116512,-11.15734818,-35.43431396,11.73020691,38.95734563
10.14116813,-11.14806747,-33.07028,8.858129425,36.00540632
10.15116912,-10.47536636,-29.05203598,9.054221649,32.18280635
10.16117213,-9.412726135,-25.25263687,7.654781799,28.01590203
10.17117413,-8.081244965,-22.09809677,6.522835693,24.41679313
10.18117612,-6.587052155,-19.05881699,5.182672577,20.82037118
10.19117913,-5.037025452,-15.96280518,4.191134491,17.25538707
10.20118112,-3.715723114,-12.85781204,3.415746918,13.81293799
10.21118413,-2.298769684,-9.538913727,2.762954407,10.19358299
10.22118613,-1.013542328,-6.374494171,2.189945984,6.815959756
10.23118812,-0.3062631226,-3.81915802,1.535057831,4.127489264
10.24119113,0.03427871704,-1.92948761,0.9125024414,2.134656453
10.25119312,0.2983296204,-0.6761439514,0.4860392761,0.8845368185
10.26119613,0.5049000549,0.07963439941,0.2263293457,0.5590086545
10.27119813,0.623303833,0.7896080017,-0.09056167603,1.010044495
10.28120112,-2.109563141,5.143454132,-3.867657166,6.77230751
10.29120313,-6.418652344,14.61321167,-4.283791809,16.52561422
10.30120512,-1.905088348,18.43805786,4.209396515,19.00816557
10.31120813,3.916455688,13.01169205,2.63616806,13.84168115
10.32121013,5.881269836,5.893694,0.2251318359,8.329204536
10.33121312,6.686894531,2.365081787,0.1240919495,7.093910709
10.34121513,5.541326752,-0.07484436035,0.1438508606,5.543698848
10.35121713,4.518503723,-1.341660004,0.7970924377,4.78040624
10.36122012,3.854185181,-1.76093811,1.675465851,4.556625095
10.37122213,3.072959747,-1.870210876,1.90718399,4.07162389
10.38122512,2.412982178,-1.65331192,1.73758667,3.40222438
10.39122713,1.806443481,-1.311123505,1.427581329,2.649579466
10.40123013,1.393901367,-0.9205856323,1.055155792,1.97580178
10.41123212,1.142873383,-0.5310955811,0.7318281555,1.457324444
10.42123413,0.9098080444,-0.2466870117,0.5963598633,1.115459657
10.43123712,0.7059320068,-0.07110214233,0.5510041809,0.8983324108
10.44123913,0.6087840271,0.08936416626,0.502205658,0.7942382947
10.45124213,0.5510041809,0.3571572876,0.4881349182,0.8181947408
10.46124412,0.3523672485,1.521885223,0.724044342,1.721783238
10.47124613,-0.04819976807,3.894301758,1.12326416,4.053348217
10.48124912,-0.1246907043,4.85350708,0.8280780029,4.925219988
10.49125113,0.005239105225,3.560196533,0.3474275208,3.577112339
10.50125413,0.1887574768,1.636846161,0.386945343,1.692519258
10.51125612,0.4944218445,0.2811154175,0.6042933655,0.8298489681
10.52125913,0.6379733276,-0.3849993896,0.7137158203,1.031806556
10.53126112,0.6346801758,-0.5893244934,0.7903564453,1.172512514
10.54126313,0.6292913818,-0.5179229736,0.9300160217,1.236600845
10.55126613,0.6888674927,-0.2064207458,1.014290771,1.243355828
10.56126812,0.8535250854,0.2263293457,1.057401123,1.377616485
10.57127113,0.9134005737,0.5355862427,1.270108795,1.653580837
10.58127312,0.7860154724,0.2622546387,1.586251373,1.789634387
10.59127512,0.6965016174,-0.5607339478,1.458866272,1.711089671
10.60127813,0.5542973328,-1.11622879,1.499431915,1.949745705
10.61128012,0.4065545654,-1.269060974,1.687740326,2.150411537
10.62128313,0.3760180664,-1.587299194,1.98098053,2.566162929
10.63128513,0.5245092773,-3.320095825,2.126627655,3.977523281
10.64128812,0.214354248,-10.9233847,3.965254211,11.62280182
10.65129013,-4.491859131,-36.10686539,12.50020569,38.47255735
10.66129212,-15.05973312,-74.07481064,25.24919403,79.69563935
10.67129513,-20.68293961,-77.75221344,26.70746155,84.77310415
10.68129713,-15.55969345,-50.19466965,16.22775421,54.99953571
10.69130012,-11.02412521,-34.43603989,8.277337189,37.09294395
10.70130213,-13.9426062,-32.04625946,-5.41977951,35.36570405
10.71130512,-24.73770767,-39.06561264,-42.19380753,62.59707394
10.72130713,-18.85494095,-38.15625366,5.799539795,42.95396552
10.73130913,-14.47370178,-35.39524521,13.82989059,40.66420171
10.74131212,-13.0348938,-32.65968384,8.738677826,36.23434689
10.75131413,-11.98288147,-29.03751617,8.341104584,32.50139719
10.76131712,-11.56090897,-25.86246872,6.628216553,29.09390244
10.77131913,-10.45201492,-24.02533905,6.037095795,26.88694959
10.78132113,-9.41916275,-22.90432022,5.741759949,25.42235864
10.79132412,-8.186027069,-21.35384445,5.387895813,23.49525768
10.80132613,-6.748865662,-18.98382294,5.022655334,20.76438749
10.81132912,-5.112318878,-15.89394836,4.136348419,17.20066211
10.82133113,-3.576662292,-12.61636414,3.216361542,13.50222718
10.83133413,-2.305505676,-9.427096252,2.369871826,9.990084717
10.84133612,-1.344055023,-6.602170715,1.655407562,6.937976381
10.85133813,-0.6218069458,-4.243974609,1.088536377,4.425254321
10.86134112,-0.1883084106,-2.339634705,0.6252497864,2.429050824
10.87134312,-0.4007167053,0.4198768616,-1.044228516,1.194689771
10.88134613,-2.060016174,5.266198883,-4.160298615,7.020299273
10.89134812,-0.660276947,5.766308899,-1.018631744,5.892698414
10.90135013,1.376238098,2.900967407,0.9771679688,3.356262868
10.91135313,2.227667542,0.6074368286,0.3430865479,2.334350136
10.92135512,2.586172028,0.2115101624,0.4984634399,2.642250576
10.93135813,2.735112305,0.5680686951,0.5613327026,2.849321983
10.94136012,2.244881744,8.014034729,2.081271973,8.578807592
10.95136313,3.899241486,18.04991501,3.75598938,18.84438835
10.96136513,5.049599304,9.802515564,1.550475769,11.13515782
10.97136712,2.991978149,0.4493655396,0.2908451843,3.039482449
10.98137013,2.204016724,-0.543968811,0.6192622375,2.353099553
10.99137212,2.105820923,-0.8024812317,0.7957452393,2.3899097
11.00137513,2.048190765,-1.036594391,0.9913883972,2.500492811
11.01137713,2.19623291,-1.061742096,1.345402222,2.785828855
11.02137912,2.103575592,-1.10919342,1.556313629,2.842085929
11.03138213,1.829196167,-1.105900269,1.400038605,2.555206864
11.04138412,1.550026703,-1.004111938,1.098116455,2.148646856
11.05138713,1.130449219,-0.7195536804,0.9081614685,1.618774286
11.06138913,0.8240364075,-0.1757345581,0.7478448486,1.126583576
11.07139212,0.5917195129,1.290316772,0.5426216125,1.519699829
11.08139413,0.1026864624,4.052223358,0.2574645996,4.061692587
11.09139612,0.01721420288,3.926035767,0.9114546204,4.030484176
11.10139913,0.3031196594,1.879491577,1.771266632,2.600337593
11.11140113,0.5465135193,0.4379891968,1.838626556,1.967500744
11.12140412,0.6626719666,-0.1282832336,1.544338531,1.685399722
11.13140613,0.7117698669,-0.1755848694,1.417402496,1.595768225
11.14140813,0.6852749634,0.04805007935,1.32803833,1.495191089
11.15141112,0.476459198,0.4308041382,1.114582214,1.286428811
11.16141392,0.2254312134,0.7999365234,0.8511300659,1.189596597
11.17141692,0.09460327148,0.9469308472,0.6804849243,1.169909202
11.18141892,0.005688171387,0.7987390137,0.5319937134,0.9597049955
11.19142192,-0.006586303711,0.5381309509,0.4390370178,0.694537114
11.20142392,0.02065704346,0.1630110168,0.412691803,0.4442002131
11.21142592,0.05179229736,-0.3338058472,0.4158352661,0.5357497123
11.22142892,0.1513352966,-0.6252497864,0.5643264771,0.8557476498
11.23143092,0.1860630798,-0.6893165588,0.6756948853,0.9830261268
11.24143392,0.2104623413,-0.799637146,0.825383606,1.168320187
11.25143592,0.2005828857,-1.041683807,1.021625519,1.472771995
11.26143792,0.3240760803,-2.140548706,1.15484848,2.453701099
11.27144092,0.5864804077,-6.781198425,2.275418243,7.176777796
11.28144292,-1.625320129,-22.69460632,7.875422974,24.0771491
11.29144592,-10.64945435,-56.70044083,19.54276062,60.91198864
11.30144792,-21.24472137,-76.42522293,27.34154297,83.90299672
11.31145092,-18.70615036,-52.78877518,19.31553314,59.24242286
11.32145292,-9.948162689,-29.09963699,8.826844482,31.99481204
11.33145492,-8.287965088,-22.02669525,3.969445496,23.86675861
11.34145792,-13.8536911,-25.13932251,-5.694458313,29.26323886
11.35145992,-25.69032669,-37.24255371,-27.92173645,53.16600473
11.36146292,-18.90269165,-38.57852554,4.351900177,43.18047498
11.37146492,-14.17627029,-35.58055984,11.06499023,39.86698994
11.38146692,-12.59914993,-33.03824661,9.33608551,36.57084646
11.39146992,-10.97547638,-31.36577454,9.980196075,34.69693369
11.40147192,-10.54152878,-30.16961197,9.472152557,33.3324315
11.41147492,-9.57364151,-28.47887787,9.071735229,31.38466945
11.42147692,-8.304879913,-26.04254425,8.35203186,28.58218987
11.43147992,-7.124734039,-23.20100327,7.281907196,25.3391902
11.44148192,-6.164630585,-20.34613998,6.226452026,22.1525797
11.45148392,-5.348827057,-17.48214569,5.267845459,19.02591823
11.46148692,-4.655319214,-14.71200623,4.256099396,16.00717046
11.47148892,-3.777993622,-12.0780835,3.227887573,13.06034436
11.48149192,-2.794688416,-9.351054382,2.30969696,10.0293171
11.49149392,-2.012265472,-6.798412628,1.794318695,7.313494799
11.50149692,-1.419198761,-4.577032013,1.443298645,5.004643659
11.51149892,-0.9364526367,-2.765499115,1.01563797,3.091350737
11.52150092,-0.5164260864,-1.316961365,0.6644682312,1.562882327
11.53150392,-0.1552272034,-0.2893482971,0.4023632813,0.5193400926
11.54150592,0.1169068909,0.2559677124,0.2067201233,0.3491703027
11.55150892,0.2418969727,0.950223999,-0.05224136353,0.9819210527
11.56151092,-0.2767744446,2.421065369,-0.5480104065,2.49769434
11.57151292,-2.371967468,7.645052032,-0.1407073975,8.005800948
11.58151592,-3.551364899,16.21682693,1.96226944,16.71670332
11.59151792,0.9187893677,12.99537598,2.151176605,13.204224
11.60152092,3.385509796,6.359974365,0.7297325134,7.241785695
11.61152292,4.018992462,1.494791565,0.1784289551,4.291682552
11.62152592,3.951632538,0.375718689,-0.2558180237,3.977688664
11.63152792,4.162394257,0.1222956848,0.2342628479,4.17077466
11.64152992,4.183949432,-0.5634283447,1.092577972,4.360803937
11.65153292,3.967649231,-1.124311981,1.719624023,4.468044833
11.66153492,3.408861237,-1.298250275,1.97978302,4.150340891
11.67153792,2.564766541,-1.153052216,1.834285583,3.357403822
11.68153992,1.796414337,-0.8846603394,1.506766663,2.506007614
11.69154192,1.22864502,-0.6411167908,1.120869141,1.782399213
11.70154492,0.8375083923,-0.3785627747,0.8496331787,1.25164157
11.71154692,0.6027964783,0.1170565796,0.7426057434,0.9636021623
11.72154992,0.4155358887,1.203497314,0.7556286621,1.480557508
11.73155192,0.04924758911,2.904859314,0.7318281555,2.99603161
11.74155392,-0.2532733154,3.497926025,0.6459068298,3.566066388
11.75155692,-0.1916015625,2.681074677,0.6571334839,2.767073724
11.76155892,0.07813751221,1.281036072,0.664019165,1.445019149
11.77156192,0.3263214111,0.1808239746,0.6756948853,0.7718461965
11.78156392,0.4549040222,-0.2847079468,0.6521937561,0.8446022614
11.79156692,0.528999939,-0.4222718811,0.6327342224,0.9265565677
11.80156892,0.545615387,-0.3113525391,0.5929170227,0.8638212488
11.81157092,0.590072937,-0.06406677246,0.473764801,0.7594364417
11.82157392,0.5542973328,0.1288819885,0.2511776733,0.6220500974
11.83157592,0.5062472534,0.3282673645,0.03742218018,0.6045214337
11.84157892,0.4568499756,0.4272116089,-0.07110214233,0.6295054993
11.85158092,0.3008743286,0.3083587646,-0.04161346436,0.4328304169
11.86158292,0.1667532349,-0.08726852417,0.1941462708,0.2703982454
11.87158592,0.1916015625,-0.4364923096,0.4156855774,0.6324801928
11.88158792,0.2412982178,-0.5957611084,0.6105802917,0.8865463444
11.89159092,0.2480342102,-0.8056246948,0.8722361755,1.21299137
11.90159292,0.2552192688,-1.477427673,1.166224823,1.899476176
11.91159592,0.5382806396,-4.964127045,1.779499512,5.300841619
11.92159792,-0.5804928589,-16.71154816,5.916596375,17.73750057
11.93159992,-6.268514557,-47.57347046,17.84933212,51.19695326
11.94160292,-15.89140366,-77.63635437,30.08967819,84.76631975
11.95160492,-19.05687103,-68.76205856,27.4897348,76.4661399
11.96160792,-11.93902267,-41.29881866,13.55985214,45.07773592
11.97160992,-9.234895935,-30.67301514,5.081932068,32.43367377
11.98161292,-12.3063588,-31.64434525,4.345762939,34.23005563
11.99161492,-16.92156143,-37.75883011,1.808539124,41.41665494
12.00161692,-27.59451691,-44.13871307,-22.33340744,56.6433089
12.01161992,-20.44119232,-38.89466812,-2.891387329,44.03405128
12.02162192,-12.13346832,-32.75698151,11.58276352,36.80219153
12.03162492,-10.16012192,-30.90278732,9.241931305,33.81750487
12.04162692,-7.786507874,-27.55978912,8.579858093,29.89624803
12.05162892,-5.517526245,-23.38227631,7.213050385,25.08389996
12.06163192,-3.919898529,-19.08336594,5.093907166,20.1367413
12.07163392,-2.930306396,-15.61373108,3.830384674,16.34157705
12.08163692,-2.055675201,-12.49541565,2.916684723,12.99493219
12.09163892,-1.478325806,-9.391919403,2.211800537,9.761437337
12.10164192,-0.7512876892,-6.409371643,1.895807648,6.72596199
12.11164392,-0.1110690308,-3.941753082,1.33387619,4.162809073
12.12164592,0.1908531189,-2.099384308,0.75353302,2.238671793
12.13164892,0.4575984192,-0.8083190918,0.4489164734,1.031650167
12.14165092,0.6821315002,0.04505630493,0.2076182556,0.7144499943
12.15165392,0.1472937012,1.924547882,-0.9243278503,2.140084568
12.16165612,-3.281775513,8.626860352,-5.536237335,10.76302438
12.17165813,-3.510050812,14.12133453,-0.7948471069,14.57272547
12.18166113,0.2209405518,14.30425415,3.482508087,14.72373472
12.19166312,2.655926971,9.180858307,1.390608215,9.65794484
12.20166613,3.410956879,4.662204895,0.8774752808,5.843008145
12.21166812,3.277584229,2.251767426,0.8988807678,4.076886257
12.22167113,2.853965149,0.5517526245,1.052611084,3.091526827
12.23167313,2.314037933,-0.5643264771,1.409169617,2.767488923
12.24167512,2.077529755,-1.075513458,1.888023834,3.006242352
12.25167813,1.838626556,-1.272054749,2.085463257,3.057421772
12.26168013,1.60885437,-1.308878174,2.003433838,2.883629935
12.27168312,1.457519073,-1.245260468,1.801204376,2.63047005
12.28168513,1.363963623,-1.108295288,1.641486511,2.404827058
12.29168712,1.289119263,-0.9536668396,1.467548218,2.17370805
12.30169013,1.203647003,-0.8271798706,1.197060699,1.888371511
12.31169213,1.078956299,-0.5828878784,0.872535553,1.505065867
12.32169512,1.15140564,-0.2233355713,0.6646179199,1.348084086
12.33169713,1.258732452,0.1167572021,0.5441184998,1.376264718
12.34170012,1.234931946,0.3354524231,0.3787124634,1.334544255
12.35170213,1.136287079,0.4528083801,0.2627037048,1.251078331
12.36170413,1.068627777,0.5200186157,0.06167175293,1.190037013
12.37170712,0.9737251282,0.6503974915,-0.09550140381,1.174852348
12.38170913,0.7222480774,1.441951447,0.02200424194,1.612870251
12.39171212,0.2402503967,3.715124359,0.3390449524,3.738291152
12.40171413,0.1019380188,5.20108429,0.3920347595,5.216834327
12.41171613,0.2073188782,3.334915009,0.3625460815,3.360963983
12.42171912,0.3122506714,1.167871399,0.3763174438,1.266111727
12.43172113,0.4993615723,0.1652563477,0.4195774841,0.6728424076
12.44172412,0.6062393188,-0.3126997375,0.5002597046,0.8459119396
12.45172613,0.6896159363,-0.5454656982,0.7168592834,1.134455905
12.46172813,0.7705975342,-0.6966513062,1.020877075,1.456479868
12.47173112,0.8211923218,-0.8583151245,1.247805176,1.722811493
12.48173313,0.8852590942,-1.059347076,1.496288452,2.035873037
12.49173612,0.9273216248,-1.366807709,1.910327454,2.525359319
12.50173812,0.9816586304,-1.951342163,2.543061676,3.352395053
12.51174113,1.332379303,-4.748724976,3.168161774,5.861985374
12.52174312,-0.4555027771,-16.73759399,6.772815857,18.06171559
12.53174513,-7.481442261,-50.76872589,19.40280167,54.86259399
12.54174813,-12.78147079,-84.6895372,32.04895386,91.44845078
12.55175012,-9.649533691,-68.2188382,23.7168306,72.86570825
12.56175313,-4.498295746,-36.81115082,10.96424973,38.67182775
12.57175512,-4.59963501,-27.81051773,6.152954865,28.85204312
12.58175813,-6.733447723,-29.99941589,6.053561554,31.33607952
12.59176013,-13.43800552,-38.0841037,-4.274960175,40.61101121
12.60176212,-19.94018417,-43.25135834,-25.24440399,53.90334754
12.61176513,-10.74241104,-37.69566147,4.031566315,39.40324626
12.62176712,-7.691754913,-34.66760834,8.574469299,36.53118784
12.63177013,-7.195836182,-31.53417435,7.980504456,33.31475141
12.64177213,-6.274202728,-26.94292191,7.918233948,28.77473005
12.65177412,-5.803282013,-23.28752335,6.749165039,24.93066494
12.66177713,-5.494474182,-20.54986633,5.939648438,22.08541773
12.67177912,-5.023703156,-17.93001434,5.064418488,19.29692572
12.68178213,-4.057612152,-15.20163803,4.278253326,16.30513621
12.69178413,-2.962489471,-12.47371078,3.587140503,13.31305305
12.70178712,-2.016905823,-9.855505371,2.966980133,10.48817745
12.71178913,-1.287023621,-7.30480957,2.302960968,7.76661457
12.72179112,-0.6730004883,-5.040019226,1.713786163,5.365797841
12.73179413,-0.1380130005,-3.150049438,1.19586319,3.372231875
12.74179613,0.2580633545,-1.693578186,0.6700067139,1.839487093
12.75179912,0.5613327026,-0.6634204102,0.3559597778,0.9391104339
12.76180113,1.129850464,0.3656895447,0.2571652222,1.215082246
12.77180313,2.44785965,3.82499588,-0.3478765869,4.554517369
12.78180613,0.3583547974,8.124505005,-2.83390686,8.61202809
12.79180813,-0.7259902954,8.634793854,-0.4505630493,8.676965706
12.80181112,0.946481781,6.705455933,1.412013702,6.917568194
12.81181313,2.466271362,4.184548187,1.512604523,5.087328415
12.82181613,3.441942444,3.129093018,1.354084167,4.844763651
12.83181812,4.147724762,3.432512054,1.401834869,5.563353369
12.84182013,4.061204681,3.757486267,1.683249664,5.783201185
12.85182312,3.177741852,2.177970886,1.728755035,4.222581489
12.86182513,2.403252411,1.056802368,1.620979156,3.085454071
12.87182813,1.61349472,0.3607498169,1.31756012,2.114112181
12.88183012,0.9774673462,-0.04430786133,1.115031281,1.483475769
12.89183213,0.6330335999,-0.1350192261,1.072819061,1.252957489
12.90183512,0.4486170959,-0.07514373779,1.044228516,1.138998276
12.91183713,0.365539856,0.1466949463,1.049018555,1.120526091
12.92184013,0.3614982605,0.6601272583,1.051413574,1.293027259
12.93184212,0.3335064697,1.525627441,1.093625793,1.906510695
12.94184413,0.1796264648,2.448308716,1.084345093,2.68370742
12.95184712,-0.05763015747,2.859503632,1.031504974,3.040408651
12.96184913,-0.1240919495,2.615660706,0.9383985901,2.781667064
12.97185213,0.05628295898,2.117496643,0.8912466431,2.298103649
12.98185412,0.3104544067,1.481469269,1.043929138,1.838728142
12.99185713,0.3734733582,0.918639679,1.300345917,1.635322816
13.00185912,0.573457489,0.5310955811,1.428030396,1.627939439
13.01186112,0.8768765259,0.3047662354,1.464404755,1.73386164
13.02186413,0.9451345825,0.1422042847,1.588047638,1.853482327
13.03186612,0.9623487854,0.04909790039,1.69193161,1.947089716
13.04186913,0.9467811584,-0.02799179077,1.7703685,2.007830353
13.05187113,0.8523275757,-0.2721340942,1.752854919,1.96799889
13.06187312,0.6978488159,-0.7385641479,1.59717865,1.893000161
13.07187613,0.5438191223,-1.105151825,1.415905609,1.87666952
13.08187812,0.3632945251,-1.117575989,1.441203003,1.859576591
13.09188113,0.2538720703,-1.189276886,1.532662811,1.95649836
13.10188313,0.1013392639,-1.43925705,1.866468658,2.35911758
13.11188612,0.005837860107,-3.899241486,2.488425293,4.625621978
13.12188813,-0.6698570251,-15.54891586,5.665418701,16.56244131
13.13189012,-7.689659271,-51.72957779,16.38702301,54.80524246
13.14189313,-21.30684219,-94.65700974,28.27619934,101.0617359
13.15189513,-21.73225754,-77.33577942,22.36903336,83.38757371
13.16189787,-11.59518768,-42.00430161,8.991502075,44.49333479
13.17189988,-8.972641296,-33.04797638,-10.80213684,35.90770384
13.18190288,-11.69293442,-40.36700638,-72.82041916,84.07754377
13.19190487,-9.143286438,-42.09800674,2.813249817,43.17124313
13.20190688,-6.187682648,-38.46880371,12.85826111,41.03012496
13.21190987,-5.493725739,-36.14443726,8.148604889,37.45665667
13.22191187,-6.169270935,-33.34615631,9.29162796,35.16191682
13.23191488,-7.350614319,-29.54615845,6.661597137,31.16703204
13.24191687,-9.601932678,-26.4082338,5.276677094,28.59082448
13.25191888,-9.627529449,-23.68479721,3.892655182,25.86139413
13.26192188,-7.981851654,-20.8675058,2.471660156,22.478253
13.27192387,-5.340594177,-17.55055344,0.9852511597,18.37157021
13.28192688,-2.928360443,-13.87599472,0.4719685364,14.18947774
13.29192887,-1.477277985,-10.2771785,0.6872209167,10.40552837
13.30193188,-0.8635542297,-7.165149994,0.8737330627,7.269698055
13.31193388,-0.4596940613,-4.451143799,0.8581654358,4.556363425
13.32193587,-0.01451980591,-2.149679718,0.6559359741,2.247573295
13.33193888,0.4254153442,-0.697250061,0.4653822327,0.9400619582
13.34194087,0.7982899475,0.200433197,0.3912863159,0.9113425743
13.35194388,0.6682104492,1.391955414,-0.2921923828,1.571439298
13.36194588,-2.719694366,8.03379364,-4.731211395,9.711999741
13.37194787,-3.818858643,17.73796371,-0.885408783,18.16598433
13.38195088,2.087708588,18.85254593,5.177134094,19.66163097
13.39195287,6.468648376,11.47468826,3.060385895,13.5232335
13.40195588,6.350843353,3.835174713,1.112187195,7.501915538
13.41195788,5.053790588,0.7885601807,0.8536747742,5.185690609
13.42195987,3.5898349,-0.510737915,0.9560618591,3.749909613
13.43196288,2.604134674,-1.372944946,1.403331757,3.26126283
13.44196487,2.313588867,-1.620230713,1.798659668,3.348584419
13.45196788,2.032024384,-1.760489044,1.754351807,3.210326312
13.46196988,1.523681488,-1.587149506,1.529968414,2.679823162
13.47197287,1.024918671,-1.325044556,1.163231049,2.039438116
13.48197488,0.62599823,-1.130149841,0.8544232178,1.548919457
13.49197688,0.2903961182,-0.9313632202,0.6382727051,1.165829919
13.50197987,0.05912704468,-0.7316784668,0.4486170959,0.8602945338
13.51198188,-0.05448669434,-0.5441184998,0.3008743286,0.6241467001
13.52198487,-0.02769241333,-0.2911445618,0.1793270874,0.3430600966
13.53198688,0.1670526123,-0.02050735474,0.1637594604,0.234828209
13.54198888,0.2869532776,0.09220825195,0.1755848694,0.3488188521
13.55199187,0.3439846802,0.1567240906,0.1899549866,0.4230494034
13.56199388,0.3878434753,0.2468367004,0.2230361938,0.5109755981
13.57199687,0.4537065125,0.2929408264,0.2610571289,0.5998456066
13.58199888,0.4819976807,0.3336561584,0.3421884155,0.6787791305
13.59200188,0.509690094,0.3844006348,0.5312452698,0.8305235557
13.60200387,0.5307962036,0.44697052,0.7565267944,1.026576858
13.61200588,0.4707710266,0.60025177,0.827479248,1.12545522
13.62200887,0.403560791,0.8616082764,0.8598120117,1.282383262
13.63201088,0.4287084961,1.279389496,0.9644444275,1.658548013
13.64201388,0.4703219604,1.907333679,1.11622879,2.259444893
13.65201587,0.4586462402,2.466720428,1.323098602,2.836486552
13.66201788,0.3707789612,2.101180573,1.442999268,2.575787981
13.67202087,0.3239263916,0.76640625,1.328188019,1.567287549
13.68202288,0.100740509,-0.2959346008,1.141675873,1.183701709
13.69202588,-0.132923584,-0.7649093628,1.08703949,1.335818051
13.70202787,-0.1933978271,-1.018781433,1.246907043,1.621756919
13.71202988,-0.4299060059,-1.723964996,2.15881073,2.79595033
13.72203287,-0.7259902954,-6.657256165,3.657045135,7.63020974
13.73203487,-3.389252014,-28.939021,8.665929108,30.39822845
13.74203788,-18.17191132,-83.48274673,22.61197815,88.37923353
13.75203987,-26.75640976,-100.9135492,25.24170959,107.4085368
13.76204288,-15.31959274,-55.84556854,10.52162018,58.85679178
13.77204488,-7.328460388,-33.09827179,-0.2966830444,33.90117915
13.78204687,-6.225104828,-31.94072891,-66.62405457,74.14665697
13.79204988,-5.903723145,-35.79281845,-18.28462692,40.62397545
13.80205187,-7.303162994,-38.87535828,11.18683685,41.10687278
13.81205488,-5.906417542,-37.54178146,5.12968277,38.34820425
13.82205688,-6.69168457,-34.54576172,7.990084534,36.08364929
13.83205987,-10.51772827,-30.38216995,6.211782532,32.74576463
13.84206188,-13.69861359,-27.64915329,3.12175827,31.01407852
13.85206387,-12.18780533,-24.31094513,2.351460114,27.29641032
13.86206688,-9.161099396,-20.71063202,1.664089508,22.70738238
13.87206888,-6.053262177,-17.48214569,0.6090834045,18.51049388
13.88207187,-3.421884155,-14.24243271,0.04400848389,14.64780248
13.89207388,-1.800605621,-10.97727264,0.2314187622,11.12637632
13.90207587,-0.8921447754,-7.786657562,0.7601193237,7.874372336
13.91207888,-0.3267704773,-4.844974823,0.9903405762,4.955939309
13.92208088,0.1362167358,-2.399959259,0.9201365662,2.573909622
13.93208387,0.4902305603,-0.8193960571,0.7940986633,1.241905225
13.94208588,0.6698570251,0.1288819885,0.7649093628,1.02489284
13.95208887,0.9270222473,0.7420069885,0.6786886597,1.36768524
13.96209088,-0.5301974487,3.753893738,-1.373543701,4.032300811
13.97209288,-7.201374664,18.75449982,-3.547772369,20.40043503
13.98209587,-3.45526474,25.11133072,4.810845795,25.80042678
13.99209788,5.251230011,12.89164169,3.97243927,14.47584595
14.00210087,7.388485565,3.272794189,1.78668457,8.276058392
14.01210287,5.857619019,0.6906637573,1.41111557,6.064648724
14.02210488,4.399950256,-0.5239105225,1.229393463,4.598418509
14.03210787,3.445085907,-1.579216003,2.0570224,4.312062296
14.04210988,3.093616791,-2.242037659,2.654729462,4.652395751
14.05211288,2.89243515,-2.408641205,2.4923172,4.514352509
14.06211487,2.385888519,-2.306403809,2.10028244,3.927231707
14.07211788,1.715283051,-2.105371857,1.868564301,3.296410039
14.08211987,1.049916687,-1.801354065,1.571731567,2.611042251
14.09212188,0.5322930908,-1.443598022,1.198856964,1.950530493
14.10212488,0.2188449097,-1.003662872,0.8015830994,1.30298416
14.11212687,0.1257385254,-0.5774990845,0.4728666687,0.7569136382
14.12212988,0.1565744019,-0.2357597351,0.2561174011,0.3816992523
14.13213187,0.1853146362,-0.001646575928,0.09849517822,0.2098702593
14.14213388,0.1396595764,0.1044827271,0.0005987548828,0.174418451
14.15213688,0.06152206421,0.2100132751,-0.02275268555,0.220018692
14.16213887,0.04131408691,0.2547702026,-0.0817300415,0.2707295876
14.17214188,0.02544708252,0.252973938,-0.1719923401,0.3069604736
14.18214387,0.06092330933,0.2547702026,-0.1754351807,0.315272911
14.19214588,0.1050814819,0.3764671326,-0.06212081909,0.3957633332
14.20214888,0.1869612122,0.9997709656,0.02799179077,1.01748711
14.21215087,0.4281097412,2.731819153,0.01796264648,2.765219067
14.22215388,0.6735992432,4.95993576,0.2308200073,5.010786023
14.23215587,0.5578898621,5.120851135,0.4721182251,5.172741349
14.24215888,0.3198847961,2.821183319,0.4296066284,2.871578566
14.25216088,0.2622546387,0.7274871826,0.7125183105,1.051521488
14.26216287,0.3351530457,-0.3469784546,1.306183777,1.392421513
14.27216588,0.3995191956,-0.8842112732,1.605261841,1.875716061
14.28216788,0.3766168213,-1.045575714,1.655557251,1.99397558
14.29217088,0.240100708,-1.350341949,1.855990448,2.307763479
14.30217288,0.1207987976,-1.893562317,2.25356369,2.945966718
14.31217487,0.2444416809,-4.129313049,2.737806702,4.960500331
14.32217788,0.4194277954,-11.36346954,4.579876099,12.25885903
14.33217988,-2.603685608,-31.29886368,9.920919342,32.93664656
14.34218287,-10.53314621,-60.65282181,18.42323868,64.25828885
14.35218488,-15.40027496,-70.11883713,21.0519223,74.81312199
14.36218787,-13.79366592,-52.33147614,14.94731689,56.14508791
14.37218988,-9.307794342,-37.42382675,8.289312286,39.44477839
14.38219188,-8.537346497,-34.57016098,4.292324066,35.86650751
14.39219487,-17.00897964,-39.57515305,-33.6462822,54.65867207
14.40219688,-16.00801117,-39.35645782,-16.22505981,45.4801029
14.41219987,-8.92309433,-34.34173599,11.62871796,37.33903487
14.42220188,-7.098837891,-32.46254379,7.30016922,34.02209164
14.43220488,-6.325845337,-31.98668335,8.119415588,33.60192168
14.44220687,-7.344327393,-30.47093536,7.545509033,32.23897879
14.45220888,-8.48315918,-27.59002625,6.585555267,29.60647017
14.46221187,-8.94764328,-24.70447678,5.917943573,26.93313107
14.47221388,-8.497678986,-21.89721451,5.301824799,24.07920052
14.48221688,-7.603588257,-19.42929657,4.664450226,21.37917715
14.49221887,-6.800957336,-17.13816101,3.987258453,18.864459
14.50222088,-5.898484039,-14.80975296,3.237916718,16.26668379
14.51222387,-4.814288635,-12.4097937,2.526595917,13.5485808
14.52222588,-3.663930817,-9.957593079,1.906435547,10.78019227
14.53222888,-2.620151367,-7.616162109,1.370400238,8.170013175
14.54223087,-1.843715973,-5.400619354,0.889151001,5.775514479
14.55223288,-1.163530426,-3.502416687,0.4812492371,3.721871375
14.56223588,-0.5846841431,-1.987267456,0.2383044434,2.085156228
14.57223787,-0.04505630493,-0.8731343079,0.1556762695,0.8880476851
14.58224088,0.3739224243,-0.1282832336,0.1014889526,0.408135486
14.59224287,0.5797444153,0.3236270142,0.08981323242,0.6700033194
14.60224588,0.6791377258,0.6676116943,-0.1615141296,0.9659297278
14.61224788,-1.046623535,3.603456573,-1.493594055,4.038705647
14.62224987,-5.856571198,14.0328685,-1.608255615,15.290759
14.63225288,-3.169059906,17.58587997,2.517315216,18.04558093
14.64225487,2.380499725,9.68830307,0.9924362183,10.02571319
14.65225788,4.110003204,3.058290253,0.1758842468,5.126031689
14.66225988,4.541705475,1.44853775,0.8434959412,4.841160567
14.67226187,4.21463562,0.9014254761,1.056952057,4.437664808
14.68226488,3.656596069,0.3260220337,1.430874481,3.940099867
14.69226687,3.102448425,-0.433049469,1.612895966,3.523372173
14.70226988,2.62568985,-1.044677582,1.761536865,3.329956541
14.71227188,2.12258606,-1.425485687,1.868564301,3.166845997
14.72227487,1.730700989,-1.491199036,1.564696198,2.768984411
14.73227688,1.313219147,-1.391955414,1.248553619,2.284944319
14.74227887,0.8726852417,-1.322050781,1.069825287,1.911523985
14.75228188,0.5653742981,-1.183139648,0.9018745422,1.591491506
14.76228388,0.3802093506,-1.009949799,0.8029302979,1.345085428
14.77228687,0.28081604,-0.7785310364,0.6647676086,1.061548019
14.78228888,0.2155517578,-0.5682183838,0.5309458923,0.8069933287
14.79229088,0.2332150269,-0.3179388428,0.4044589233,0.5648551825
14.80229388,0.4011657715,0.02335144043,0.282462616,0.4911867215
14.81229588,0.4787045288,0.229921875,0.1642085266,0.5558655725
14.82229887,0.4596940613,0.2929408264,0.03367996216,0.5461385333
14.83230088,0.4424798584,0.3107537842,-0.04745132446,0.5427780096
14.84230387,0.4812492371,0.3495231628,-0.1185534668,0.6064834656
14.85230587,0.5514532471,0.4219725037,-0.1191522217,0.7045273093
14.86230788,0.5745053101,0.6087840271,-0.04924758911,0.8385103863
14.87231087,0.6264472961,0.8360115051,-0.1020877075,1.04965392
14.88231288,0.789458313,0.8446934509,-0.1664538574,1.168100313
14.89231588,0.9804611206,0.5487588501,-0.07499404907,1.126083652
14.90231787,0.8351133728,0.004640350342,0.05628295898,0.8370206985
14.91232088,0.5129832458,-0.3715274048,0.1116677856,0.6431594805
14.92232287,0.4219725037,-0.407303009,0.1390608215,0.6027391203
14.93232488,0.4011657715,-0.6412664795,0.3634442139,0.839195073
14.94232788,0.7298822021,-2.546654205,0.3248245239,2.669023537
14.95232987,0.1207987976,-12.16250793,1.82650177,12.29948374
14.96233288,-6.607858887,-46.90570908,11.45642624,48.73457751
14.97233487,-19.87821304,-89.40563004,26.89112961,95.45492595
14.98233788,-22.47186951,-75.54146072,26.92735428,83.28613099
14.99233988,-13.02980438,-39.49536896,13.67885468,43.78094376
