Time (s),Acceleration x (m/s^2),Acceleration y (m/s^2),Acceleration z (m/s^2),Absolute acceleration (m/s^2)
20.00855621,-4.132306824,2.527943115,3.101699982,5.752129941
20.01855921,-4.044888611,2.461331635,3.235970764,5.735048742
20.02856121,-3.993246002,2.36118988,3.465892639,5.790824041
20.03856421,-4.077371063,2.199076996,3.715124359,5.938269396
20.04856721,-4.150568848,2.105371857,4.141886902,6.230171709
20.05856921,-4.243076477,2.102228394,4.498595123,6.531494491
20.06857221,-4.381688232,2.154469757,4.943769379,6.948509723
20.07857421,-4.609065399,2.295626221,5.422473907,7.47774076
20.08857721,-4.887336731,2.385738831,5.87498291,8.005825022
20.09857921,-5.219945068,2.44082428,6.41446106,8.622688697
20.10858221,-5.644611969,2.463277588,6.9421138,9.280211461
20.11858421,-6.006559296,2.521955566,7.401508484,9.860088351
20.12858721,-6.311026154,2.561623077,7.699089661,10.27944286
20.13858921,-6.638545074,2.475552063,7.900121613,10.6118123
20.14859221,-7.164850616,2.027982788,7.919431458,10.87038146
20.15859521,-8.087082825,1.195414124,7.975415039,11.42090927
20.16859721,-8.935368805,0.4071533203,8.356223145,12.24063131
20.17860021,-9.088650055,0.1221459961,8.814420319,12.66145667
20.18860221,-8.145910492,0.6057902527,9.514813843,12.54011651
20.19860521,-7.279362488,1.554517365,9.747879181,12.26486001
20.20860721,-7.177424469,2.557132416,9.322164459,12.03981306
20.21861021,-7.531438293,3.442840576,9.004824371,12.23366568
20.22861221,-8.084987183,4.179309082,9.219178619,12.95480207
20.23861521,-8.781937866,4.377047882,9.590107269,13.72046422
20.24861821,-9.900411987,3.141816559,9.694889374,14.20844991
20.25862021,-10.72714279,1.185534668,9.358838196,14.28512994
20.26862321,-10.6487059,-0.3023712158,8.717871094,13.76545103
20.27862521,-10.78252762,-0.7503895569,8.425379333,13.70448843
20.28862821,-11.45148651,-0.0477507019,8.310119019,14.14909543
20.29863021,-12.82098862,1.597927094,7.260202332,14.82031235
20.30863321,-14.7283223,3.329226837,5.816903687,16.18158205
20.31863521,-16.37864044,4.860841827,5.376818848,17.91082988
20.32863821,-16.73400146,5.740562439,4.710853729,18.30773074
20.33864058,-16.04333771,5.693260803,4.28139679,17.55369653
20.34864358,-14.07433228,5.016667786,5.209915924,15.82393783
20.35864658,-11.44669647,4.07078476,6.919061737,13.98111455
20.36864858,-9.855954437,3.012335815,7.301815796,12.63053914
20.37865158,-8.73119339,2.159559174,7.072492676,11.44192232
20.38865358,-7.682324524,1.613045654,6.833439789,10.40749373
20.39865658,-7.17847229,1.063238983,6.796466675,9.942479611
20.40865858,-6.585555267,0.7608677673,6.508615265,9.290346097
20.41866158,-5.968837738,0.7611671448,6.298003235,8.7104101
20.42866358,-5.50525177,0.8554710388,5.936055908,8.141031108
20.43866658,-5.131628723,0.8958869934,5.517526245,7.588104027
20.44866958,-4.788841553,0.8720864868,5.228477325,7.143564474
20.45867158,-4.604425049,0.6503974915,4.92026825,6.769991623
20.46867458,-4.516408081,0.3359014893,4.521497498,6.399586814
20.47867658,-4.414320374,0.0904119873,4.293222198,6.158421513
20.48867958,-4.346361694,-0.04355941772,4.041146393,5.934949163
20.49868158,-4.254602509,-0.08622070312,3.666026459,5.616834207
20.50868458,-4.314328308,-0.07364685059,3.348985748,5.46210199
20.51868658,-4.489913177,-0.02395019531,2.962190094,5.379076511
20.52868958,-4.600682831,0.0845741272,2.831511841,5.402859854
20.53869158,-4.711452484,0.1655557251,2.9368927,5.554325516
20.54869458,-4.865482178,0.2222877502,3.179687805,5.816592061
20.55869758,-4.942272491,0.2972817993,3.452121277,6.03585745
20.56869958,-4.858297119,0.3948788452,3.779041443,6.167668476
20.57870258,-4.773124237,0.4799020386,4.004622345,6.249001606
20.58870458,-4.669988708,0.5155279541,4.304299164,6.371934942
20.59870758,-4.601281586,0.5676196289,4.578379211,6.515791623
20.60870958,-4.596341858,0.578846283,4.984185333,6.804669348
20.61871258,-4.581822052,0.5786965942,5.389542389,7.097545366
20.62871458,-4.50832489,0.5671705627,5.785618744,7.356633742
20.63871758,-4.480333099,0.5566923523,6.248456268,7.708858333
20.64872058,-4.46506485,0.569715271,6.714137878,8.08337968
20.65872258,-4.627028046,0.6128256226,7.159910889,8.546886434
20.66872558,-4.851261749,0.693507843,7.67933075,9.109764786
20.67872758,-5.138215027,0.8852590942,8.108039246,9.639773739
20.68873058,-5.607339478,1.129551086,8.530161438,10.27043309
20.69873258,-6.414311371,1.411414948,8.873846741,11.03995645
20.70873558,-7.712711334,1.775757294,9.198371887,12.13463125
20.71873758,-8.845256195,2.417472839,9.460027771,13.17478112
20.72874058,-9.42155777,3.098107452,9.081464996,13.44756584
20.73874258,-9.405541077,3.411405945,8.23392746,12.9576022
20.74874558,-9.174870758,3.062182159,7.808661804,12.43102619
20.75874858,-9.201066284,2.159559174,7.819439392,12.26649701
20.76875058,-8.941056976,1.331181793,7.883057098,11.99404577
20.77875358,-8.435857544,1.209784241,8.380023651,11.95207374
20.78875558,-8.21401886,1.617835693,8.95348114,12.25774542
20.79875858,-8.6434758,2.494861908,9.509724426,13.09079327
20.80876058,-9.36886734,3.776496735,9.349856873,13.76435347
20.81876358,-10.45515839,5.275778961,8.941955109,14.73440673
20.82876558,-11.56031021,6.880891113,7.913892975,15.60823939
20.83876858,-12.29677872,7.841743011,6.44365036,15.94441376
20.84877158,-12.22762253,7.196434937,4.278253326,14.81913898
20.85877358,-12.56367371,5.189408569,3.366649017,14.00393459
20.86877658,-13.76058472,2.91937912,3.205434265,14.42744867
20.87877858,-14.8172374,1.340013428,4.041146393,15.41677736
20.88878158,-15.22962982,0.3314108276,4.694088593,15.94007294
20.89878358,-14.26922699,0.7503895569,5.082231445,15.16584979
20.90878658,-12.05847427,3.03164566,5.314847717,13.52202956
20.91878858,-10.19290375,5.043462067,5.727389832,12.73321604
20.92879158,-9.016051025,5.624104614,6.624773712,12.52227438
20.93879458,-8.183033295,5.479804688,7.043453064,12.10787035
20.94879658,-7.422165527,4.886438599,7.003336487,11.31426291
20.95879958,-6.766079865,3.986959076,6.572682037,10.24089003
20.96880158,-6.055507507,3.074756012,6.103258209,9.130884758
20.97880458,-5.317542114,2.355052643,6.108048248,8.433906597
20.98880658,-4.547992401,1.938319244,5.85627182,7.664022182
20.99880958,-3.916306,1.663041687,5.513933716,6.964669795
21.00881158,-3.325933685,1.577868805,5.359754333,6.502189736
21.01881458,-2.813848572,1.636546783,5.022206268,5.984862986
21.02881658,-2.827619934,1.873653717,4.666994934,5.769476099
21.03881958,-3.391647034,2.088157654,4.08365799,5.704378543
21.04882258,-3.888014832,2.317480774,3.580254822,5.771100507
21.05882458,-4.166286163,2.564916229,3.536396027,6.036789918
21.06882758,-4.22870636,2.667902069,3.409759369,6.051951576
21.07882958,-4.178560638,2.697690125,3.391197968,6.019811016
21.08883258,-4.091292114,2.662513275,3.376528473,5.935367944
21.09883458,-3.99698822,2.456092529,3.244203644,5.703784939
21.10883758,-4.046385498,2.286046143,3.614533539,5.887622208
21.11883958,-4.092339935,2.114802246,3.81915802,5.983778294
21.12884258,-4.055217133,1.969005432,3.969146118,6.006320778
21.13884558,-4.136647797,1.871857452,4.202510834,6.186824923
21.14884758,-4.261039124,1.880988464,4.633913727,6.570215251
21.15885058,-4.3807901,1.93532547,4.984634399,6.912552833
21.16885258,-4.502636719,2.036664734,5.314248962,7.256926532
21.17885558,-4.676575012,2.132166138,5.681435394,7.661278903
21.18885758,-4.934189301,2.204316101,6.101461945,8.150648526
21.19886058,-5.328020325,2.261048126,6.547684021,8.73912497
21.20886258,-5.843099213,2.314636688,6.944359131,9.366081099
21.21886558,-6.28692627,2.425256653,7.307503967,9.940167302
21.22886758,-6.616690521,2.532134399,7.619455261,10.40424897
21.23887058,-7.163802795,2.385439453,7.723189545,10.80083555
21.24887358,-8.208031311,1.740131378,7.791148224,11.44997056
21.25887558,-9.557924194,0.8907975769,8.154891815,12.59562209
21.26887858,-10.36429733,0.4117936707,8.801247711,13.60331557
21.27888058,-9.742939453,0.6397695923,9.60178299,13.69410132
21.28888358,-8.010292511,1.54448822,10.11701157,12.99631305
21.29888558,-6.979985046,2.554737396,9.412875824,11.99371109
21.30888858,-6.735543365,3.336711273,8.717571716,11.51074468
21.31889058,-6.81457901,3.806883545,8.372688904,11.44695457
21.32889358,-6.981631622,4.068838806,8.486901398,11.71862299
21.33889633,-7.129973145,4.187841339,8.876990204,12.13159046
21.34889833,-7.689958649,3.7278479,9.02952301,12.43240121
21.35890133,-8.937015381,2.26299408,9.413175201,13.17570694
21.36890333,-10.24709106,0.5239105225,9.462422791,13.95760734
21.37890633,-10.97861984,-0.6512956238,9.305249634,14.40631634
21.38890833,-11.77750854,-0.7788304138,9.270671539,15.00871864
21.39891133,-13.30193848,0.2929408264,8.054300995,15.55310728
21.40891333,-15.40701096,2.256108398,6.515201569,16.87939167
21.41891633,-17.31599121,4.312532043,5.74744812,18.74765703
21.42891933,-17.45071106,5.82229248,4.7563591,19.00129885
21.43892133,-16.22176666,6.367458801,3.461551666,17.76717719
21.44892433,-13.74187363,5.881569214,3.739822998,15.40838159
21.45892633,-10.86590424,4.566104736,5.536985779,13.02211192
21.46892933,-9.458231506,2.985990601,6.459667053,11.83645139
21.47893133,-8.653654633,1.843117218,6.720873871,11.11093899
21.48893433,-7.647297363,1.145867157,6.769373016,10.27709003
21.49893633,-7.037914581,0.4993615723,6.614295502,9.671117237
21.50893933,-6.468798065,0.06900650024,6.514602814,9.180967276
21.51894133,-5.745352478,0.01960922241,6.454278259,8.641016576
21.52894433,-5.112019501,0.06032455444,6.11957428,7.974056169
21.53894733,-4.6475354,0.1345701599,5.64446228,7.312841367
21.54894933,-4.3409729,0.2308200073,5.269192657,6.830938066
21.55895233,-4.170776825,0.2179467773,4.964127045,6.487328991
21.56895433,-3.987557831,0.2007325745,4.658462677,6.135322773
21.57895733,-3.905678101,0.1086740112,4.387675781,5.875187676
21.58895933,-3.78877121,0.04939727783,4.043391724,5.541321503
21.59896233,-3.788471832,0.01826202393,3.808380432,5.37183524
21.60896433,-3.924838257,-0.03203338623,3.386557617,5.18402874
21.61896733,-4.157753906,-0.04326004028,3.095562744,5.183753242
21.62897033,-4.341571655,0.06511459351,3.101250916,5.335844974
21.63897233,-4.471800842,0.1793270874,3.29030777,5.554753478
21.64897533,-4.668192444,0.2562670898,3.441343689,5.805216611
21.65897733,-4.809947662,0.3505709839,3.603755951,6.020428015
21.66898033,-4.937033386,0.493074646,3.909120941,6.316537643
21.67898233,-5.111869812,0.6343807983,4.227209473,6.663553999
21.68898533,-5.274282074,0.7405101013,4.6382547,7.062564213
21.69898733,-5.467380524,0.8451425171,5.141059113,7.552284718
21.70899033,-5.569168854,0.8888516235,5.57306076,7.928726579
21.71899333,-5.610183563,0.8846603394,6.101611633,8.335853169
21.72899533,-5.569168854,0.8680448914,6.63091095,8.702765289
21.73899833,-5.431006165,0.83661026,7.099736023,8.977861454
21.74900033,-5.28176651,0.783021698,7.477400665,9.188128273
21.75900333,-5.240452423,0.6920109558,7.755073242,9.385221455
21.76900533,-5.33086441,0.6761439514,7.994724884,9.632803952
21.77900833,-5.44672348,0.7482939148,8.132438507,9.816480863
21.78901033,-5.790408783,0.9093589783,8.212971039,10.0900278
21.79901333,-6.51849472,1.304986267,8.339907074,10.66526196
21.80901533,-7.350913696,2.015109558,8.495134277,11.41332139
21.81901833,-7.922125854,2.876418457,8.416847076,11.91122059
21.82902133,-8.394393768,3.536845093,7.858508148,12.03043101
21.83902333,-8.751251678,3.760330353,7.400610352,12.06206963
21.84902633,-9.050928497,3.348237305,7.653135223,12.31667481
21.85902833,-9.137747955,2.576442261,8.442743225,12.70497562
21.86903133,-8.705147552,2.231709137,9.039252777,12.74630183
21.87903333,-8.619076538,2.490820312,9.734706573,13.23847341
21.88903633,-9.082961884,3.37682785,10.16581009,14.04446004
21.89903833,-9.845176849,4.776866455,9.996512146,14.82147818
21.90904133,-10.47027695,6.089486847,8.652606812,14.88543429
21.91904433,-10.66696793,6.715934143,6.461463318,14.16469147
21.92904633,-10.86889801,6.146218872,4.224664764,13.18168209
21.93904933,-11.80669785,4.602329407,3.394191742,13.1186923
21.94905133,-13.73528732,2.990930328,3.891158295,14.58577715
21.95905433,-15.26989609,1.494791565,4.014202423,15.85931743
21.96905633,-16.16742966,0.8394543457,4.83359848,16.89538812
21.97905933,-15.73961929,1.606459351,5.1916539,16.65141428
21.98906133,-13.94545029,3.598217468,6.045628052,15.61961495
21.99906433,-12.02344711,5.226231995,7.275919647,14.99385834
22.00906633,-10.72729248,5.648803253,8.214916992,14.64474798
22.01906933,-9.395212555,5.538782043,8.539741516,13.85190639
22.02907233,-8.150101776,4.836891632,8.135881348,12.49048618
22.03907433,-7.147935791,3.780688019,7.273075562,10.87585473
22.04907733,-6.278244324,2.643053741,6.647825775,9.518175897
22.05907933,-5.308560791,1.588347015,6.359076233,8.434542931
22.06908233,-4.456083527,0.9011260986,6.130651245,7.632404165
22.07908433,-3.57112381,0.5110372925,5.796546021,6.827446825
22.08908733,-2.761607208,0.5285508728,5.356311493,6.049455612
22.09908933,-2.437531128,0.7831713867,4.872068481,5.503813833
22.10909233,-2.431842957,1.153052216,4.286935272,5.061739188
22.11909533,-2.85501297,1.484013977,3.555406494,4.795238459
22.12909733,-3.295995941,1.916315002,3.100203094,4.913971068
22.13910033,-3.473227386,2.28874054,2.934647369,5.090559588
22.14910233,-3.577560425,2.486928406,2.823278961,5.19178732
22.15910533,-3.568279724,2.533930664,2.600392456,5.090723497
22.16910733,-3.466042328,2.415377197,2.481988678,4.899771854
22.17911033,-3.381168823,2.182311859,2.436932373,4.704617631
22.18911233,-3.364553375,1.971400452,2.721490631,4.755328633
22.19911533,-3.506158905,1.759590912,3.021766205,4.951805877
22.20911833,-3.641178131,1.644180908,3.301684113,5.182916845
22.21912033,-3.734733582,1.699715424,3.716321869,5.536092095
22.22912333,-3.936663666,1.876946869,4.160448303,6.027402463
22.23912533,-4.262685699,2.10851532,4.691843262,6.680547838
22.24912833,-4.605622559,2.405198364,5.215005341,7.361590795
22.25913033,-5.015769653,2.686164093,5.855673065,8.164700227
22.26913333,-5.579647064,2.861599274,6.743327179,9.208348017
22.27913533,-6.086193695,2.994373169,7.596403198,10.18397594
22.28913833,-6.492598572,3.182531891,8.255033569,10.97396577
22.29914133,-6.761589203,3.341501312,8.707991638,11.52014922
22.30914333,-6.99824707,3.159479828,9.12906601,11.92885665
22.31914633,-7.533683624,2.532882843,9.377549286,12.29269356
22.32914833,-8.425978088,1.673669586,9.793833618,13.02756514
22.33915146,-9.4636203,0.9584568787,10.43839325,14.12228035
22.34915346,-9.539063416,0.6652166748,10.54107971,14.23202746
22.35915646,-8.211025085,1.171763306,10.4190834,13.31732936
22.36915846,-7.253616028,2.294728088,10.17284546,12.7030511
22.37916146,-7.593409424,3.392994232,9.864037628,12.90238408
22.38916446,-8.387657776,4.167483673,9.886341248,13.61838707
22.39916646,-9.004225616,4.414020996,10.16610947,14.27968634
22.40916946,-9.660760345,3.471281433,10.45126648,14.64954116
22.41917146,-10.73432785,1.554667053,10.33450928,14.98148411
22.42917446,-11.44040955,-0.1492396545,9.583670654,14.9248781
22.43917646,-11.86866898,-1.096469879,8.597221985,14.69625038
22.44917946,-11.71898026,-0.819994812,7.867190094,14.13858443
22.45918146,-12.01865707,0.6891668701,7.111711121,13.98211371
22.46918446,-13.15644104,2.618504791,5.738616486,14.5904156
22.47918646,-15.05658966,4.118984528,4.568499756,16.26462775
22.48918946,-16.45558044,4.87221817,3.773053894,17.57158426
22.49919246,-16.35768402,4.831203461,3.612437897,17.43456512
22.50919446,-15.02545441,4.251758423,3.979774017,16.11459993
22.51919746,-12.6898613,3.611689453,5.602250061,14.33394873
22.52919946,-10.66951263,3.199746094,7.067552948,13.19193616
22.53920246,-9.631870422,2.663411407,7.50030304,12.49484829
22.54920446,-8.345894623,2.141446838,7.313790894,11.30182679
22.55920746,-7.223229218,1.501527557,7.121740265,10.25420937
22.56920946,-6.714736633,0.8716374207,6.840175781,9.624730883
22.57921246,-6.156846771,0.5649252319,6.432573395,8.922101947
22.58921546,-5.411546631,0.413739624,6.037245483,8.118149447
22.59921746,-4.872068481,0.3273692322,5.765560455,7.555521773
22.60922046,-4.447251892,0.2731819153,5.386249237,6.990304614
22.61922246,-4.07662262,0.2781216431,4.718637543,6.241934307
22.62922546,-3.875890045,0.2538720703,4.220024414,5.735466914
22.63922746,-3.847748566,0.07394622803,3.942950592,5.509763737
22.64923046,-3.903881836,-0.1236428833,3.863016815,5.493494322
22.65923246,-3.964655457,-0.3149450684,3.533252563,5.319920767
22.66923546,-4.004472656,-0.4722679138,2.999612274,5.02558574
22.67923846,-4.136947174,-0.5381309509,2.641107788,4.937546677
22.68924046,-4.29891037,-0.5110372925,2.459385681,4.97899261
22.69924346,-4.466112671,-0.4294569397,2.496508484,5.134505844
22.70924546,-4.61595108,-0.316741333,2.678679657,5.346274792
22.71924846,-4.743186493,-0.1222956848,2.977158966,5.601450692
22.72925046,-4.672982483,0.09190887451,3.334016876,5.74115677
22.73925346,-4.537065125,0.3061134338,3.66827179,5.842506594
22.74925546,-4.548441467,0.4165837097,3.998634796,6.070497673
22.75925846,-4.593497772,0.5010081482,4.31522644,6.322373777
22.76926146,-4.700824585,0.5794450378,4.710853729,6.680243348
22.77926346,-4.860093384,0.6024971008,5.256469116,7.184286884
22.78926646,-5.02669693,0.5737568665,5.827531586,7.717318404
22.79926846,-5.160668335,0.5423222351,6.388265533,8.230221601
22.80927146,-5.241799622,0.5430706787,6.893315277,8.676934052
22.81927346,-5.320685577,0.5393284607,7.407046967,9.135913472
22.82927646,-5.605243835,0.5563929749,7.897876282,9.700761896
22.83927846,-6.140231323,0.6366261292,8.302484894,10.34596486
22.84928146,-6.714586945,0.9023236084,8.582103424,10.93400041
22.85928446,-7.260202332,1.369502106,8.777447205,11.4729967
22.86928646,-7.917784882,2.154020691,8.871751099,12.08466343
22.87928946,-8.429570618,3.087479553,8.757538605,12.54131864
22.88929146,-8.626261597,3.880081329,8.457562408,12.68849014
22.89929446,-8.903784485,4.368964691,8.322543182,12.94719876
22.90929646,-9.498647461,4.30010788,8.617429962,13.52683742
22.91929946,-10.16536102,3.734434204,9.304351501,14.27765809
22.92930146,-9.977501678,3.206931152,9.880653076,14.40354999
22.93930446,-9.497300262,3.217259674,10.37282959,14.42723348
22.94930746,-9.214987335,4.032464447,10.30546967,14.40067589
22.95930946,-9.400301971,5.131778412,10.14874557,14.75458788
22.96931246,-9.511820068,6.092779999,9.215436401,14.57809855
22.97931446,-9.381291504,6.759493561,7.710615692,13.89794869
22.98931746,-9.287137299,6.455924835,5.431305542,12.54706996
22.99931946,-10.27538223,4.803511047,3.880380707,11.98810047
23.00932246,-12.16101105,2.940485229,3.934118958,13.11540831
23.01932446,-13.50476669,1.778451691,4.223766632,14.26119975
23.02932746,-14.18839508,1.318009186,4.188290405,14.85225504
23.03933046,-14.23943893,1.552122345,3.961362305,14.86146346
23.04933246,-13.37004684,2.494113464,4.167783051,14.22494886
23.05933546,-12.3208786,3.585344238,5.171445923,13.8348327
23.06933746,-11.25988495,4.257446594,6.426735535,13.64601737
23.07934046,-10.36414764,4.40533905,7.345375214,13.44533769
23.08934246,-9.542805634,4.233047333,7.607330475,12.91724839
23.09934546,-8.524473267,3.677253113,7.443870392,11.89958156
23.10934846,-7.468868408,2.998265076,6.969207458,10.64628768
23.11935046,-6.511459351,2.250869293,6.64138916,9.569407789
23.12935346,-5.60239975,1.591939545,6.435866547,8.679950039
23.13935546,-4.648583221,1.253942413,6.03065918,7.716900134
23.14935846,-3.829785919,1.143023071,5.482199707,6.784414165
23.15936046,-3.071013794,1.223106537,5.161566467,6.129346109
23.16936346,-2.737357635,1.362766113,4.61595108,5.536900097
23.17936646,-2.894381104,1.571581879,3.828438721,5.050173721
23.18936846,-3.293002167,1.894011383,3.439397736,5.124509652
23.19937146,-3.575913849,2.208657074,3.127296753,5.238827245
23.20937346,-3.676654358,2.443219299,2.953508148,5.311338644
23.21937646,-3.694317627,2.606529694,2.942580872,5.394512208
23.22937846,-3.658092957,2.653082886,2.95216095,5.397753899
23.23938146,-3.555406494,2.6303302,3.009791107,5.349616324
23.24938346,-3.474275208,2.498454437,3.101250916,5.284942765
23.25938646,-3.58040451,2.330054626,3.373534698,5.443269916
23.26938946,-3.752845917,2.189347229,3.694167938,5.702979092
23.27939146,-3.933669891,2.102228394,4.114643555,6.068229941
23.28939446,-4.110003204,2.17752182,4.552183685,6.508156722
23.29939646,-4.3516008,2.390977936,4.901108093,6.976680124
23.30939946,-4.522695007,2.749482422,5.418132935,7.574337477
23.31940146,-4.617897034,3.083587646,5.861510925,8.074081751
23.32940446,-4.636159058,3.313808899,6.180796967,8.406994193
23.33940696,-4.685706024,3.388204193,6.468798065,8.676469156
23.34940896,-4.938530273,3.338956604,6.823859711,9.061058096
23.35941196,-5.206173706,3.293002167,7.140451355,9.430490628
23.36941396,-5.590574341,3.272045746,7.410639496,9.842681675
23.37941696,-6.146667938,3.066223755,7.608078918,10.25017657
23.38941896,-7.081773376,2.513423309,7.725135498,10.77712992
23.39942196,-8.321046295,1.612596588,7.849676514,11.55238939
23.40942496,-9.31273407,0.7514373779,8.190368042,12.42472546
23.41942696,-9.462273102,0.3983216858,8.55216568,12.760596
23.42942996,-8.718769226,0.7936495972,9.413175201,12.85514231
23.43943196,-7.846682739,1.926793213,9.957293701,12.8230519
23.44943496,-7.817792816,3.128045197,9.628427582,12.79097998
23.45943796,-7.909552002,4.339925079,9.317673798,12.96977284
23.46943996,-8.448880463,5.097799072,9.50104248,13.69820954
23.47944296,-9.319619751,5.198090515,9.933642883,14.57918785
23.48944496,-10.4045636,3.652255096,9.905800781,14.8229147
23.49944796,-10.8398584,1.388063507,9.442364502,14.44255856
23.50944996,-10.9048233,-0.3050656128,8.79196701,14.01095715
23.51945296,-11.25629242,-1.049168243,8.392747192,14.07988205
23.52945596,-12.01012482,-0.5689668274,8.076754303,14.48450142
23.53945796,-13.05779617,1.076710968,6.790479126,14.75723396
23.54946096,-14.49855011,3.156785431,5.536387024,15.83745026
23.55946296,-15.74605591,4.5984375,4.408332825,16.98579708
23.56946596,-16.07731705,5.253175964,4.001329193,17.38063913
23.57946796,-15.3600087,5.342390442,3.718417511,16.68225499
23.58947096,-13.59068802,4.850363617,5.027445374,15.2809697
23.59947396,-11.35703293,4.090393982,7.029981079,13.9690427
23.60947596,-10.06941055,3.109483795,7.567513275,12.9741734
23.61947896,-9.128167877,2.160307617,7.40899292,11.95339089
23.62948096,-8.212222595,1.340312805,7.217840424,11.0151831
23.63948396,-7.605234833,0.7235952759,6.986870728,10.35275565
23.64948696,-7.034771118,0.4408332825,6.643933868,9.686289068
23.65948896,-6.273304596,0.4129911804,6.263275452,8.874318658
23.66949196,-5.624254303,0.5191204834,5.919739838,8.181995006
23.67949396,-5.175487518,0.6072871399,5.530698853,7.598887979
23.68949696,-4.796625366,0.5195695496,5.149142303,7.056290377
23.69949896,-4.467759247,0.4227209473,4.577930145,6.410694978
23.70950196,-4.397255859,0.1420545959,4.205354919,6.086135769
23.71950496,-4.320315857,-0.1423539734,3.995042267,5.8860646
23.72950696,-4.219874725,-0.3668870544,3.735182648,5.647436429
23.73950996,-4.151916046,-0.5297483826,3.5301091,5.475464406
23.74951196,-4.179608459,-0.6551875305,3.132386169,5.264051737
23.75951496,-4.161196747,-0.6411167908,2.84333725,5.080468071
23.76951696,-4.124672699,-0.5023553467,2.717299347,4.964776078
23.77951996,-4.169729004,-0.3534150696,2.770438843,5.018652564
23.78952296,-4.284540253,-0.16615448,2.910248108,5.182126642
23.79952496,-4.451892242,0.0288899231,3.210972748,5.489127905
23.80952796,-4.525688782,0.2071691895,3.571872253,5.769146333
23.81952996,-4.608616333,0.4065545654,3.83322876,6.008183906
23.82953296,-4.760999451,0.5499563599,4.184099121,6.362095034
23.83953596,-5.010829926,0.6063890076,4.500541077,6.762469531
23.84953796,-5.241500244,0.5981561279,4.968468018,7.246846901
23.85954096,-5.428311768,0.5673202515,5.470823364,7.727763531
23.86954296,-5.484594727,0.5284011841,6.023773499,8.163689992
23.87954596,-5.44672348,0.540226593,6.612050171,8.583580192
23.88954796,-5.412594452,0.5816903687,7.155569916,8.990924491
23.89955096,-5.415588226,0.5902226257,7.632627869,9.377311276
23.90955396,-5.523064728,0.5981561279,7.941136322,9.691423055
23.91955596,-5.872587891,0.619561615,8.262218628,10.15556014
23.92955896,-6.342760162,0.7219487,8.532107391,10.65592197
23.93956096,-6.906936951,1.056502991,8.8013974,11.23772988
23.94956396,-7.541018372,1.737287292,9.05766449,11.91328717
23.95956596,-8.073910217,2.734214172,9.247320099,12.57683912
23.96956896,-8.393645325,3.666924591,9.037456512,12.86760421
23.97957196,-8.417296143,4.264182587,8.495433655,12.69671298
23.98957396,-8.344248047,4.123026123,8.014334106,12.28231945
23.99957696,-8.492140503,3.160976715,7.970774689,12.06820091
24.00957896,-8.558302917,1.922901306,7.982600098,11.8601856
24.01958196,-8.224197693,1.440903625,8.691525879,12.05223021
24.02958496,-7.624544678,1.678759003,9.13490387,12.01658779
24.03958696,-7.606582031,2.592009888,9.892478485,12.74518482
24.04958996,-8.276289368,4.046235809,9.367071075,13.13815095
24.05959196,-9.37590271,5.514233093,8.603059845,13.86819948
24.06959496,-9.956844635,6.88717804,7.834258575,14.42038778
24.07959696,-10.05533981,7.841443634,6.965764618,14.52996813
24.08959996,-10.27747787,7.574848022,5.528752899,13.91301487
24.09960296,-11.42095001,5.82708252,4.434378662,13.56674994
24.10960496,-13.23353073,3.995341644,4.691244507,14.5978377
24.11960796,-15.03638168,2.298919373,4.630770264,15.90037225
24.12960996,-16.09887222,1.006956024,4.821773071,16.83559155
24.13961296,-15.40087372,0.7071295166,5.045258331,16.2216391
24.14961496,-13.37139404,1.769470367,5.094655609,14.41806921
24.15961796,-11.24012604,3.46574295,5.469476166,12.97177617
24.16962096,-10.04575974,4.480931854,6.256988525,12.65487828
24.17962296,-9.182654572,4.813390503,6.95498703,12.48445905
24.18962596,-8.201295319,4.784051514,7.185357971,11.90704678
24.19962796,-7.485334167,4.238436127,6.881190491,11.01568659
24.20963096,-6.727460175,3.482508087,6.522386627,9.996404868
24.21963396,-5.955515442,2.736609192,6.260880432,9.063984655
24.22963596,-5.153183899,2.136058044,6.170468445,8.318216702
24.23963896,-4.427343292,1.680106201,5.894442444,7.560990491
24.24964096,-3.682043152,1.338815918,5.610782318,6.843299501
24.25964396,-3.065026245,1.139729919,5.414540405,6.325394689
24.26964596,-2.942431183,1.155896301,4.869523773,5.805709199
24.27964896,-3.176993408,1.420096893,4.344715118,5.566552952
24.28965196,-3.653901672,1.735640717,3.763922882,5.525446732
24.29965396,-4.054468689,2.185305634,3.309916992,5.671845163
24.30965696,-4.226011963,2.587369537,3.232228546,5.916160884
24.31965896,-4.28139679,2.796634369,3.304228821,6.088468639
24.32966196,-4.151616669,2.802621918,3.176394653,5.931280938
24.33966496,-3.993395691,2.720742188,3.39673645,5.906561242
24.34966696,-3.911216583,2.493814087,3.451672211,5.781934357
24.35966996,-3.931424561,2.132016449,3.602857819,5.743011203
24.36967196,-3.936663666,1.936822357,3.968547363,5.9159082
24.37967496,-3.891008606,1.819316711,4.210743713,6.014999908
24.38967696,-3.866908722,1.808239746,4.486470337,6.192828928
24.39967996,-3.967050476,1.864223328,4.850513306,6.537606399
24.40968296,-4.159400482,1.928739166,5.152285767,6.896861298
24.41968496,-4.309089203,2.021695862,5.499862976,7.273513365
24.42968796,-4.456532593,2.133363647,5.859564972,7.664621639
24.43968996,-4.671335907,2.274969177,6.27405304,8.146201904
24.44969296,-4.913382568,2.470911713,6.749763794,8.706666654
24.45969596,-5.331163788,2.653981018,7.274572449,9.401293894
24.46969796,-5.662724304,2.747686157,7.660020905,9.914239558
24.47970096,-5.946983185,2.738854523,7.832911377,10.20893891
24.48970296,-6.438560944,2.412533112,7.818990326,10.41210799
24.49970596,-7.282206573,1.765428772,7.969876556,10.93920489
24.50970796,-8.275690613,1.195713501,8.659492493,12.03759096
24.51971096,-8.998836823,0.9638456726,9.406888275,13.05364354
24.52971396,-8.820557556,1.225651245,9.557774506,13.06351829
24.53971596,-8.08528656,2.017654266,9.383237457,12.54941962
24.54971896,-8.176896057,2.933749237,9.053922272,12.5475903
24.55972096,-8.764424286,3.820205841,9.039701843,13.15770934
24.56972396,-9.612410889,4.27900177,9.229357452,13.99604724
24.57972596,-10.6235582,3.798650665,9.146729279,14.52420022
24.58972896,-11.4701976,2.275717621,9.571545868,15.11154572
24.59973196,-11.66718796,0.5156776428,9.48472641,15.04490722
24.60973396,-11.44624741,-0.4676275635,9.166637878,14.67182692
24.61973696,-11.50163223,-0.2815644836,9.130263519,14.68770011
24.62973896,-12.23615479,0.746048584,7.78575943,14.52233185
24.63974196,-13.13099396,2.556383972,6.883884888,15.04479885
24.64974496,-14.58986023,4.220772858,6.028563538,16.34082383
24.65974696,-15.26750107,5.159919891,4.443060608,16.71712145
24.66974996,-14.99716324,5.538782043,4.35384613,16.56951984
24.67975196,-14.08795395,5.046006775,4.40773407,15.60002405
24.68975496,-12.45050903,4.346511383,6.013295288,14.49369023
24.69975696,-10.51129166,3.852688293,7.212152252,13.31711679
24.70975996,-9.329349518,3.129392395,7.172185364,12.17662113
24.71976296,-8.225095825,2.579136658,6.990163879,11.09804209
24.72976496,-7.294181671,1.964814148,7.066505127,10.34413242
24.73976796,-6.895859985,1.362167358,7.063661041,9.96512379
24.74976996,-6.339916077,1.016087036,6.73614212,9.306050687
24.75977296,-5.797294464,0.8476872253,6.573280792,8.805408401
24.76977496,-5.435796204,0.7518864441,6.198460236,8.278533861
24.77977796,-5.062771912,0.6710545349,5.88321579,7.790648346
24.78978096,-4.723876648,0.5258564758,5.505700836,7.273532657
24.79978296,-4.456981659,0.3014730835,5.089266815,6.771721217
24.80978596,-4.204905853,0.1622625732,4.752167816,6.347492523
24.81978796,-3.982767792,0.04311035156,4.271367645,5.840280759
24.82979096,-3.936364288,-0.07200027466,3.892206116,5.536191498
24.83979396,-3.884422302,-0.1627116394,3.512745209,5.239712836
24.84979596,-4.018543396,-0.1782792664,3.271446991,5.184866434
24.85979896,-4.194876709,-0.04745132446,3.032693481,5.176530883
24.86980096,-4.359085236,0.1239422607,2.927612,5.252418281
24.87980396,-4.600233765,0.2664459229,3.026107178,5.512755098
24.88980596,-4.81368988,0.3829037476,3.132835236,5.756116934
24.89980896,-4.997807007,0.4760101318,3.313958588,6.015561657
24.90981196,-5.097350006,0.6081852722,3.673211517,6.312317266
24.91981396,-5.108726349,0.7595205688,4.173022156,6.640035415
24.92981696,-5.130580902,0.8485853577,4.626279602,6.960274453
24.93981896,-5.133724365,0.8108638,5.0629216,7.255742629
24.94982196,-5.124144287,0.7268884277,5.492827606,7.54694485
24.95982496,-5.006488953,0.6369255066,5.915847931,7.77610844
24.96982696,-4.834945679,0.5611830139,6.37000351,8.016768102
24.97982996,-4.677473145,0.5629792786,6.857539673,8.319948981
24.98983196,-4.575385437,0.5971083069,7.332651672,8.663629192
24.99983496,-4.480033722,0.6605763245,7.689060516,8.923492301
