"Time (s)","Acceleration x (m/s^2)","Acceleration y (m/s^2)","Acceleration z (m/s^2)","Absolute acceleration (m/s^2)"
3.878333373E-4,-2.799179077E-1,-6.083648987E0,-3.332220612E0,6.942105821E0
1.039083333E-2,-6.256988525E-1,-7.241940308E0,-3.046165466E0,7.881390900E0
2.039283334E-2,-8.765771484E-1,-8.075107727E0,-2.962938538E0,8.646083337E0
3.039583333E-2,-1.246607666E0,-8.200696564E0,-2.968776398E0,8.810169584E0
4.039883333E-2,-1.144070892E0,-7.846383362E0,-2.591710510E0,8.342157601E0
5.040083334E-2,-6.698570251E-1,-7.435487823E0,-3.211870880E0,8.127195221E0
6.040383333E-2,-2.661465454E-1,-7.084767151E0,-3.433110809E0,7.877246308E0
7.040683334E-2,1.219963074E-1,-7.261399841E0,-4.208797760E0,8.393854260E0
8.040883333E-2,3.890409851E-1,-8.040829010E0,-4.877008209E0,9.412305410E0
9.041183333E-2,6.387217712E-1,-8.636440430E0,-4.598886566E0,9.805397822E0
1.004148333E-1,2.065704346E-1,-8.851842499E0,-4.442910919E0,9.906424401E0
1.104178333E-1,-4.722679138E-1,-8.866511993E0,-4.969066772E0,1.017495437E1
1.204198333E-1,-1.214574280E0,-9.030121765E0,-5.699847107E0,1.074739721E1
1.304228333E-1,-2.238295441E0,-9.280401306E0,-6.041736145E0,1.129771616E1
1.404258333E-1,-3.581152954E0,-9.017996979E0,-6.281238098E0,1.155867112E1
1.504278333E-1,-4.772226105E0,-8.374185791E0,-7.067103882E0,1.195178175E1
1.604308333E-1,-4.288731537E0,-8.327482910E0,-6.893614655E0,1.163022411E1
1.704338333E-1,-2.934647369E0,-9.609866180E0,-6.256988525E0,1.183687411E1
1.804354583E-1,-2.337688751E0,-1.067774551E1,-6.550228729E0,1.274301904E1
1.904384583E-1,-2.218386841E0,-1.117246674E1,-7.519762573E0,1.364888575E1
2.004414583E-1,-1.836231537E0,-1.137858810E1,-8.042026520E0,1.405411698E1
2.104444583E-1,-1.416504364E0,-1.164727936E1,-8.327183533E0,1.438775822E1
2.204464583E-1,-1.120569763E0,-1.202030365E1,-8.751401367E0,1.491074788E1
2.304494583E-1,-1.122366028E0,-1.255304581E1,-9.074729004E0,1.553027273E1
2.404524583E-1,-1.483564911E0,-1.298160461E1,-8.406069489E0,1.553657065E1
2.504544583E-1,-1.986069946E0,-1.323802139E1,-8.531059570E0,1.587352077E1
2.604574583E-1,-2.545007629E0,-1.338336914E1,-9.808802490E0,1.678702593E1
2.704604583E-1,-3.251089325E0,-1.376806915E1,-1.002809647E1,1.734047372E1
2.804624583E-1,-3.550317078E0,-1.436876999E1,-1.081306412E1,1.832999340E1
2.904654583E-1,-3.268303528E0,-1.575503723E1,-1.259944931E1,2.043646567E1
3.004684583E-1,-3.303779755E0,-1.688099579E1,-1.245799347E1,2.123875186E1
3.104714583E-1,-3.466940460E0,-1.726345047E1,-1.312006668E1,2.195865542E1
3.204734583E-1,-3.701203308E0,-1.744876511E1,-1.284344193E1,2.197981597E1
3.304764583E-1,-3.793561249E0,-1.719938370E1,-1.084824097E1,2.068560462E1
3.404794583E-1,-3.438798981E0,-1.694491287E1,-9.552535400E0,1.975364127E1
3.504814583E-1,-3.900289307E0,-1.691796890E1,-8.021369476E0,1.912517442E1
3.604844583E-1,-4.827161865E0,-1.705658066E1,-6.446045380E0,1.886212969E1
3.704874583E-1,-5.592520294E0,-1.698697540E1,-4.576582947E0,1.846019307E1
3.804894583E-1,-6.391558685E0,-1.758543091E1,-3.007994843E0,1.895118560E1
3.904924583E-1,-6.831493835E0,-1.902154449E1,-2.814147949E0,2.040607487E1
4.004954583E-1,-6.223158875E0,-1.940549606E1,-3.574416962E0,2.069003239E1
4.104984583E-1,-5.317242737E0,-1.759007126E1,-3.913761292E0,1.878832629E1
4.205004583E-1,-4.638853455E0,-1.374411896E1,-3.791764984E0,1.499324011E1
4.305034583E-1,-4.042493591E0,-9.971364441E0,-4.081113281E0,1.150762134E1
4.405064583E-1,-2.201172638E0,-7.375612335E0,-4.228107605E0,8.781896846E0
4.505084583E-1,5.430706787E-1,-4.890031128E0,-3.342249756E0,5.947937762E0
4.605114583E-1,1.035696259E0,-2.393522644E0,-2.213297424E0,3.420570548E0
4.705144583E-1,1.581760712E0,-7.688012695E-1,-1.714235229E0,2.455936637E0
4.805174583E-1,2.234553223E0,-1.646575928E-2,6.286926270E-2,2.235498103E0
4.905194583E-1,1.796264648E0,3.405418396E-1,1.100062408E0,2.133699307E0
5.005224583E-1,5.785469055E-1,5.620811462E-1,1.067280579E0,1.337811485E0
5.105254583E-1,-3.365002441E-1,7.523355103E-1,7.714956665E-1,1.128913946E0
5.205274583E-1,-5.493576050E-1,1.245260468E0,3.788621521E-1,1.412800036E0
5.305304583E-1,-6.697073364E-1,1.526076508E0,1.471440125E-1,1.673041776E0
5.405334583E-1,-7.716453552E-1,1.830393677E0,-6.167175293E-2,1.987355271E0
5.505354583E-1,-1.028361511E0,1.731299744E0,-2.472857666E-1,2.028811586E0
5.605384583E-1,-1.668430481E0,1.379980316E0,-3.713777161E-1,2.196799342E0
5.705414583E-1,-2.792742462E0,7.924520874E-1,-1.195863190E0,3.139662329E0
5.805444583E-1,-4.054917755E0,5.161267090E-1,-2.580633545E0,4.834088774E0
5.905464583E-1,-4.600233765E0,8.053253174E-2,1.496887207E-4,4.600938622E0
6.005494583E-1,-3.761527863E0,-7.234455872E-1,3.777544556E0,5.379805596E0
6.105524583E-1,-8.620573425E-1,-2.772235107E-1,3.287613373E0,3.410043611E0
6.205544583E-1,9.663903809E-1,1.504371643E-1,2.468516693E0,2.655205524E0
6.305574583E-1,1.422491913E0,7.259902954E-2,2.279459839E0,2.687878535E0
6.405604583E-1,1.783990173E0,1.188528442E-1,1.836081848E0,2.562799932E0
6.505624583E-1,1.689835968E0,2.206411743E-1,1.486259308E0,2.261237461E0
6.605654583E-1,1.654210052E0,2.609074402E-1,1.256487122E0,2.093619707E0
6.705684583E-1,1.582658844E0,2.478845215E-1,1.020877075E0,1.899590944E0
6.805714583E-1,9.713301086E-1,-4.176315308E-2,7.849676514E-1,1.249560144E0
6.905734583E-1,2.784210205E-1,-4.572990417E-1,5.505551147E-1,7.679528714E-1
7.005764583E-1,-1.414558411E-1,-7.476951599E-1,3.035687256E-1,8.192751542E-1
7.105794583E-1,-2.392025757E-1,-1.124761047E0,-2.869532776E-1,1.185178244E0
7.205814583E-1,2.426454163E-1,-1.776805115E0,-2.372715912E0,2.974171147E0
7.305844583E-1,3.263214111E-2,-2.647694092E0,-4.149221649E0,4.922132582E0
7.405874583E-1,-1.470991058E0,-3.185675354E0,-2.065105591E0,4.071486615E0
7.505894583E-1,-1.899100800E0,-3.468886414E0,-1.168919220E0,4.123848802E0
7.605924583E-1,-1.418001251E0,-3.212769012E0,-7.342231750E-1,3.587714585E0
7.705954583E-1,-3.162323914E0,-2.465373230E0,-2.659519501E0,4.811590348E0
7.805984583E-1,-4.248614960E0,-1.515747986E0,-6.056255951E0,7.551586401E0
7.906004583E-1,-4.208947449E0,-2.981799316E-1,-7.858807526E0,8.919921839E0
8.006034583E-1,-3.159030762E0,-1.282982025E0,-9.887538757E0,1.045891681E1
8.106064583E-1,-3.031196594E0,-4.722978516E0,-8.562943268E0,1.023809925E1
8.206084583E-1,-3.886817322E0,-7.896978149E0,-4.216431885E0,9.759503605E0
8.306114583E-1,-2.176324310E0,-1.311587540E1,-1.767075348E0,1.341212624E1
8.406144583E-1,4.430786133E-2,-1.960293549E1,-8.449628906E0,2.134650490E1
8.506164583E-1,3.018922119E0,-2.894276321E1,-1.808688812E1,3.426270502E1
8.606194583E-1,-2.886447601E0,-3.873180679E1,-1.296394135E1,4.094567392E1
8.706224583E-1,-9.262139282E0,-4.198663834E1,-2.005604324E1,4.744375505E1
8.806254583E-1,-2.143392792E0,-2.964106110E1,-1.400218231E1,3.285190626E1
8.906274583E-1,-2.584076385E0,-1.350117416E1,-4.825964355E0,1.456877093E1
9.006304583E-1,-4.243375854E0,-8.936865692E0,-1.117126923E1,1.492216684E1
9.106334583E-1,-2.870430908E0,-7.718399506E0,-1.342483292E1,1.574926041E1
9.206354583E-1,-3.373534698E0,-1.075842773E1,-1.144340332E1,1.606474348E1
9.306384583E-1,-3.829486542E0,-1.632864441E1,-1.740670258E1,2.417194427E1
9.406414583E-1,-6.472240906E0,-2.152628586E1,-1.865780090E1,2.921274413E1
9.506444583E-1,-8.183332672E0,-2.650717804E1,-1.527857803E1,3.167068626E1
9.606464583E-1,-8.046517181E0,-2.901910446E1,-1.209574677E1,3.245245680E1
9.706494583E-1,-7.435338135E0,-2.798026474E1,-1.021371048E1,3.070015228E1
9.806524583E-1,-6.603218536E0,-2.538421326E1,-8.339308319E0,2.752280583E1
9.906544583E-1,-5.942193146E0,-2.329919907E1,-7.532635803E0,2.519728038E1
1.000657458E0,-5.771098938E0,-2.117227203E1,-6.065836029E0,2.276763169E1
1.010660458E0,-6.008056183E0,-2.036649765E1,-4.972958679E0,2.180874328E1
1.020663458E0,-6.119125214E0,-2.038700500E1,-4.141737213E0,2.168473319E1
1.030665458E0,-5.541626129E0,-1.913081726E1,-3.518732758E0,2.022570813E1
1.040668458E0,-5.985902252E0,-1.407912231E1,-2.942131805E0,1.557911584E1
1.050671458E0,-6.931336212E0,-1.059960800E1,-1.605411530E0,1.276606665E1
1.060673458E0,-6.871909790E0,-8.494685211E0,-2.117646332E0,1.112956634E1
1.070676458E0,-5.713917847E0,-6.560856628E0,-3.733236694E0,9.467351957E0
1.080679458E0,-3.326083374E0,-5.139562225E0,-4.722230072E0,7.731583753E0
1.090681458E0,-1.505269775E0,-3.936064911E0,-4.787943420E0,6.378310613E0
1.100684458E0,-5.397775269E-1,-2.039808197E0,-3.717220001E0,4.274330567E0
1.110687458E0,1.645677795E0,1.098715210E-1,-2.583477631E0,3.065074848E0
1.120690458E0,3.081042938E0,7.915539551E-1,-1.662891998E0,3.589511533E0
1.130692458E0,3.359913025E0,2.152523804E-1,7.798782349E-1,3.455945483E0
1.140695458E0,2.864443359E0,-1.872605896E-1,2.599344635E0,3.872556626E0
1.150698458E0,2.080673218E0,3.592529297E-2,1.882185974E0,2.805907288E0
1.160700458E0,1.895059204E0,6.909631348E-1,8.578660583E-1,2.191942886E0
1.170703458E0,1.383273468E0,1.015338593E0,-1.761836243E-1,1.724934380E0
1.180706458E0,1.125659180E-1,7.300318909E-1,-2.585573273E0,2.689015953E0
1.190710542E0,-1.995200958E0,1.047821045E-2,-4.830754395E0,5.226578678E0
1.200712542E0,-3.106040955E0,1.582209778E-1,-2.427951050E0,3.945563406E0
1.210715542E0,-2.974614258E0,8.226892090E-1,1.003513184E0,3.245332992E0
1.220718542E0,-2.634820862E0,1.217568054E0,2.607876892E0,3.902021889E0
1.230720542E0,-2.138303375E0,8.048762512E-1,2.784659271E0,3.602012543E0
1.240723542E0,-8.409512329E-1,1.658551025E-1,2.107018433E0,2.274694170E0
1.250726542E0,1.986369324E-1,-9.026229858E-2,1.476080475E0,1.492118454E0
1.260728542E0,9.400451660E-1,-2.296224976E-1,1.501677246E0,1.786461854E0
1.270731542E0,1.456620941E0,-2.724334717E-1,1.831591187E0,2.355990415E0
1.280734542E0,1.647324371E0,-3.900888062E-1,2.112257538E0,2.706931615E0
1.290737542E0,1.761836243E0,-4.556524658E-1,2.474803619E0,3.071862476E0
1.300739542E0,1.771715698E0,-2.697390747E-1,2.775827637E0,3.304081529E0
1.310742542E0,1.511856079E0,1.633103943E-1,2.785707092E0,3.173727004E0
1.320745542E0,9.126521301E-1,5.522016907E-1,2.484683075E0,2.703980510E0
1.330747542E0,2.749781799E-1,7.696994019E-1,1.742227020E0,1.924423331E0
1.340750542E0,-4.998106384E-1,6.548881531E-1,1.124761047E0,1.394193882E0
1.350753542E0,-1.106499023E0,3.192860413E-1,5.565426636E-1,1.279071304E0
1.360756542E0,-1.688937836E0,-1.194515991E-1,-3.951782227E-2,1.693617830E0
1.370758542E0,-2.021995239E0,-5.885760498E-1,-3.591930542E0,4.163754500E0
1.380761542E0,-1.504072266E0,-1.135838013E0,-7.858059082E0,8.080931500E0
1.390764542E0,-2.026336212E0,-1.608854370E0,-4.227359161E0,4.956310756E0
1.400766542E0,-2.799478455E0,-1.609303436E0,-2.274969177E0,3.949990117E0
1.410769542E0,-3.083138580E0,-1.339714050E0,-7.348219299E-1,3.441008647E0
1.420772542E0,-2.149829407E0,-1.666035461E0,-1.338815918E0,3.031479622E0
1.430774542E0,-1.403780823E0,-3.447780304E0,-4.356690216E0,5.730492061E0
1.440777542E0,-1.084494781E0,-5.656437378E0,-8.196804657E0,1.001793488E1
1.450780542E0,-6.444099426E-1,-9.412277069E0,-1.411624512E1,1.697865130E1
1.460783542E0,-2.347119141E0,-1.581057175E1,-1.458596832E1,2.163870650E1
1.470785542E0,-8.165819092E0,-2.064731369E1,1.737436981E0,2.227130107E1
1.480788542E0,-7.198231201E0,-2.232427643E1,9.429790649E0,2.528060130E1
1.490791542E0,-9.549990692E0,-2.772714111E1,-2.784449707E1,4.043899966E1
1.500793542E0,-2.521356812E0,-3.739478714E1,-2.585917557E1,4.553486913E1
1.510796542E0,3.471131744E0,-3.492357605E1,9.391320648E0,3.633045311E1
1.520799542E0,-3.028202820E0,-2.225512024E1,1.076142151E1,2.490519187E1
1.530802542E0,-5.225483551E0,-1.560085785E1,-1.653596329E1,2.332660554E1
1.540804542E0,-5.391937408E0,-1.253044281E1,-1.399649414E1,1.954448347E1
1.550807542E0,-7.491471405E0,-9.509125671E0,1.507814484E0,1.219914421E1
1.560810542E0,-7.112908630E0,-9.986033936E0,-1.351284988E1,1.824586131E1
1.570812542E0,-4.004173279E0,-1.450573517E1,-1.608120895E1,2.202396508E1
1.580815542E0,-2.580483856E0,-2.119727005E1,-1.415381699E1,2.561861998E1
1.590818542E0,-2.556383972E0,-2.725876511E1,-1.739278152E1,3.243584781E1
1.600821542E0,-3.007096710E0,-3.175107330E1,-1.885359375E1,3.704903891E1
1.610823542E0,-3.736380157E0,-3.292148941E1,-1.480541199E1,3.629029107E1
1.620826542E0,-3.016227722E0,-2.915292618E1,-1.140792709E1,3.145046160E1
1.630829542E0,-3.580853577E0,-2.383268967E1,-7.913144531E0,2.536606918E1
1.640831542E0,-4.048032074E0,-2.010963181E1,-5.919141083E0,2.134994347E1
1.650834542E0,-4.110901337E0,-1.884386398E1,-5.324577484E0,2.000854430E1
1.660837542E0,-4.750670929E0,-1.787552765E1,-4.302502899E0,1.898986293E1
1.670840542E0,-5.175487518E0,-1.621667725E1,-2.751727753E0,1.724350015E1
1.680842542E0,-5.255870361E0,-1.395413223E1,-1.641336823E0,1.500119882E1
1.690845542E0,-5.251828766E0,-1.168380341E1,-1.461710358E0,1.289300448E1
1.700848542E0,-4.446952515E0,-9.280550995E0,-1.537452850E0,1.040518019E1
1.710851542E0,-3.537144470E0,-6.506519623E0,-2.411185913E0,7.788453384E0
1.720853542E0,-2.063908081E0,-4.240082703E0,-3.686084747E0,5.985418837E0
1.730856542E0,-9.554631042E-1,-2.417472839E0,-4.557572479E0,5.246765821E0
1.740859542E0,-4.583468628E-1,-1.397044830E0,-4.702620850E0,4.927114669E0
1.750861542E0,-1.700463867E-1,-6.881190491E-1,-4.387526093E0,4.444413213E0
1.760864542E0,5.872288513E-1,2.971321106E-1,-2.727029114E0,2.805318699E0
1.770867542E0,1.044677582E0,8.428971863E-1,-1.083446960E0,1.725017169E0
1.780869542E0,7.976911926E-1,6.743476868E-1,-6.346801758E-1,1.222241779E0
1.790872542E0,1.124012604E0,5.414241028E-1,8.607101440E-1,1.515706550E0
1.800875542E0,1.113384705E0,4.014651489E-1,1.995650024E0,2.320219556E0
1.810878542E0,7.622149658E-1,3.535647583E-1,1.360820160E0,1.599315854E0
1.820880542E0,3.920347595E-1,6.433621216E-1,4.710704041E-1,8.885456644E-1
1.830883542E0,-1.734892273E-1,6.545887756E-1,3.143463135E-2,6.779182202E-1
1.840886542E0,-1.092428284E0,5.328918457E-2,-6.825805664E-2,1.095855125E0
1.850888542E0,-2.026485901E0,-8.479866028E-1,-1.844614105E0,2.868506159E0
1.860891542E0,-2.840792542E0,-1.280287628E0,-8.670120392E0,9.213046526E0
1.870894542E0,-2.774929504E0,-4.126918030E-1,-6.220464478E0,6.823835182E0
1.880897542E0,-2.646945648E0,9.190887451E-2,1.362167358E-2,2.648575854E0
1.890899542E0,-1.740580444E0,8.202941895E-2,3.204087067E0,3.647262403E0
1.900902542E0,2.649490356E-2,-1.199006653E-1,4.168980560E0,4.170788542E0
1.910905542E0,5.899232483E-1,-3.480262756E-1,4.073778534E0,4.130956702E0
1.920907542E0,9.580078125E-2,-3.083587646E-1,2.865191803E0,2.883329150E0
1.930910542E0,-3.198847961E-1,1.197509766E-3,2.486479340E0,2.506971724E0
1.940913542E0,-2.977308655E-1,4.333488464E-1,2.342927856E0,2.401196750E0
1.950916542E0,-1.390608215E-1,6.574328613E-1,2.271226959E0,2.368549721E0
1.960918542E0,3.586541748E-1,5.574407959E-1,2.370171204E0,2.461114502E0
1.970921542E0,4.486170959E-1,8.816665649E-2,2.290985870E0,2.336160721E0
1.980924542E0,-1.540296936E-1,-3.712280273E-1,1.893712006E0,1.935892702E0
1.990926542E0,-8.457412720E-1,-5.619314575E-1,9.485774231E-1,1.389548268E0
2.000929542E0,-1.903142395E0,-8.930429077E-1,-2.512674866E0,3.276127530E0
2.010932542E0,-2.212698669E0,-1.041234741E0,-1.341660004E0,2.789311161E0
2.020935542E0,-1.480271759E0,-9.250762939E-1,4.233197021E-1,1.796154281E0
2.030937542E0,-1.942959595E0,-1.315314789E0,-1.731898499E-1,2.352687762E0
2.040940542E0,-2.713706818E0,-1.862127686E0,-2.168540497E0,3.941356631E0
2.050943542E0,-3.163820801E0,-1.741029510E0,-3.448678436E0,4.993428559E0
2.060945542E0,-3.146007843E0,-1.744322662E0,-3.672762451E0,5.140934830E0
2.070948542E0,-2.881058807E0,-2.919828186E0,-3.560944977E0,5.431963330E0
2.080951542E0,-2.973865814E0,-5.727689209E0,-3.902085571E0,7.541655877E0
2.090954542E0,-3.198997650E0,-9.545500031E0,-7.048991547E0,1.228976967E1
2.100956542E0,-3.221001892E0,-1.523412048E1,-1.115944382E1,1.915689083E1
2.110959542E0,-7.455995178E-1,-2.258727951E1,-8.598269806E0,2.417997845E1
2.120962542E0,1.334924011E0,-3.060505646E1,-1.402059402E1,3.369018492E1
2.130964542E0,6.957531738E-1,-3.902848984E1,-2.357327911E1,4.560051074E1
2.140967542E0,-2.393672333E0,-4.223587006E1,-1.530222885E1,4.498618226E1
2.150970542E0,-2.325114899E0,-3.006842239E1,-1.218496124E1,3.252674999E1
2.160973542E0,-5.110073547E0,-1.195668594E1,-1.103759720E1,1.705590051E1
2.170975542E0,-7.388635254E0,1.386865997E0,-6.662944336E0,1.004540469E1
2.180978542E0,-6.110443268E0,5.215753784E0,-9.291627960E0,1.228315736E1
2.190981042E0,-4.203858032E0,3.251239014E-1,-1.470062988E1,1.529335303E1
2.200983042E0,-3.871399384E0,-6.438710632E0,-1.855032440E1,2.001397670E1
2.210986042E0,-3.181783447E0,-1.383408188E1,-1.941073517E1,2.404749898E1
2.220989042E0,-3.821852417E0,-2.109697861E1,-1.943737976E1,2.893960598E1
2.230992042E0,-6.090834045E0,-2.679248474E1,-1.783720734E1,3.275822742E1
2.240994042E0,-9.151070251E0,-2.778911224E1,-1.469509140E1,3.274022842E1
2.250997042E0,-7.927514648E0,-2.427606766E1,-1.300330948E1,2.865761691E1
2.261000042E0,-5.588179321E0,-1.992970596E1,-1.184367096E1,2.384729481E1
2.271003042E0,-3.749103699E0,-1.783331543E1,-1.043285477E1,2.099827079E1
2.281005042E0,-3.092269592E0,-1.748828293E1,-8.966504059E0,1.989473212E1
2.291008042E0,-3.911665649E0,-1.805650131E1,-7.245832214E0,1.984541389E1
2.301011042E0,-5.260361023E0,-1.856529327E1,-6.099815369E0,2.023732344E1
2.311013042E0,-6.221961365E0,-1.856828705E1,-4.736151123E0,2.014758583E1
2.321016042E0,-6.443051605E0,-1.830812805E1,-3.297343140E0,1.968687224E1
2.331019042E0,-6.119723969E0,-1.798405197E1,-2.571203156E0,1.916998259E1
2.341022042E0,-5.643264771E0,-1.698308350E1,-2.294428711E0,1.804261526E1
2.351024042E0,-5.095703430E0,-1.470571930E1,-2.630030823E0,1.578421476E1
2.361027042E0,-4.612807617E0,-1.180235687E1,-2.631527710E0,1.294212347E1
2.371030042E0,-3.575464783E0,-8.898545380E0,-3.123554535E0,1.008586393E1
2.381032042E0,-2.770738220E0,-6.212530975E0,-3.886517944E0,7.834382754E0
2.391035042E0,-2.374661865E0,-4.667294312E0,-4.338278503E0,6.800243785E0
2.401038042E0,-1.481319580E0,-3.507206726E0,-3.556903381E0,5.210217690E0
2.411041042E0,-1.154100037E-1,-1.441053314E0,-1.657802582E0,2.199605311E0
2.421043042E0,6.336323547E-1,1.335223389E-1,-1.101708984E-1,6.568529537E-1
2.431046042E0,7.999365234E-1,9.449848938E-1,1.791773987E0,2.177923073E0
2.441049042E0,4.418811035E-1,1.063987427E0,2.452649689E0,2.709763578E0
2.451051042E0,1.142124939E-1,1.026864624E0,2.648741913E0,2.843119619E0
2.461054042E0,-2.499801636E-2,1.244362335E0,3.054847412E0,3.298659612E0
2.471057042E0,9.415420532E-2,1.726809082E0,2.686613159E0,3.195093878E0
2.481060042E0,-1.691482544E-2,2.111658783E0,2.204166412E0,3.052497093E0
2.491062042E0,-3.790118408E-1,2.107916565E0,1.758842468E0,2.771369526E0
2.501065042E0,-7.723937988E-1,1.848805389E0,1.052012329E0,2.263051809E0
2.511068042E0,-1.295705566E0,1.158441010E0,3.998185730E-1,1.783449853E0
2.521070042E0,-1.560504913E0,3.827540588E-1,-4.535568237E-2,1.607399574E0
2.531073042E0,-1.484463043E0,-7.933502197E-2,-3.676354980E-1,1.531365545E0
2.541076042E0,-1.117426300E0,-3.254232788E-1,-5.161267090E-1,1.273156953E0
2.551078042E0,-6.126759338E-1,-4.055067444E-1,-5.122348022E-1,8.956517249E-1
2.561081042E0,-2.481838989E-1,-5.195695496E-1,-2.368075562E-1,6.225958426E-1
2.571084042E0,2.155517578E-2,-7.376660156E-1,1.660047913E-1,7.564214215E-1
2.581087042E0,2.688409424E-1,-9.020242310E-1,3.906875610E-1,1.019097609E0
2.591089042E0,4.586462402E-1,-7.812254333E-1,3.625460815E-1,9.757608378E-1
2.601092042E0,4.014651489E-1,-5.601351929E-1,3.354524231E-1,7.664554966E-1
2.611095042E0,1.675016785E-1,-2.010319519E-1,2.010319519E-1,3.299765199E-1
2.621097042E0,4.251159668E-2,1.261875916E-1,-2.811154175E-1,3.110569434E-1
2.631100042E0,2.664459229E-2,2.573149109E-1,-6.975494385E-1,7.439731963E-1
2.641103042E0,2.068698120E-1,7.649093628E-2,-6.921606445E-1,7.264518844E-1
2.651106042E0,3.927832031E-1,-3.502716064E-1,-5.758525085E-1,7.801121423E-1
2.661108042E0,4.975653076E-1,-7.015910339E-1,-5.989045715E-1,1.048087735E0
2.671111042E0,5.198689270E-1,-9.327104187E-1,-7.866142273E-1,1.326263311E0
2.681114042E0,4.514611816E-1,-1.210233307E0,-1.380130005E0,1.890301745E0
2.691116042E0,4.825964355E-1,-1.614392853E0,-2.807561646E0,3.274380246E0
2.701119042E0,3.372486877E-1,-2.148182831E0,-5.301675110E0,5.730286653E0
2.711122042E0,-7.625143433E-1,-2.932551727E0,-8.600515137E0,9.118670318E0
2.721125042E0,-1.983375549E0,-4.340823212E0,-1.157722504E1,1.252232663E1
2.731127042E0,-6.219566345E-1,-5.915847931E0,-1.248344055E1,1.382824554E1
2.741130042E0,1.936972046E-1,-9.799222412E0,-9.695787506E0,1.378660850E1
2.751133042E0,-6.602619781E0,-1.586386093E1,-1.942510529E0,1.729248446E1
2.761135042E0,-1.415127228E1,-2.058025314E1,-7.256759491E0,2.600895778E1
2.771138042E0,-1.489118362E1,-2.415317322E1,-1.664478699E1,3.289638369E1
2.781141042E0,-1.201087326E1,-2.990122009E1,-1.416489395E1,3.519926505E1
2.791144042E0,1.641636200E0,-3.015359528E1,-3.550017700E0,3.040619843E1
2.801146042E0,6.816524963E0,-2.018297928E1,6.553821259E0,2.228834310E1
2.811149042E0,3.040626984E0,-9.922266541E0,-1.422192535E0,1.047470369E1
2.821152042E0,-1.796264648E-1,-5.241051178E0,-1.680645081E1,1.760561478E1
2.831154042E0,-4.606221313E0,-6.122568054E0,-6.056106262E0,9.766244797E0
2.841157042E0,-7.264393616E0,-7.863896942E0,-7.717351685E0,1.319734090E1
2.851160042E0,-5.145250397E0,-1.209724365E1,-1.554397614E1,2.035760545E1
2.861163042E0,-5.074597321E0,-1.739981689E1,-1.736299347E1,2.509937665E1
2.871165042E0,-8.777596893E0,-2.379616562E1,-1.888383087E1,3.162123928E1
2.881168042E0,-1.037746994E1,-2.754152710E1,-1.957284805E1,3.534577737E1
2.891171042E0,-1.023586441E1,-2.531715271E1,-1.947091003E1,3.353874594E1
2.901173042E0,-7.487729187E0,-2.161505127E1,-1.580712891E1,2.780542850E1
2.911176042E0,-5.180127869E0,-1.976310242E1,-1.218436249E1,2.378807750E1
2.921179042E0,-3.764072571E0,-1.829630264E1,-1.057026901E1,2.146284044E1
2.931182042E0,-3.592678986E0,-1.728784973E1,-9.644593964E0,2.011952493E1
2.941184042E0,-4.229604492E0,-1.706601105E1,-8.795110474E0,1.965940628E1
2.951187042E0,-5.049150238E0,-1.758932281E1,-8.119116211E0,2.001994614E1
2.961190042E0,-5.118605804E0,-1.793001434E1,-6.539002075E0,1.975965809E1
2.971192042E0,-4.632716217E0,-1.780397644E1,-5.268144836E0,1.913627411E1
2.981195042E0,-4.556075592E0,-1.668460419E1,-4.375700684E0,1.784042035E1
2.991198042E0,-4.213737488E0,-1.519879395E1,-3.637884979E0,1.618620178E1
3.001201042E0,-3.534749451E0,-1.314686096E1,-3.175646210E0,1.397923945E1
3.011203042E0,-3.121608582E0,-1.029364426E1,-2.734214172E0,1.109862511E1
3.021206042E0,-2.789598999E0,-7.333400116E0,-1.810036011E0,8.052133270E0
3.031209042E0,-2.781066742E0,-5.046006775E0,-1.668729858E0,5.998431123E0
3.041211042E0,-2.553988953E0,-3.267405396E0,-2.371368713E0,4.777257285E0
3.051214042E0,-1.633103943E0,-1.932032318E0,-2.877765656E0,3.831620093E0
3.061217042E0,-8.622070313E-1,-8.252339172E-1,-3.082090759E0,3.305101425E0
3.071219042E0,-6.617738342E-1,6.915618896E-2,-3.382366333E0,3.447191494E0
3.081222042E0,-7.438032532E-1,6.746470642E-1,-3.308120728E0,3.457174379E0
3.091225042E0,-6.014492798E-1,1.173110504E0,-2.401306458E0,2.739379892E0
3.101228042E0,-1.392105103E-1,1.379531250E0,-1.265169067E0,1.877002612E0
3.111230042E0,6.608757019E-1,1.211131439E0,-5.120851135E-1,1.471674971E0
3.121233042E0,1.304986267E0,9.699829102E-1,-1.547781372E-1,1.633343894E0
3.131236042E0,1.538800049E0,7.035369873E-1,1.877096558E-1,1.702382095E0
3.141238042E0,1.380878448E0,3.802093506E-1,4.526586914E-1,1.502093316E0
3.151241042E0,8.827143860E-1,-1.282832336E-1,1.676513672E-2,8.921448005E-1
3.161244042E0,-8.681945801E-3,-9.735754395E-1,-9.071136475E-1,1.330706460E0
3.171247042E0,-8.153544617E-1,-1.511407013E0,-1.546434174E0,2.310976571E0
3.181249042E0,-1.332528992E0,-1.391356659E0,-1.279239807E0,2.312565967E0
3.191251792E0,-1.973196716E0,-7.915539551E-1,-8.307723999E-1,2.282596269E0
3.201254792E0,-2.731370087E0,-2.544708252E-2,-8.738827515E-1,2.867873980E0
3.211256792E0,-3.027454376E0,3.592529297E-1,-1.178648987E0,3.268601551E0
3.221259792E0,-1.944905548E0,8.562194824E-2,-6.176156616E-1,2.042409806E0
3.231262792E0,-1.016386414E0,-5.658233643E-2,1.363664246E-1,1.027053409E0
3.241264792E0,-1.538800049E-1,6.840774536E-2,1.479223938E0,1.488778739E0
3.251267792E0,6.177653503E-1,8.502319336E-2,1.907034302E0,2.006400458E0
3.261270792E0,6.081852722E-1,1.616638184E-2,1.676813049E0,1.783774840E0
3.271273792E0,4.308041382E-1,-7.349716187E-2,1.409468994E0,1.475668284E0
3.281275792E0,4.724176025E-1,-1.531315613E-1,1.112336884E0,1.218162965E0
3.291278792E0,2.583627319E-1,-1.827699280E-1,9.208850098E-1,9.737480932E-1
3.301281792E0,3.353027344E-2,-2.055226135E-1,7.087760925E-1,7.387336281E-1
3.311283792E0,-4.355941772E-2,-3.974235535E-1,2.469863892E-1,4.699416774E-1
3.321286792E0,2.189945984E-1,-6.867718506E-1,-1.366059265E0,1.544581537E0
3.331289792E0,5.553451538E-2,-9.653425598E-1,-1.419198761E0,1.717293063E0
3.341292792E0,-1.407073975E-1,-1.123114471E0,-1.356179810E-1,1.139989879E0
3.351294792E0,1.534309387E-1,-1.606309662E0,-1.637744293E0,2.299125519E0
3.361297792E0,1.667532349E-1,-2.283501434E0,-2.455044708E0,3.356997164E0
3.371300792E0,3.128494263E-2,-3.419938202E0,-1.053808594E-1,3.421704426E0
3.381302792E0,-1.910776520E0,-7.258855133E0,-9.674382019E-1,7.568221814E0
3.391305792E0,-3.750450897E0,-1.118339401E1,-2.778222656E0,1.211827977E1
3.401308792E0,-5.938001862E0,-1.436023773E1,-7.757468262E0,1.736820681E1
3.411311792E0,-7.947423248E0,-2.052816147E1,-1.322484879E1,2.568002288E1
3.421313792E0,-8.594677277E0,-2.896012711E1,-7.690707092E0,3.117217373E1
3.431316792E0,-7.595505066E0,-3.773532898E1,-4.754263458E0,3.878465897E1
3.441319792E0,-4.754113770E0,-4.510255875E1,-1.205712708E1,4.692778193E1
3.451321792E0,-2.319875793E0,-3.935735596E1,-9.720785522E0,4.060636604E1
3.461324792E0,-3.262315979E0,-2.759526535E1,-8.527317352E0,2.906641561E1
3.471327792E0,-5.883365479E0,-2.482332962E1,-1.062550415E1,2.763535817E1
3.481329792E0,-7.363337860E0,-2.460583191E1,-1.033720367E1,2.768616059E1
3.491332792E0,-7.826923828E0,-2.487527161E1,-1.159922928E1,2.854088285E1
3.501335792E0,-8.214018860E0,-2.539184738E1,-1.173544601E1,2.915367408E1
3.511338792E0,-7.987090759E0,-2.540262497E1,-1.122575592E1,2.889817590E1
3.521340792E0,-7.149282990E0,-2.486643997E1,-1.109133545E1,2.815084024E1
3.531343792E0,-5.778433685E0,-2.434387665E1,-1.079510147E1,2.724974939E1
3.541346792E0,-4.471202087E0,-2.380933823E1,-9.681118011E0,2.608831694E1
3.551348792E0,-3.048859863E0,-2.337494156E1,-8.316555634E0,2.499697056E1
3.561351792E0,-1.989961853E0,-2.195679062E1,-6.772516479E0,2.306355528E1
3.571354792E0,-1.991758118E0,-1.843865662E1,-4.580325165E0,1.910315515E1
3.581357792E0,-2.819536743E0,-1.386312149E1,-3.401376801E0,1.455009584E1
3.591359792E0,-3.010539551E0,-9.995464325E0,-1.916614380E0,1.061348511E1
3.601362792E0,-2.539169769E0,-6.652466125E0,-1.073567505E0,7.201057968E0
3.611365792E0,-1.256786499E0,-4.404291229E0,-8.473878479E-1,4.657827788E0
3.621367792E0,1.234931946E-1,-2.711760864E0,-8.946894836E-1,2.858210424E0
3.631370792E0,9.497749329E-1,-1.405277710E0,-1.248553619E0,2.106125354E0
3.641373792E0,1.509910126E0,-2.850073242E-1,-1.489103394E0,2.139739863E0
3.651376792E0,2.106120300E0,5.492079163E-1,-1.008303223E0,2.398759563E0
3.661378792E0,2.383343811E0,7.442523193E-1,-1.929487610E-1,2.504290011E0
3.671381792E0,1.834884338E0,8.916957092E-1,4.186793518E-1,2.082597938E0
3.681384792E0,1.061293030E0,9.512718201E-1,5.110372925E-1,1.514074002E0
3.691386792E0,5.284011841E-1,1.158890076E0,6.725514221E-1,1.440333098E0
3.701389792E0,1.778302002E-1,1.413360901E0,5.754034424E-1,1.536327354E0
3.711392792E0,-3.502716064E-2,1.698966980E0,4.174818420E-1,1.749859077E0
3.721395792E0,-2.933898926E-1,1.859433289E0,3.644920349E-1,1.917400383E0
3.731397792E0,-8.548722839E-1,1.464255066E0,2.715353394E-1,1.717143256E0
3.741400792E0,-1.606159973E0,4.680766296E-1,5.553451538E-2,1.673896554E0
3.751403792E0,-2.197580109E0,-6.562353516E-1,-1.660047913E-1,2.299469670E0
3.761405792E0,-2.319576416E0,-1.314566345E0,-8.990304565E-1,2.813676454E0
3.771408792E0,-2.622845764E0,-1.775906982E0,-2.174528046E0,3.842100693E0
3.781411792E0,-2.651735687E0,-1.695524139E0,-1.462758179E0,3.470758671E0
3.791413792E0,-2.370320892E0,-1.486259308E0,-4.775070190E-1,2.838203801E0
3.801416792E0,-1.620380402E0,-9.098080444E-1,-3.499722290E-1,1.890995475E0
3.811419792E0,-7.767347717E-1,-1.222956848E-1,-5.254074097E-1,9.456881549E-1
3.821422792E0,-2.273771667E-1,3.748205566E-1,-7.306306458E-1,8.520633581E-1
3.831424792E0,2.546205139E-1,4.730163574E-1,-7.691006470E-1,9.381321259E-1
3.841427792E0,3.728746033E-1,2.230361938E-2,-6.159690857E-1,7.203824233E-1
3.851430792E0,6.490502930E-1,-3.803590393E-1,-7.466473389E-1,1.059915813E0
3.861432792E0,1.220711517E0,-5.562432861E-1,-1.018332367E0,1.684204267E0
3.871435792E0,1.565893707E0,-6.918612671E-1,-1.045875092E0,2.006128067E0
3.881438792E0,1.869911499E0,-7.135661316E-1,-1.051712952E0,2.260939135E0
3.891441792E0,2.058818665E0,-6.553372192E-1,-1.072220306E0,2.412023538E0
3.901443792E0,2.105521545E0,-6.209088135E-1,-9.099577332E-1,2.376293713E0
3.911446792E0,1.789528656E0,-5.062472534E-1,-1.035546570E0,2.128627678E0
3.921449792E0,1.176104279E0,-5.075944519E-1,-1.200353851E0,1.755483629E0
3.931451792E0,2.604583740E-1,-7.505392456E-1,-1.573677521E0,1.762841077E0
3.941454792E0,-2.604583740E-1,-6.462062073E-1,-2.996917877E0,3.076838928E0
3.951457792E0,-7.815248108E-1,-8.571176147E-1,-4.975054321E0,5.108482860E0
3.961460792E0,-1.522334290E0,-1.327589264E0,-6.891369324E0,7.181292787E0
3.971462792E0,-1.785636749E0,-1.760489044E0,-4.091441803E0,4.798720278E0
3.981465792E0,-2.653831329E0,-3.363206177E0,3.138972473E0,5.311038006E0
3.991468792E0,-6.578819275E0,-9.175768890E0,-3.467389526E0,1.181094357E1
4.001470792E0,-7.163952484E0,-1.498189499E1,-1.381507141E1,2.160174972E1
4.011473792E0,-8.681945801E-1,-2.037892181E1,-8.147257690E0,2.196433527E1
4.021476792E0,5.896388397E0,-3.104319534E1,-1.159997772E1,3.366016721E1
4.031479792E0,3.537144470E0,-4.182602234E1,-1.428838715E1,4.434056318E1
4.041481792E0,-7.599995728E0,-4.617717407E1,-1.878383881E1,5.042741259E1
4.051484792E0,-1.209290268E1,-4.456831970E1,-2.249596939E1,5.136771413E1
4.061487792E0,-1.240874588E1,-2.815390366E1,-2.157164154E0,3.084270777E1
4.071490792E0,-1.306692719E1,-1.647608780E1,-6.266269226E0,2.194247446E1
4.081492792E0,-1.246892075E1,-1.547332306E1,-1.381941238E1,2.420483154E1
4.091495792E0,-1.215053284E1,-1.513248184E1,-8.832532654E0,2.132231432E1
4.101498792E0,-9.922865295E0,-1.749082764E1,-1.227971420E1,2.356233622E1
4.111500792E0,-1.017209702E1,-2.293410828E1,-1.218196747E1,2.788987651E1
4.121503792E0,-8.615034943E0,-2.923989532E1,-8.475974121E0,3.163909675E1
4.131506792E0,-5.946384430E0,-3.354763733E1,-5.427114258E0,3.450010185E1
4.141509792E0,-2.804118805E0,-3.270474014E1,-5.715265045E0,3.331857387E1
4.151511792E0,-3.526815948E0,-2.612337616E1,-6.625372467E0,2.718022761E1
4.161514792E0,-5.424719238E0,-2.006846741E1,-5.268893280E0,2.144602992E1
4.171517792E0,-5.632786560E0,-1.517559219E1,-4.081861725E0,1.669396532E1
4.181519792E0,-6.806944885E0,-1.159638519E1,-1.947749634E0,1.358691933E1
4.191523542E0,-6.433022461E0,-9.086853790E0,2.013313293E-1,1.113531428E1
4.201526542E0,-4.144431610E0,-6.979685669E0,9.565109253E-2,8.117972317E0
4.211529542E0,-2.210603027E0,-4.606071625E0,-8.065228271E-1,5.172343823E0
4.221531542E0,-8.794212341E-1,-2.917582855E0,-1.903890839E0,3.593114492E0
4.231534542E0,9.113049316E-1,-1.304387512E0,-2.279759216E0,2.780144878E0
4.241537542E0,2.769840088E0,6.258485413E-1,-2.342927856E0,3.681441491E0
4.251539542E0,3.176244965E0,7.929011536E-1,-1.277443542E0,3.514126679E0
4.261542542E0,2.412383423E0,5.010081482E-1,6.599775696E-1,2.550720160E0
4.271545542E0,1.254092102E0,7.622149658E-1,1.368005219E0,2.006279375E0
4.281548542E0,7.640112305E-1,1.283281403E0,9.021739197E-1,1.744832972E0
4.291550542E0,6.484515381E-1,1.796564026E0,1.040186920E0,2.174884026E0
4.301553542E0,6.869215393E-1,2.058668976E0,1.063538361E0,2.416835327E0
4.311556542E0,2.260299683E-1,2.007924500E0,6.918612671E-1,2.135772075E0
4.321558542E0,-5.396278381E-1,1.165177002E0,3.029699707E-1,1.319328031E0
4.331561542E0,-1.023571472E0,2.215393066E-2,-2.537223816E-1,1.054781685E0
4.341564542E0,-1.756148071E0,-6.737489319E-1,-1.336420898E0,2.307382606E0
4.351567542E0,-2.394570465E0,-1.193617859E0,-7.355703735E-1,2.774843253E0
4.361569542E0,-2.328258362E0,-1.723815308E0,1.487456818E0,3.256509481E0
4.371572542E0,-1.268013153E0,-1.602567444E0,1.957030334E0,2.829495980E0
4.381575542E0,-2.799179077E-1,-6.837780762E-1,1.357227631E0,1.545306874E0
4.391577542E0,-6.869215393E-1,-1.210981750E-1,1.087039490E0,1.291580745E0
4.401580542E0,-6.475534058E-1,2.812651062E-1,5.845344543E-1,9.165784209E-1
4.411583542E0,-2.032772827E-1,6.734495544E-1,-3.876937866E-2,7.045275160E-1
4.421586542E0,1.007405090E-1,9.363029480E-1,-8.976832581E-1,1.301017714E0
4.431588542E0,6.776408386E-1,8.524772644E-1,-1.873953094E0,2.167398162E0
4.441591542E0,7.077282715E-1,4.382885742E-1,-2.203118591E0,2.355144944E0
4.451594542E0,5.197192383E-1,-2.544708252E-3,-2.101180573E0,2.164503260E0
4.461596542E0,5.430706787E-1,-3.106040955E-1,-1.982627106E0,2.078992762E0
4.471599542E0,4.821473694E-1,-5.463638306E-1,-1.702110443E0,1.851528958E0
4.481602542E0,1.218466187E-1,-6.854246521E-1,-1.406475220E0,1.569339382E0
4.491605542E0,-2.802172852E-1,-7.704478455E-1,-1.214424591E0,1.465243562E0
4.501607542E0,-4.547543335E-1,-9.300160217E-1,-1.222507782E0,1.601953989E0
4.511610542E0,9.116043091E-2,-1.101559296E0,-1.029259644E0,1.510337221E0
4.521613542E0,-3.293151855E-2,-1.397044830E0,-1.567091217E0,2.099665122E0
4.531615542E0,-7.526348877E-1,-1.407972107E0,-2.709665222E0,3.145016748E0
4.541618542E0,-8.894503784E-1,-1.236129456E0,-4.684957581E0,4.926252687E0
4.551621542E0,-1.061592407E0,-1.392703857E0,-7.343279572E0,7.549195807E0
4.561624542E0,-1.293160858E0,-2.323767700E0,-5.915548553E0,6.485821152E0
4.571626542E0,-1.564696198E0,-4.071383514E0,-1.601669312E-1,4.364641034E0
4.581629542E0,-2.203867035E0,-8.112529907E0,1.516346741E0,8.542217443E0
4.591632542E0,-4.171974335E0,-1.487022720E1,-3.490291901E0,1.583386133E1
4.601634542E0,-3.347788239E0,-2.205438766E1,-8.065527649E0,2.372038022E1
4.611637542E0,2.560275879E0,-2.917897202E1,-1.274330017E1,3.194306059E1
4.621640542E0,1.387464752E0,-3.444532059E1,-8.987011414E0,3.562543393E1
4.631643542E0,-5.138664093E0,-3.778517532E1,-3.900888062E-1,3.813499065E1
4.641645542E0,-8.976682892E0,-4.266981766E1,-2.709620316E1,5.133710549E1
4.651648542E0,-1.033271301E1,-3.540078369E1,-1.405876465E1,3.946681274E1
4.661651542E0,-1.059122543E1,-2.571038498E1,-1.652563477E-1,2.780692830E1
4.671653542E0,-7.035369873E0,-2.150458099E1,-1.298534683E1,2.608759600E1
4.681656542E0,-8.465495911E0,-2.139740387E1,-1.184307220E1,2.587995117E1
4.691659542E0,-8.054001617E0,-2.358046417E1,-7.267088013E0,2.595603592E1
4.701662542E0,-5.629643097E0,-2.626348480E1,-8.688083038E0,2.823023737E1
4.711664542E0,-5.564528503E0,-2.862138153E1,-7.545059967E0,3.011769228E1
4.721667542E0,-6.603517914E0,-2.896177368E1,-5.511389008E0,3.021202066E1
4.731670542E0,-7.949967957E0,-2.794658478E1,-5.653593292E0,2.960028223E1
4.741673542E0,-8.871152344E0,-2.494068558E1,-5.965095520E0,2.713517101E1
4.751675542E0,-8.854087830E0,-2.098905304E1,-5.069657593E0,2.333745159E1
4.761678542E0,-7.512876892E0,-1.682905380E1,-4.666845245E0,1.901157057E1
4.771681542E0,-5.538782043E0,-1.271680527E1,-3.677253113E0,1.434982345E1
4.781683542E0,-4.222569122E0,-9.049581299E0,-2.404300232E0,1.027159536E1
4.791686542E0,-2.426753540E0,-6.381230164E0,-2.412832489E0,7.240924787E0
4.801689542E0,-1.047671356E0,-4.108206940E0,-3.025658112E0,5.208606967E0
4.811692542E0,-4.550537109E-1,-1.565744019E0,-3.530558167E0,3.888890482E0
4.821694542E0,3.251239014E-1,3.333567810E-1,-3.842210083E0,3.870324355E0
4.831697542E0,1.369651794E0,1.435215454E0,-3.275338898E0,3.829312514E0
4.841700542E0,2.237247620E0,2.017354889E0,-2.195634155E0,3.727708009E0
4.851702542E0,2.473007355E0,2.032623138E0,-7.848179626E-1,3.295946212E0
4.861705542E0,1.943558350E0,2.161505127E0,4.917274475E-1,2.948104366E0
4.871708542E0,1.407822418E0,2.279609528E0,1.222358093E0,2.944952099E0
4.881711542E0,8.714877319E-1,2.242486725E0,1.081501007E0,2.637779749E0
4.891713542E0,7.168592834E-1,2.280956726E0,5.792953491E-1,2.460128842E0
4.901716542E0,5.559439087E-1,2.273921356E0,6.827302551E-1,2.438424197E0
4.911719542E0,-5.239105225E-3,1.236279144E0,3.017724609E-1,1.272587989E0
4.921721542E0,-3.225791931E-1,-1.020877075E-1,-6.969506836E-1,7.747383373E-1
4.931724542E0,-4.751119995E-1,-8.084687805E-1,-1.740879822E0,1.977375972E0
4.941727542E0,-1.062789917E0,-1.787732391E0,-2.750081177E0,3.447964035E0
4.951730542E0,-1.703757019E0,-2.488275604E0,-8.367599487E-1,3.129611905E0
4.961732542E0,-2.035018158E0,-2.735112305E0,1.379231873E0,3.677556088E0
4.971735542E0,-1.371897125E0,-2.444865875E0,1.568288727E0,3.212320096E0
4.981738542E0,3.359014893E-1,-1.076710968E0,8.428971863E-1,1.408052551E0
4.991740542E0,9.797126770E-1,-2.903961182E-1,6.363267517E-1,1.203776794E0
5.001743542E0,8.885522461E-1,1.462458801E-1,8.415499878E-1,1.232525591E0
5.011746542E0,4.502636719E-1,5.352868652E-1,1.235381012E0,1.419660398E0
5.021748542E0,3.218307495E-2,6.831793213E-1,1.409918060E0,1.567047757E0
5.031751542E0,-8.801696777E-2,7.896080017E-1,1.231489105E0,1.465535124E0
5.041754542E0,-7.574249268E-2,9.027726746E-1,9.398954773E-1,1.305426725E0
5.051757542E0,-9.490264893E-2,5.605842590E-1,6.463558960E-1,8.608351576E-1
5.061759542E0,-3.314108276E-1,-2.600093079E-1,2.932402039E-1,5.132521739E-1
5.071762542E0,-2.001338196E-1,-1.008303223E0,-5.197192383E-1,1.151884118E0
5.081765542E0,1.371148682E-1,-1.725162506E0,-2.044149170E0,2.678345009E0
5.091767542E0,8.322692871E-2,-2.189646606E0,-2.439776459E0,3.279327393E0
5.101770542E0,3.100053406E-1,-2.283052368E0,-2.206112366E0,3.189884512E0
5.111773542E0,1.091230774E0,-2.006427612E0,-3.289110260E0,4.004345473E0
5.121776542E0,1.085392914E0,-1.540446625E0,-5.418432312E0,5.736764097E0
5.131778542E0,8.360115051E-1,-1.367705841E0,-6.909781036E0,7.093279106E0
5.141781542E0,9.264234924E-1,-1.637145538E0,-5.557343445E0,5.867075265E0
5.151784542E0,6.011499023E-1,-3.194656677E0,-9.825567627E-1,3.395972656E0
5.161786542E0,-1.916015625E0,-5.564229126E0,5.762416992E0,8.236334818E0
5.171789542E0,-4.833598480E0,-9.752220154E0,-1.130149841E-1,1.088495496E1
5.181792542E0,-9.559421082E0,-2.173764633E1,-2.728660721E1,3.617273465E1
5.191795542E0,-1.298923874E1,-2.977024246E1,-1.986758514E1,3.807503905E1
5.201797542E0,-2.424957275E-2,-3.212843857E1,1.417552185E-1,3.212876044E1
5.211800542E0,9.523795166E0,-3.678031494E1,-8.043822784E0,3.883551630E1
5.221803542E0,4.657414856E0,-3.539539490E1,-1.263028519E1,3.786884732E1
5.231805542E0,5.430706787E-1,-3.029669769E1,-1.052775742E1,3.207831811E1
5.241808542E0,-3.345991974E0,-2.612412460E1,-1.554143143E1,3.058106668E1
5.251811542E0,-9.417965240E0,-2.528946030E1,-1.212239136E1,2.958390176E1
5.261814542E0,-1.065379532E1,-2.354468857E1,-1.165221909E1,2.834836722E1
5.271816542E0,-7.399412842E0,-2.384256912E1,-1.247116608E1,2.790608170E1
5.281819542E0,-5.475912781E0,-2.802981171E1,-1.237611374E1,3.112594025E1
5.291822542E0,-5.531596985E0,-3.050895630E1,-7.861501923E0,3.198746930E1
5.301825542E0,-6.298452301E0,-2.925291824E1,-6.350244598E0,3.058969326E1
5.311827542E0,-6.005062408E0,-2.615451141E1,-6.328390045E0,2.757114003E1
5.321830542E0,-5.623356171E0,-2.426753540E1,-4.991520081E0,2.540572144E1
5.331833542E0,-5.728138275E0,-2.215931946E1,-3.693868561E0,2.318386663E1
5.341835542E0,-5.828878784E0,-1.899729492E1,-2.207010498E0,1.999359741E1
5.351838542E0,-6.202352142E0,-1.513248184E1,-1.196911011E0,1.639798081E1
5.361841542E0,-5.771248627E0,-1.131287476E1,-1.894310760E0,1.284043844E1
5.371844542E0,-4.222120056E0,-8.154293060E0,-2.482138367E0,9.512087255E0
5.381846542E0,-2.424358521E0,-5.111420746E0,-3.024759979E0,6.415084505E0
5.391849542E0,-3.158432007E-2,-2.545007629E0,-2.904709625E0,3.862046013E0
5.401852542E0,1.634600830E0,-1.727108459E0,-2.174528046E0,3.222327688E0
5.411854542E0,2.281106415E0,-1.249900818E0,-8.222401428E-1,2.727962130E0
5.421857542E0,1.639241180E0,-1.088835754E0,4.180805969E-1,2.011831587E0
5.431860542E0,1.108894043E0,-1.673519897E-1,5.602848816E-1,1.253623482E0
5.441862542E0,9.707313538E-1,9.345066833E-1,-1.649569702E-1,1.357509817E0
5.451865542E0,7.427554321E-1,1.572030945E0,-4.766088867E-1,1.802809739E0
5.461868542E0,5.294490051E-1,1.898502045E0,-5.908213806E-1,2.057594753E0
5.471871542E0,4.492158508E-1,2.188748474E0,-5.188211060E-1,2.293815621E0
5.481873542E0,3.249742126E-1,2.436034241E0,-1.722917175E-1,2.463646788E0
5.491876542E0,7.963439941E-2,2.648891602E0,2.186952209E-1,2.659096831E0
5.501879542E0,-3.282673645E-1,2.557581482E0,4.144880676E-1,2.611662853E0
5.511881542E0,-1.265169067E0,2.188149719E0,-1.184037781E-1,2.530350058E0
5.521884542E0,-2.446961517E0,1.885030060E0,-2.603535919E0,4.039722549E0
5.531887542E0,-3.238365784E0,1.346000977E0,-4.343816986E0,5.582784035E0
5.541890542E0,-3.333418121E0,3.625460815E-1,-1.864672394E0,3.836680749E0
5.551892542E0,-2.977158966E0,-4.933740234E-1,1.048419800E0,3.194695214E0
5.561895542E0,-1.992805939E0,-9.207353210E-1,1.735790405E0,2.798570594E0
5.571898542E0,-1.128652954E-1,-7.418572998E-1,1.219364319E0,1.431761213E0
5.581900542E0,6.301895142E-1,-6.935078430E-1,8.063731384E-1,1.236256280E0
5.591903542E0,7.430548096E-1,-7.358697510E-1,6.872209167E-1,1.251362189E0
5.601906542E0,7.940986633E-1,-7.162605286E-1,4.610412598E-1,1.164551792E0
5.611909542E0,8.827143860E-1,-7.017407227E-1,-1.080752563E-1,1.132830521E0
5.621911542E0,1.146914978E0,-7.282356262E-1,-1.592388611E0,2.093189571E0
5.631914542E0,1.663191376E0,-7.090754700E-1,-3.127596130E0,3.612596176E0
5.641917542E0,1.897903290E0,-7.744894409E-1,-2.615061951E0,3.322712717E0
5.651919542E0,1.377585297E0,-8.921447754E-1,-9.375004578E-1,1.890124509E0
5.661922542E0,1.115330658E0,-8.912466431E-1,-4.510121155E-1,1.497229102E0
5.671925542E0,1.064735870E0,-8.975335693E-1,-8.607101440E-2,1.395219410E0
5.681927542E0,6.860234070E-1,-1.011446686E0,5.471122742E-1,1.339023657E0
5.691930542E0,1.905537415E-1,-1.297052765E0,9.499246216E-1,1.618954413E0
5.701933542E0,-3.330574036E-1,-1.555714874E0,1.051563263E0,1.907081881E0
5.711936542E0,-5.529501343E-1,-1.999242554E0,-1.086740112E-1,2.077145801E0
5.721938542E0,-3.902384949E-1,-2.902314606E0,-2.087708588E0,3.596420901E0
5.731941542E0,1.011895752E-1,-3.876488800E0,-3.963757324E0,5.545157966E0
5.741944542E0,6.379733276E-1,-5.009782104E0,-5.515131226E0,7.478074561E0
5.751946542E0,-5.146298218E-1,-7.680079193E0,-7.493716736E0,1.074263705E1
5.761949542E0,-6.038592682E0,-1.413345932E1,-4.978497162E0,1.615564013E1
5.771952542E0,-1.217553085E1,-2.405258240E1,-8.390801239E0,2.823430213E1
5.781955542E0,-9.489366760E0,-3.269441162E1,-1.877680344E1,3.887854138E1
5.791957542E0,2.945275269E0,-3.624038773E1,-1.384949982E1,3.890821242E1
5.801960542E0,4.324656830E0,-3.557487167E1,6.877747650E0,3.649078739E1
5.811963542E0,-5.917943573E0,-3.336396927E1,-3.806434479E0,3.409788036E1
5.821965542E0,-4.806504822E0,-2.607412857E1,-2.168824905E1,3.425409196E1
5.831968542E0,-6.295159149E0,-2.492496826E1,-4.543052673E0,2.610598397E1
5.841971542E0,-9.036857758E0,-2.658591431E1,-1.588197327E0,2.812468681E1
5.851974542E0,-9.027577057E0,-2.721281067E1,-1.158306290E1,3.092250892E1
5.861976542E0,-1.037672150E1,-2.773582306E1,-1.025233017E1,3.133787650E1
5.871979542E0,-1.110286148E1,-2.718137604E1,-1.116588043E1,3.141301676E1
5.881982542E0,-8.332123260E0,-2.822500580E1,-1.350192261E1,3.237865260E1
5.891984542E0,-6.334078217E0,-2.913631073E1,-1.047371979E1,3.160291056E1
5.901987542E0,-5.474266205E0,-2.801738754E1,-8.395142212E0,2.975600793E1
5.911990542E0,-4.462520142E0,-2.475297592E1,-7.700287170E0,2.630434043E1
5.921993542E0,-4.415368195E0,-2.071931396E1,-5.933361511E0,2.199977787E1
5.931995542E0,-4.392615509E0,-1.706017319E1,-4.832700348E0,1.826744571E1
5.941998542E0,-2.624642029E0,-1.277233978E1,-2.529889069E0,1.328238488E1
5.952001542E0,-1.263522491E0,-8.355624390E0,-1.300196228E0,8.550056038E0
5.962003542E0,-8.455915833E-1,-5.109025726E0,-1.758992157E0,5.469115322E0
5.972006542E0,2.484832764E-1,-3.030747528E0,-1.557660828E0,3.416647739E0
5.982009542E0,5.016069031E-1,-1.900897064E0,-1.951940918E0,2.770395726E0
5.992012542E0,1.186283112E0,-4.734654236E-1,-3.019670563E0,3.278695996E0
6.002014542E0,2.642904053E0,5.733078003E-2,-3.336112518E0,4.256509766E0
6.012017542E0,3.124752045E0,-4.665797424E-1,-1.121318207E0,3.352480651E0
6.022020542E0,2.505040741E0,-1.199006653E-1,8.939410400E-1,2.662468003E0
6.032022542E0,1.815424805E0,9.677375793E-1,8.768765259E-1,2.236335325E0
6.042025542E0,1.038989410E0,1.581461334E0,8.415499878E-1,2.070923786E0
6.052028542E0,6.472540283E-1,1.853894806E0,6.286926270E-1,2.061823986E0
6.062030542E0,4.541555786E-1,2.012115784E0,2.969824219E-1,2.084002345E0
6.072033542E0,-1.857637024E-1,1.792372742E0,1.047821045E-3,1.801973722E0
6.082036542E0,-1.522483978E0,3.161425781E-1,-4.270319824E0,4.544616045E0
6.092038542E0,-3.707789612E0,-1.686692505E0,-1.329894470E1,1.390879454E1
6.102041542E0,-3.453767853E0,-1.522783356E0,-5.045707397E0,6.301312932E0
6.112044542E0,-1.619931335E0,-7.957452393E-1,1.228794708E0,2.183420356E0
6.122047542E0,4.312532043E-1,-1.207838287E0,4.284540253E0,4.472374965E0
6.132049542E0,1.041384430E0,-1.366807709E0,5.584137726E0,5.842537033E0
6.142052542E0,-2.546205139E-1,-5.869294739E-1,3.029849396E0,3.096660326E0
6.152055542E0,-8.752299500E-1,-5.508544922E-2,7.806266785E-1,1.174069795E0
6.162057542E0,-8.988807678E-1,1.249900818E-1,-9.445358276E-2,9.124311670E-1
6.172060542E0,-1.108894043E0,1.511856079E-1,-3.748205566E-1,1.180251472E0
6.182063542E0,-1.149010620E0,2.086660767E-1,-3.826043701E-1,1.228882843E0
6.192065583E0,-8.455915833E-1,4.800517273E-1,-2.926414490E-1,1.015437740E0
6.202067583E0,-5.131329346E-1,8.728349304E-1,-1.715432739E-1,1.026924203E0
6.212070583E0,-2.821632385E-1,1.158740387E0,-4.272116089E-1,1.266809037E0
6.222073583E0,1.053808594E-1,1.300645294E0,-1.276096344E0,1.825158948E0
6.232075583E0,-1.055305481E-1,9.843530273E-1,-5.107379150E-1,1.113975223E0
6.242078583E0,-7.670050049E-1,4.456233215E-1,1.197509766E0,1.490270600E0
6.252081583E0,-8.996292114E-2,-2.799179077E-2,1.180295563E0,1.184050034E0
6.262084583E0,7.508386230E-1,-1.045426025E0,2.761756897E-1,1.316414533E0
6.272086583E0,7.077282715E-1,-1.875150604E0,-1.948947144E-1,2.013716227E0
6.282089583E0,4.005670166E-1,-2.440225525E0,-4.087998962E-1,2.506446070E0
6.292092583E0,-6.541397095E-2,-2.688110046E0,-7.176077271E-1,2.783015533E0
6.302094583E0,-1.234931946E-1,-2.390528870E0,-9.244775391E-1,2.566035379E0
6.312097583E0,1.472937012E-1,-2.079326019E0,-1.551224213E0,2.598381936E0
6.322100583E0,-4.730163574E-2,-2.024689636E0,-1.437909851E0,2.483785479E0
6.332102583E0,-6.081852722E-1,-2.139351196E0,-2.025288391E-1,2.233322815E0
6.342105583E0,-1.263073425E0,-2.446362762E0,2.784359894E0,3.915699843E0
6.352108583E0,-2.890189819E0,-4.784799957E0,-3.601510620E-1,5.601536986E0
6.362111583E0,-4.748724976E0,-1.126617188E1,-1.219753510E1,1.727011523E1
6.372113583E0,-4.287983093E0,-2.004930725E1,-1.180355438E1,2.365767141E1
6.382116583E0,-3.835623779E0,-2.901476349E1,-7.242988129E0,3.015011421E1
6.392119583E0,-1.571432190E0,-4.156062424E1,-1.773975998E1,4.521563856E1
6.402121583E0,1.750759277E0,-5.899262421E1,-3.774281342E1,7.005508428E1
6.412124583E0,4.976401520E0,-5.877512650E1,-2.345472565E1,6.347758834E1
6.422127583E0,-2.542911987E0,-3.000435562E1,4.530927887E0,3.045089597E1
6.432130583E0,-8.682843933E0,-1.493055176E1,-5.066514130E0,1.799951999E1
6.442132583E0,-1.072429871E1,-1.651485718E1,-2.282259018E1,3.014335271E1
6.452135583E0,-1.001013382E1,-1.407822418E1,-2.994971924E0,1.753194319E1
6.462138583E0,-8.823701019E0,-1.504087234E1,-5.132826233E-1,1.744560115E1
6.472140583E0,-1.065110092E1,-2.075224548E1,-1.392284729E1,2.716518581E1
6.482143583E0,-1.122650436E1,-2.836286911E1,-1.815604431E1,3.549829136E1
6.492146583E0,-3.282523956E0,-3.612946838E1,-5.368585968E0,3.667335769E1
6.502148583E0,2.887944489E0,-3.532998093E1,-2.849175110E0,3.556213681E1
6.512151583E0,3.080593872E-1,-2.687840607E1,-8.091723175E0,2.807168675E1
6.522154583E0,5.418731689E-1,-2.137345367E1,-6.541846161E0,2.235875443E1
6.532157583E0,-1.728455658E0,-1.577285019E1,-5.328170013E0,1.673797353E1
6.542159583E0,-6.082900543E0,-1.088626190E1,-3.960763550E0,1.308434275E1
6.552162583E0,-6.412664795E0,-7.506440277E0,-3.013533325E0,1.032232040E1
6.562165583E0,-4.782255249E0,-4.825515289E0,-2.301314392E0,7.172977834E0
6.572167583E0,-3.624263306E0,-3.047961731E0,-2.168540497E0,5.208447284E0
6.582170583E0,-1.678759003E0,-2.328857117E0,-8.843609619E-1,3.003980954E0
6.592173583E0,3.607498169E-2,-1.500180359E0,-4.128414917E-1,1.556367762E0
6.602176583E0,1.794019318E0,-7.987390137E-1,-2.083666992E-1,1.974817968E0
6.612178583E0,2.899171143E0,-6.245013428E-1,-1.462458801E-1,2.969273160E0
6.622181583E0,2.951412506E0,-2.104623413E-1,6.179150391E-1,3.022738688E0
6.632184583E0,1.879491577E0,3.888912964E-1,1.682052155E0,2.552062789E0
6.642186583E0,9.877958679E-1,9.635462952E-1,1.709295502E0,2.196782477E0
6.652189583E0,6.345304871E-1,1.353784790E0,1.094224548E0,1.852751888E0
6.662192583E0,3.644920349E-1,1.535955963E0,6.174659729E-1,1.695075040E0
6.672195583E0,2.309696960E-1,1.656156006E0,4.176315308E-1,1.723547450E0
6.682197583E0,1.751358032E-1,1.667232971E0,4.082011414E-1,1.725388797E0
6.692200583E0,-3.305126953E-1,8.963360596E-1,5.023553467E-1,1.079359934E0
6.702203583E0,-1.050964508E0,-2.900967407E-1,4.008663940E-1,1.161626610E0
6.712205583E0,-1.784888306E0,-1.240919495E0,-2.951861572E-1,2.193819118E0
6.722208583E0,-3.319646759E0,-1.735341339E0,-5.270090790E0,6.465703450E0
6.732211583E0,-4.074077911E0,-1.367256775E0,-5.608986053E0,7.065990834E0
6.742213583E0,-2.550246735E0,-4.001179504E-1,-7.402107239E-1,2.685472900E0
6.752216583E0,-8.653504944E-1,1.962419128E-1,2.752775574E-1,9.290425717E-1
6.762219583E0,-1.052311707E-1,2.586621094E-1,3.926335144E-1,4.818098824E-1
6.772222583E0,2.472857666E-1,4.367916870E-1,2.820135498E-1,5.757333328E-1
6.782224583E0,4.860392761E-1,5.782475281E-1,-3.233276367E-2,7.560752537E-1
6.792227583E0,6.319857788E-1,5.260061646E-1,-1.945953369E-1,8.449590848E-1
6.802230583E0,8.931925964E-1,3.866459656E-1,-5.298980713E-2,9.747286990E-1
6.812232583E0,1.093625793E0,2.448907471E-1,-9.026229858E-2,1.124338088E0
6.822235583E0,1.023272095E0,6.496490479E-2,-2.481838989E-1,1.054941452E0
6.832238583E0,1.009351044E0,-1.564247131E-1,-3.270698547E-1,1.072489119E0
6.842241583E0,1.006207581E0,-4.296066284E-1,-3.390449524E-1,1.145411293E0
6.852243583E0,1.015488281E0,-6.842271423E-1,-2.170486450E-1,1.243580856E0
6.862246583E0,9.991722107E-1,-1.040785675E0,-3.891906738E-3,1.442773397E0
6.872249583E0,1.049617310E0,-1.551523590E0,-1.654060364E-1,1.880500227E0
6.882251583E0,3.664379883E-1,-2.229014740E0,-8.810678101E-1,2.424678122E0
6.892254583E0,-9.066645813E-1,-2.921774139E0,-1.875599670E0,3.588408966E0
6.902257583E0,-1.284927979E0,-2.816542969E0,-1.815873871E0,3.589060061E0
6.912260583E0,-1.296903076E0,-2.413281555E0,-1.697320404E0,3.222853085E0
6.922262583E0,-1.078806610E0,-2.992127838E0,-3.797453156E0,4.953514224E0
6.932265583E0,-1.309177551E0,-3.921694794E0,-2.771935730E0,4.977676527E0
6.942268583E0,-4.208348694E0,-6.195167084E0,-3.173400879E-2,7.489412592E0
6.952270583E0,-7.491321716E0,-1.063807800E1,-6.167175293E0,1.439870327E1
6.962273583E0,-9.769134979E0,-1.701272186E1,-8.697363739E0,2.145956289E1
6.972276583E0,-4.888384552E0,-2.208926514E1,-5.089117126E0,2.318902868E1
6.982278583E0,2.642005920E-1,-2.973461655E1,-5.902226257E0,3.031589514E1
6.992281583E0,-5.709127808E-1,-3.814293137E1,-7.068750458E0,3.879660278E1
7.002284583E0,6.415957947E0,-4.173740662E1,-2.527464111E1,4.921364761E1
7.012287583E0,8.368347931E0,-3.945989273E1,-2.248369492E1,4.618039539E1
7.022289583E0,-3.819008331E0,-3.311354004E1,-5.110073547E0,3.372245854E1
7.032292583E0,-5.994434509E0,-2.874128220E1,-1.287367905E1,3.205816837E1
7.042295583E0,-4.546645203E0,-2.767774384E1,-2.010499146E1,3.451000098E1
7.052297583E0,-7.434290314E0,-2.391142593E1,-9.823322296E0,2.689837585E1
7.062300583E0,-8.687035217E0,-2.436213867E1,-5.802683258E0,2.650753694E1
7.072303583E0,-8.666228485E0,-2.732373001E1,-1.113968491E1,3.075357406E1
7.082306583E0,-7.905959473E0,-2.912508408E1,-1.003707779E1,3.180436524E1
7.092308583E0,-6.395899658E0,-2.854578873E1,-6.114335175E0,2.988569359E1
7.102311583E0,-5.413642273E0,-2.591680573E1,-5.326673126E0,2.700669895E1
7.112314583E0,-4.123924255E0,-2.374422363E1,-5.272186432E0,2.466963431E1
7.122316583E0,-1.483415222E0,-1.989348129E1,-3.289409637E0,2.021809423E1
7.132319583E0,-6.991960144E-1,-1.436577621E1,-4.161795502E0,1.497280679E1
7.142322583E0,-3.329077148E-1,-9.992769928E0,-1.212927704E0,1.007161715E1
7.152325583E0,5.966592407E-1,-6.200555878E0,-1.470092926E0,6.400317856E0
7.162327583E0,1.115630035E0,-2.967878265E0,-1.589245148E0,3.546636704E0
7.172330583E0,1.725761261E0,-7.174580383E-1,-1.553469543E0,2.430280969E0
7.182333583E0,3.710484009E0,1.073268127E-1,-1.404678955E0,3.968920961E0
7.192335917E0,4.374802551E0,-3.582051086E-1,-8.408015442E-1,4.469245518E0
7.202338917E0,4.148622894E0,-9.354048157E-1,2.499801636E-2,4.252843636E0
7.212341917E0,3.090922394E0,-7.535330200E-1,6.474037170E-1,3.246651326E0
7.222344917E0,1.340911560E0,1.513352966E-1,2.002835083E-1,1.364206607E0
7.232346917E0,3.963757324E-1,8.274792480E-1,-4.375401306E-1,1.016502333E0
7.242349917E0,-2.365081787E-2,1.192869415E0,-3.803590393E-1,1.252265867E0
7.252352917E0,-4.700225830E-1,1.241368561E0,-1.224453735E-1,1.333007878E0
7.262354917E0,-1.090781708E0,8.901988220E-1,1.695973206E-1,1.418105048E0
7.272357917E0,-2.092947693E0,7.499404907E-2,-2.392025757E-1,2.107907025E0
7.282360917E0,-4.621788940E0,-9.377998352E-1,-6.524931335E0,8.050784463E0
7.292363917E0,-7.270979919E0,-1.630110168E0,-8.827293549E0,1.155186217E1
7.302365917E0,-6.941065979E0,-1.348246307E0,-9.163943481E-1,7.129932933E0
7.312368917E0,-4.950056305E0,-4.667294312E-1,1.629960480E0,5.232367050E0
7.322371917E0,-2.264490967E0,1.471440125E-1,1.937570801E0,2.983915432E0
7.332373917E0,-3.068618774E-1,1.552272034E-1,1.905687103E0,1.936466636E0
7.342376917E0,7.846682739E-1,6.047424316E-2,1.654060364E0,1.831741554E0
7.352379917E0,1.198407898E0,-1.945953369E-2,1.469194794E0,1.896073180E0
7.362382917E0,1.218765564E0,2.200424194E-2,1.346000977E0,1.815927398E0
7.372384917E0,1.096769257E0,2.371069336E-1,1.106798401E0,1.576110783E0
7.382387917E0,9.602531433E-1,3.860472107E-1,6.888674927E-1,1.243244534E0
7.392390917E0,1.049018555E0,5.246589661E-1,-7.119195557E-1,1.372055543E0
7.402392917E0,1.954036560E0,6.758445740E-1,-3.984114990E0,4.488674306E0
7.412395917E0,2.453398132E0,4.013154602E-1,-1.865420837E0,3.108055887E0
7.422398917E0,2.389031982E0,1.902543640E-1,1.088536377E0,2.632219972E0
7.432401917E0,2.323917389E0,1.077758789E-1,1.708547058E0,2.886406195E0
7.442403917E0,1.911375275E0,-7.634124756E-3,2.070344696E0,2.817754581E0
7.452406917E0,1.711391144E0,-8.173004150E-2,1.487905884E0,2.269229686E0
7.462409917E0,1.652563477E0,-3.866459656E-1,5.969586182E-1,1.799116655E0
7.472411917E0,1.564396820E0,-9.051676941E-1,-3.155438232E-1,1.834729917E0
7.482414917E0,1.216220856E0,-1.484013977E0,-1.192570038E0,2.259140091E0
7.492417917E0,8.339158630E-1,-2.198927307E0,-2.030078430E0,3.106753193E0
7.502419917E0,6.840774536E-1,-2.677332458E0,-3.251538391E0,4.267150450E0
7.512422917E0,4.426295471E-1,-3.037932587E0,-5.163063354E0,6.006844306E0
7.522425917E0,-1.047821045E-2,-3.137176208E0,-7.542365570E0,8.168798121E0
7.532428917E0,2.836601257E-1,-3.173400879E0,-7.959997101E0,8.573942503E0
7.542430917E0,-9.789642334E-2,-3.259920959E0,-1.612297211E0,3.638154844E0
7.552433917E0,-2.742147675E0,-4.728816376E0,6.408174133E0,8.422931432E0
7.562436917E0,-6.501130829E0,-7.371421051E0,5.766608276E0,1.139545178E1
7.572438917E0,-1.307171722E1,-1.561567703E1,-1.367017273E1,2.452738842E1
7.582441917E0,-1.194081894E1,-2.733705231E1,-2.046005310E1,3.617335150E1
7.592444917E0,4.725672913E-1,-4.101411072E1,-5.190007324E0,4.134388436E1
7.602447917E0,-1.428629150E0,-5.673412079E1,-9.686357117E-1,5.676037084E1
7.612449917E0,-2.625091095E0,-6.036437164E1,-2.415392166E1,6.507042645E1
7.622452917E0,-4.169130249E0,-4.056968491E1,-1.594139969E1,4.378823135E1
7.632455917E0,-6.640940094E0,-2.972518616E1,-1.918859711E0,3.051836824E1
7.642457917E0,-5.412594452E0,-2.709919693E1,-8.584348755E0,2.893706441E1
7.652460917E0,-3.837420044E0,-2.969764343E1,-1.237461685E1,3.240072469E1
7.662463917E0,-3.028202820E0,-3.096894974E1,-8.437354431E0,3.224026690E1
7.672466917E0,-4.220323792E0,-3.144660645E1,-8.010442200E0,3.272410998E1
7.682468917E0,-5.060376892E0,-3.071043732E1,-6.545289001E0,3.180533261E1
7.692471917E0,-5.115162964E0,-2.784419769E1,-5.875282288E0,2.891337371E1
7.702474917E0,-6.276747437E0,-2.316777237E1,-5.110821991E0,2.454106225E1
7.712476917E0,-7.499704285E0,-1.815155365E1,-3.882476349E0,2.001994223E1
7.722479917E0,-6.406078491E0,-1.287218216E1,-3.416495361E0,1.477847610E1
7.732482917E0,-3.828289032E0,-7.344028015E0,-3.322640533E0,8.923591458E0
7.742485917E0,-2.617007904E0,-3.967349854E0,-1.835183716E-1,4.756287862E0
7.752487917E0,1.309776306E-1,-2.132914581E0,1.331331482E0,2.517721840E0
7.762490917E0,3.225941620E0,-9.496252441E-1,1.667232971E0,3.753418871E0
7.772493917E0,4.885690155E0,-3.197351074E-1,1.573976898E0,5.142917665E0
7.782495917E0,4.670138397E0,-4.281097412E-2,2.408940582E0,5.254999539E0
7.792498917E0,3.840114441E0,2.739303589E-1,2.378553772E0,4.525376759E0
7.802501917E0,2.810256042E0,7.047344971E-1,1.232686615E0,3.148603822E0
7.812504917E0,1.723815308E0,1.377285919E0,1.901046753E-2,2.206539625E0
7.822506917E0,1.232387238E0,1.629212036E0,-5.614823914E-1,2.118577975E0
7.832509917E0,1.187929688E0,1.820364532E0,-8.104147339E-1,2.319843963E0
7.842512917E0,1.220112762E0,1.971250763E0,-1.745370483E0,2.901865408E0
7.852514917E0,5.704637146E-1,1.880240021E0,-3.525917816E0,4.036437517E0
7.862517917E0,-8.165519714E-1,1.125359802E0,-2.020797729E0,2.452919744E0
7.872520917E0,-9.819580078E-1,7.997868347E-1,1.834884338E0,2.229506906E0
7.882523917E0,-9.885443115E-1,6.682104492E-1,3.494034119E0,3.692153773E0
7.892525917E0,-8.668473816E-1,3.571572876E-1,3.096311188E0,3.235139670E0
7.902528917E0,-6.876699829E-1,3.866459656E-1,2.115251312E0,2.257581277E0
7.912531917E0,-5.703140259E-1,5.700146484E-1,9.879455566E-1,1.275229866E0
7.922533917E0,-1.739382935E-1,5.047503662E-1,6.047424316E-2,5.372937709E-1
7.932536917E0,1.471440125E-1,4.460723877E-2,-1.675016785E-1,2.273718946E-1
7.942539917E0,2.905458069E-1,-2.561174011E-1,4.460723877E-2,3.898753580E-1
7.952542917E0,4.390370178E-1,-1.944456482E-1,3.691323853E-1,6.056577672E-1
7.962544917E0,5.269042969E-1,-5.463638306E-2,4.969665527E-1,7.263532384E-1
7.972547917E0,5.429209900E-1,-3.457809448E-2,5.084925842E-1,7.446633832E-1
7.982550917E0,5.044509888E-1,-1.709445190E-1,4.314028931E-1,6.854205168E-1
7.992552917E0,3.755690002E-1,-3.092568970E-1,2.092648315E-1,5.296070921E-1
8.002555917E0,1.775308228E-1,-4.477189636E-1,-2.001338196E-1,5.215582510E-1
8.012558917E0,9.595046997E-2,-6.837780762E-1,-1.038540344E0,1.247126696E0
8.022561917E0,8.726852417E-2,-1.015039215E0,-2.483485565E0,2.684328772E0
8.032563917E0,-2.885998535E-1,-1.298549652E0,-3.464844818E0,3.711424348E0
8.042566917E0,-1.057850189E0,-1.441502380E0,-2.831811218E0,3.349049255E0
8.052569917E0,-1.519490204E0,-1.560804291E0,-2.056124268E0,2.995431107E0
8.062571917E0,-1.736987915E0,-1.857786713E0,-1.176703033E0,2.802343397E0
8.072574917E0,-1.737436981E0,-1.849853210E0,-1.002615051E0,2.728714185E0
8.082577917E0,-1.958676910E0,-1.475781097E0,-2.189347229E0,3.287489373E0
8.092580917E0,-2.935096436E0,-1.432521057E0,-4.481380920E0,5.545239636E0
8.102582917E0,-4.211791534E0,-1.609303436E0,-7.668702850E0,8.895956884E0
8.112585917E0,-4.843477936E0,-2.919229431E0,-1.188049438E1,1.315778575E1
8.122588917E0,-2.312840424E0,-8.284971313E0,-1.659314438E1,1.869016910E1
8.132590917E0,-9.340576172E-2,-1.585907089E1,-1.092338470E1,1.925718535E1
8.142593917E0,-4.706213379E-1,-2.381158356E1,-6.126759338E-1,2.382411316E1
8.152596917E0,-3.951183472E0,-2.882465881E1,-7.755671997E0,3.011018523E1
8.162599917E0,-6.539900208E0,-3.517056244E1,-2.295341812E1,4.250409581E1
8.172601917E0,5.492528229E0,-4.065830063E1,-1.035112473E1,4.231324922E1
8.182604917E0,1.374142456E0,-3.463886810E1,7.395520935E0,3.544620122E1
8.192608542E0,-2.192490692E0,-2.504307266E1,-1.739921814E1,3.057278685E1
8.202610542E0,-2.145189056E0,-1.522454041E1,-9.077872467E0,1.785486587E1
8.212613542E0,-7.157366180E0,-1.296214508E1,-7.061565399E0,1.640459697E1
8.222616542E0,-9.430389404E0,-1.776161453E1,-1.229363525E1,2.356991012E1
8.232619542E0,-1.013317795E1,-2.133273834E1,-1.861648682E1,3.007225635E1
8.242621542E0,-1.014111145E1,-2.622531418E1,-1.821098007E1,3.349998568E1
8.252624542E0,-9.574389954E0,-3.061478622E1,-1.277638138E1,3.452781487E1
8.262627542E0,-7.701185303E0,-2.917702606E1,-9.769584045E0,3.171832085E1
8.272629542E0,-7.018904114E0,-2.441108688E1,-7.503596191E0,2.648528145E1
8.282632542E0,-4.425996094E0,-2.189002945E1,-6.348747711E0,2.321786873E1
8.292635542E0,-2.775228882E0,-2.109338608E1,-6.773264923E0,2.232733637E1
8.302638542E0,-2.490071869E0,-2.049448151E1,-6.139482880E0,2.153874370E1
8.312640542E0,-2.042352905E0,-1.925820236E1,-5.021158447E0,2.000653883E1
8.322643542E0,-2.096091156E0,-1.647638718E1,-4.348457336E0,1.716898406E1
8.332646542E0,-3.797752533E0,-1.266965332E1,-3.072211304E0,1.357871577E1
8.342648542E0,-4.185895386E0,-8.715476074E0,-1.739981689E0,9.823888215E0
8.352651542E0,-3.398383026E0,-5.522615662E0,-1.679806824E0,6.698510424E0
8.362654542E0,-2.469863892E0,-3.748954010E0,-2.264640656E0,5.028268202E0
8.372657542E0,-1.656605072E0,-2.436483307E0,-2.414778442E0,3.809454842E0
8.382659542E0,-7.093748474E-1,-1.134490814E0,-2.170486450E0,2.549763423E0
8.392662542E0,2.258802795E-1,7.110214233E-2,-1.373992767E0,1.394250171E0
8.402665542E0,2.647993469E-1,4.099974060E-1,-4.198768616E-1,6.438269534E-1
8.412667542E0,8.876541138E-1,1.137634277E-2,-1.887574768E-1,9.075729348E-1
8.422670542E0,1.149459686E0,3.248245239E-2,-3.736230469E-1,1.209093405E0
8.432673542E0,1.094673615E0,6.411167908E-1,3.448828125E-1,1.314642619E0
8.442676542E0,5.727090454E-1,1.246757355E0,3.138972473E-1,1.407455518E0
8.452678542E0,-1.603166199E-1,1.568288727E0,1.681004333E-1,1.585398595E0
8.462681542E0,-7.816744995E-1,1.651515656E0,2.332150269E-1,1.841984862E0
8.472684542E0,-1.032403107E0,1.406624908E0,9.475296021E-2,1.747406058E0
8.482686542E0,-1.146615601E0,8.475375366E-1,-1.434017944E-1,1.433042667E0
8.492689542E0,-9.602531433E-1,4.598437500E-1,-2.868035889E-1,1.102632610E0
8.502692542E0,-3.275189209E-1,4.730163574E-2,-1.911375275E0,1.939809663E0
8.512695542E0,1.155596924E-1,-2.300715637E-1,-4.012705536E0,4.020956688E0
8.522697542E0,-4.589456177E-1,-3.917353821E-1,-1.150507507E0,1.299136334E0
8.532700542E0,-6.975494385E-2,-5.553451538E-1,1.199455719E0,1.323619286E0
8.542703542E0,1.014590149E0,-7.644602966E-1,1.729952545E0,2.146282489E0
8.552705542E0,1.224902802E0,-8.208929443E-1,1.760638733E0,2.296541061E0
8.562708542E0,1.233285370E0,-5.724096680E-1,1.651066589E0,2.138847006E0
8.572711542E0,8.997789001E-1,-4.727169800E-1,1.271455994E0,1.627778780E0
8.582714542E0,5.706134033E-1,-3.977229309E-1,7.200027466E-1,1.001092973E0
8.592716542E0,4.062551880E-1,-1.968406677E-1,4.031117249E-1,6.052178029E-1
8.602719542E0,2.484832764E-1,5.538482666E-2,1.697470093E-1,3.059827852E-1
8.612722542E0,-9.849517822E-2,1.173559570E-1,-4.099974060E-1,4.376889235E-1
8.622724542E0,-6.351292419E-1,-1.472937012E-1,-1.533710632E0,1.666539196E0
8.632727542E0,-7.701484680E-1,-6.432124329E-1,-1.596729584E0,1.885840995E0
8.642730542E0,-1.610650635E-1,-9.753717041E-1,-5.533992004E-1,1.132935387E0
8.652733542E0,5.498066711E-1,-1.193318481E0,-1.749861145E-1,1.325487274E0
8.662735542E0,9.002279663E-1,-1.300495605E0,-6.152206421E-2,1.582872129E0
8.672738542E0,6.694079590E-1,-1.223555603E0,-5.481600952E-1,1.498557580E0
8.682741542E0,-1.278341675E-1,-1.147064667E0,-1.993554382E0,2.303553342E0
8.692743542E0,-4.571493530E-1,-1.330433350E0,-3.861819305E0,4.110071383E0
8.702746542E0,5.420228577E-1,-2.035916290E0,-5.368136902E0,5.766770129E0
8.712749542E0,2.544708252E-1,-5.364694061E0,-7.698640594E0,9.386893244E0
8.722752542E0,-5.151836700E0,-1.332154770E1,-6.327192535E0,1.562172909E1
8.732754542E0,-1.706137070E1,-2.533092407E1,-1.249376907E1,3.299758097E1
8.742757542E0,-1.739517654E1,-3.626448761E1,-1.545341446E1,4.308727477E1
8.752760542E0,-1.282233582E0,-4.542064728E1,-1.477637238E1,4.778096381E1
8.762763542E0,6.750961304E-1,-4.784305984E1,7.162904663E0,4.838100178E1
8.772765542E0,-3.191213837E0,-4.067416763E1,-4.121529236E0,4.100681360E1
8.782768542E0,-5.508544922E-1,-2.923555435E1,-2.212040039E1,3.666514956E1
8.792771542E0,-6.736740875E0,-2.759825912E1,-8.182135162E0,2.956340508E1
8.802773542E0,-7.827672272E0,-2.781949905E1,-1.821711731E-1,2.890034891E1
8.812776542E0,-4.361330566E0,-3.100846756E1,-9.149872742E0,3.262309666E1
8.822779542E0,-3.976480865E0,-3.383788376E1,-1.035905823E1,3.561074086E1
8.832782542E0,-6.520590363E0,-3.241778687E1,-6.769822083E0,3.375294794E1
8.842784542E0,-7.229965210E0,-2.891701675E1,-5.189408569E0,3.025551547E1
8.852787542E0,-6.366560669E0,-2.435076233E1,-4.951553192E0,2.565171729E1
8.862790542E0,-5.982758789E0,-1.866558472E1,-4.744084625E0,2.016689848E1
8.872792542E0,-6.109395447E0,-1.368379440E1,-4.760700073E0,1.572371480E1
8.882795542E0,-6.349645844E0,-9.903256073E0,-4.668641510E0,1.265656734E1
8.892798542E0,-5.989195404E0,-6.585405579E0,-3.704346771E0,9.641587692E0
8.902801542E0,-4.248165894E0,-3.687731323E0,-4.417463837E0,7.152640248E0
8.912803542E0,-1.249900818E0,-2.026036835E0,-3.496878204E0,4.230275935E0
8.922806542E0,1.273401947E0,-1.842518463E0,-4.818479919E-1,2.290983259E0
8.932809542E0,3.209326172E0,-2.296374664E0,1.783541107E0,4.330603879E0
8.942811542E0,4.780908051E0,-1.966909790E0,2.175126801E0,5.608653360E0
8.952814542E0,4.369713135E0,-2.462379456E-1,1.725312195E0,4.704437073E0
8.962817542E0,2.869083710E0,1.029708710E0,1.109343109E0,3.243853186E0
8.972820542E0,1.603764954E0,1.323397980E0,1.317260742E-1,2.083457702E0
8.982822542E0,6.911128235E-1,1.473236389E0,-1.041384430E0,1.931979276E0
8.992825542E0,-4.436773682E-1,2.031874695E0,-6.464307404E0,6.790628439E0
9.002828542E0,-1.988764343E0,1.921554108E0,-8.561147003E0,8.996710055E0
9.012830542E0,-2.628234558E0,1.138382721E0,-2.827320557E0,4.024583661E0
9.022833542E0,-2.220332794E0,1.104403381E0,2.921474762E0,3.832048973E0
9.032836542E0,3.635939026E-1,5.248086548E-1,5.963748322E0,5.997826164E0
9.042839542E0,1.629810791E0,3.173400879E-1,5.113217010E0,5.376055817E0
9.052841542E0,1.361718292E0,9.134005737E-1,3.361110535E0,3.739738138E0
9.062844542E0,8.509803772E-1,1.341510315E0,2.261347504E0,2.763604541E0
9.072847542E0,7.430548096E-1,1.178798676E0,1.653012543E0,2.161977621E0
9.082849542E0,6.243516541E-1,5.683680725E-1,1.371747437E0,1.610760157E0
9.092852542E0,4.462220764E-1,1.016386414E-1,1.260678406E0,1.341176572E0
9.102855542E0,3.168910217E-1,-1.296304321E-1,1.195863190E0,1.243910261E0
9.112858542E0,1.764830017E-1,-3.668870544E-1,1.139131165E0,1.209699207E0
9.122860542E0,1.236428833E-1,-5.490582275E-1,1.066083069E0,1.205522961E0
9.132863542E0,2.125579834E-2,-5.824388123E-1,1.099164276E0,1.244125751E0
9.142866542E0,-2.071691895E-1,-5.530998230E-1,1.030457153E0,1.187720688E0
9.152868542E0,-6.352789307E-1,-5.722599792E-1,8.120613098E-1,1.179196495E0
9.162871542E0,-9.834548950E-1,-6.578819275E-1,3.607498169E-1,1.236985283E0
9.172874542E0,-1.416803741E0,-9.407936096E-1,-1.586700439E-1,1.708098838E0
9.182876542E0,-1.672621765E0,-1.790426788E0,-4.742737427E0,5.338244089E0
9.192879333E0,-2.228415985E0,-2.756368103E0,-7.458839264E0,8.258189032E0
9.202882333E0,-3.544628906E0,-2.439776459E0,-2.225422211E0,4.844523430E0
9.212885333E0,-2.729873199E0,-1.516646118E0,-1.696272583E0,3.553837898E0
9.222887333E0,-2.087858276E0,-3.836521912E-1,-1.532662811E0,2.618281207E0
9.232890333E0,-1.718426514E0,7.647596741E-1,-3.690276031E0,4.141978299E0
9.242893333E0,-8.494834900E-1,1.007405090E0,-7.008126526E0,7.130941356E0
9.252895333E0,1.226100311E0,-4.625381470E-2,-6.730903015E0,6.841821160E0
9.262898333E0,2.194137268E0,-1.670975189E0,-1.493594055E0,3.136434223E0
9.272901333E0,-3.015479279E0,-7.623047791E0,-4.776118011E0,9.487638070E0
9.282904333E0,-5.328170013E0,-1.524429932E1,-8.900191956E0,1.843885772E1
9.292906333E0,6.845265198E-1,-1.988315277E1,4.033063202E0,2.029960442E1
9.302909333E0,-5.090913391E-1,-2.937566299E1,-2.535173080E1,3.880591456E1
9.312912333E0,-1.453327789E0,-4.480273224E1,-2.334455475E1,5.054072827E1
9.322915333E0,-9.380992126E0,-5.780424545E1,-1.913171539E1,6.160646346E1
9.332917333E0,-3.397634583E0,-5.200186157E1,-1.890179352E1,5.543478444E1
9.342920333E0,-4.192781067E0,-2.439941116E1,-9.702822876E-1,2.477603935E1
9.352923333E0,-1.054332504E1,-1.410292282E1,-6.124214630E0,1.864296489E1
9.362925333E0,-1.131631760E1,-1.461351105E1,-9.295669556E0,2.068872209E1
9.372928333E0,-1.011386810E1,-1.802237228E1,-8.273295593E0,2.226080975E1
9.382931333E0,-7.686515808E0,-2.357522507E1,-9.732760620E0,2.663832561E1
9.392934333E0,-6.315965881E0,-3.105397293E1,-8.833730164E0,3.289795508E1
9.402936333E0,-5.096900940E0,-3.489229111E1,-5.930667114E0,3.575784096E1
9.412939333E0,-5.024601288E0,-3.018009018E1,-6.357279968E0,3.124899150E1
9.422942333E0,-4.203408966E0,-2.351669678E1,-6.180946655E0,2.467605673E1
9.432944333E0,-3.185675354E0,-1.974319382E1,-4.897814941E0,2.058958039E1
9.442947333E0,-3.065774689E0,-1.570204742E1,-5.073399811E0,1.678370202E1
9.452950333E0,-3.455264740E0,-1.189067322E1,-4.213887177E0,1.307990096E1
9.462953333E0,-3.250041504E0,-8.847950592E0,-3.376977539E0,1.001264085E1
9.472955333E0,-2.630330200E0,-6.010750580E0,-3.004402313E0,7.216245059E0
9.482958333E0,-1.539698181E0,-3.881278839E0,-3.442840576E0,5.411852469E0
9.492961333E0,-7.526348877E-1,-2.572550354E0,-3.979474640E0,4.797988433E0
9.502963333E0,-6.039939880E-1,-1.605860596E0,-3.381318512E0,3.791689844E0
9.512966333E0,-4.912783813E-1,-7.436535645E-1,-2.131866760E0,2.310677597E0
9.522969333E0,6.189628601E-1,-9.099577332E-1,1.212478638E-1,1.107176202E0
9.532972333E0,1.323547668E0,-9.689350891E-1,1.960622864E0,2.556297254E0
9.542974333E0,1.482966156E0,2.487826538E-1,1.799258423E0,2.344869357E0
9.552977333E0,1.165027313E0,1.311871948E0,7.795788574E-1,1.919906207E0
9.562980333E0,7.330256653E-1,1.709145813E0,1.715432739E-1,1.867600902E0
9.572982333E0,4.766088867E-1,1.643133087E0,-3.213816833E-1,1.740783892E0
9.582985333E0,-2.444416809E-1,1.206491089E0,-2.269131317E0,2.581536251E0
9.592988333E0,-2.235601044E0,5.897735596E-2,-6.611900482E0,6.979872373E0
9.602990333E0,-3.160228271E0,1.199006653E-1,-3.562890930E0,4.763991045E0
9.612993333E0,-2.691403198E0,4.016148376E-1,6.756948853E-1,2.803838303E0
9.622996333E0,-8.228388977E-1,-6.122268677E-2,2.512674866E0,2.644682788E0
9.632999333E0,1.104253693E0,-7.967930603E-1,4.384083252E0,4.590690728E0
9.643001333E0,1.685045929E0,-8.674461365E-1,3.795058136E0,4.241969924E0
9.653004333E0,1.530567169E0,-6.402186584E-1,2.642454987E0,3.120109637E0
9.663007333E0,1.027613068E0,-2.140548706E-1,1.797162781E0,2.081250145E0
9.673009333E0,3.305126953E-1,3.625460815E-1,1.117875366E0,1.220788121E0
9.683012333E0,-1.290316772E-1,6.789880371E-1,6.737489319E-1,9.652002650E-1
9.693015333E0,-3.725752258E-1,7.577243042E-1,4.240681458E-1,9.448768239E-1
9.703018333E0,-5.589376831E-1,6.113287354E-1,2.339634705E-1,8.607398340E-1
9.713020333E0,-5.072950745E-1,3.924838257E-1,-2.023791504E-1,6.725690794E-1
9.723023333E0,6.002517700E-2,7.050338745E-2,-1.979783020E0,1.981947163E0
9.733026333E0,2.267784119E-1,-6.418652344E-1,-2.996917877E0,3.073261491E0
9.743028333E0,-4.483177185E-1,-1.160985718E0,-1.378483429E0,1.857173438E0
9.753031333E0,-7.831713867E-1,-1.152004395E0,-5.105882263E-1,1.483634686E0
9.763034333E0,-7.137158203E-1,-9.982740784E-1,-4.990621948E-1,1.324765822E0
9.773037333E0,-1.124162292E0,-9.165440369E-1,-4.757107544E-1,1.526464724E0
9.783039333E0,-1.429676971E0,-8.017327881E-1,-6.623725891E-1,1.767905301E0
9.793042333E0,-2.287992096E0,-6.262976074E-1,-3.218307495E-1,2.393894642E0
9.803045333E0,-2.932851105E0,-3.811074829E-1,9.086105347E-2,2.958904231E0
9.813047333E0,-4.041445770E0,-7.276368713E-1,-2.763253784E-1,4.115713188E0
9.823050333E0,-4.651576996E0,-1.035097504E0,-1.583107910E0,5.021436652E0
9.833053333E0,-4.173471222E0,-1.381626892E0,-3.970942383E0,5.924114982E0
9.843056333E0,-2.161954193E0,-3.523073730E0,-9.299262085E0,1.017655982E1
9.853058333E0,-7.809260559E-1,-9.689500580E0,-1.126796814E1,1.488164551E1
9.863061333E0,-4.842430115E-1,-1.796070053E1,-2.276166687E0,1.811083073E1
9.873064333E0,-3.570674744E0,-3.058260315E1,-1.336750214E1,3.356688021E1
9.883066333E0,-1.728755035E0,-4.056085327E1,-2.520249115E1,4.778427537E1
9.893069333E0,3.642974396E0,-4.190625549E1,-3.066822510E0,4.217595182E1
9.903072333E0,-3.656596069E0,-4.649915451E1,-1.138637192E1,4.801241017E1
9.913075333E0,-5.695805511E0,-3.972918274E1,-1.605246872E1,4.322651864E1
9.923077333E0,-7.262896729E0,-2.853306519E1,-6.829098816E0,3.022452760E1
9.933080333E0,-1.004096970E1,-2.722074417E1,-8.233179016E0,3.015916482E1
9.943083333E0,-1.063927551E1,-2.767445068E1,-1.016625916E1,3.134361545E1
9.953085333E0,-1.005025040E1,-2.808893875E1,-9.906698914E0,3.143467348E1
9.963088333E0,-7.927215271E0,-2.817456070E1,-8.880582733E0,3.058613023E1
9.973091333E0,-6.688840485E0,-2.740081970E1,-7.884703674E0,2.928675570E1
9.983094333E0,-5.994584198E0,-2.612607056E1,-7.993677063E0,2.797151185E1
9.993096333E0,-5.094954987E0,-2.427082855E1,-6.866071930E0,2.573275400E1
1.000309933E1,-4.114344177E0,-2.101330261E1,-4.984484711E0,2.198480845E1
1.001310233E1,-3.843407593E0,-1.640453659E1,-4.790637817E0,1.751658681E1
1.002310433E1,-3.689527588E0,-1.205084015E1,-3.815864868E0,1.316799859E1
1.003310733E1,-3.150947571E0,-8.787027283E0,-3.796105957E0,1.007723868E1
1.004311033E1,-3.286565552E0,-6.029910736E0,-3.197201385E0,7.575185365E0
1.005311333E1,-2.570305023E0,-3.629203033E0,-3.054847412E0,5.395338292E0
1.006311533E1,-6.767427063E-1,-1.823507996E0,-2.593506775E0,3.241826567E0
1.007311833E1,9.683363342E-1,-6.982978821E-1,-2.361788635E0,2.646382577E0
1.008312133E1,1.712738342E0,-7.259902954E-2,-2.450404358E0,2.990522490E0
1.009312333E1,2.762355652E0,2.550695801E-1,-9.855505371E-1,2.943973352E0
1.010312633E1,3.064726868E0,2.920426941E-1,6.803352356E-1,3.152886890E0
1.011312933E1,1.980381775E0,1.020278320E0,6.620732117E-1,2.324052659E0
1.012313133E1,8.147557068E-1,1.711840210E0,3.323089600E-1,1.924747519E0
1.013313433E1,2.424957275E-1,1.891616364E0,4.276606750E-1,1.954459081E0
1.014313733E1,-3.248245239E-2,2.131118317E0,2.266287231E-1,2.143380733E0
1.015314033E1,-9.457333374E-1,1.942061462E0,-1.360221405E0,2.552688101E0
1.016314233E1,-3.178939362E0,6.490502930E-1,-6.637646942E0,7.388185073E0
1.017314533E1,-3.766617279E0,2.016307068E-1,-9.036708069E-1,3.878747426E0
1.018314833E1,-2.070793762E0,2.878514099E-1,3.572171631E0,4.139016236E0
1.019315071E1,-2.874023438E-2,-3.520678711E-1,2.921025696E0,2.942306732E0
1.020315371E1,8.750802612E-1,-8.881031799E-1,2.489473114E0,2.784235821E0
1.021315671E1,1.034199371E0,-1.177152100E0,1.531764679E0,2.191245864E0
1.022315971E1,9.880952454E-1,-1.199605408E0,7.667056274E-1,1.732980919E0
1.023316171E1,9.999206543E-1,-1.064286804E0,2.389031982E-1,1.479737292E0
1.024316471E1,1.016536102E0,-7.949967957E-1,-2.472857666E-1,1.313969483E0
1.025316771E1,9.833052063E-1,-3.324586487E-1,-9.991722107E-1,1.440750842E0
1.026316971E1,7.358697510E-1,-1.216969299E-1,-1.939367065E0,2.077849621E0
1.027317271E1,4.328997803E-1,-9.924362183E-2,-1.582808533E0,1.643938675E0
1.028317571E1,1.724414062E-1,1.282832336E-1,-2.948867798E-2,2.169382602E-1
1.029317871E1,-2.694396973E-2,4.261637878E-1,8.515791321E-1,9.526429393E-1
1.030318071E1,2.005828857E-2,5.153782654E-1,8.854087830E-1,1.024678391E0
1.031318371E1,-4.686753845E-1,4.381388855E-1,6.497987366E-1,9.131597325E-1
1.032318671E1,-1.046773224E0,4.055067444E-1,5.923182678E-1,1.269256015E0
1.033318871E1,-1.309776306E0,8.367599487E-2,3.279679871E-1,1.352803993E0
1.034319171E1,-1.201401672E0,-4.237687683E-1,-2.339634705E-1,1.295254744E0
1.035319471E1,-5.739065552E-1,-8.852590942E-1,-8.659492493E-1,1.364888457E0
1.036319671E1,4.055067444E-1,-1.220262451E0,-2.035018158E0,2.407233905E0
1.037319971E1,9.852511597E-1,-1.242117004E0,-3.091371460E0,3.474212429E0
1.038320271E1,5.614823914E-1,-7.360194397E-1,-2.854863281E0,3.001204999E0
1.039320571E1,1.429527283E-1,1.158590698E-1,-2.578986969E0,2.585542998E0
1.040320771E1,1.137634277E-1,-6.227050781E-2,-2.608026581E0,2.611249199E0
1.041321071E1,-1.296304321E-1,-1.543739777E0,-2.008672943E0,2.536671744E0
1.042321371E1,-7.458988953E-1,-3.973936157E0,6.065386963E-1,4.088572237E0
1.043321571E1,-3.117566986E0,-1.054616913E1,-1.049228119E1,1.519963393E1
1.044321871E1,-7.371421051E0,-2.273801605E1,-1.773377243E1,2.976309639E1
1.045322171E1,-6.083648987E0,-3.129751648E1,-5.473068695E0,3.234964921E1
1.046322471E1,-1.059197388E0,-3.937621674E1,-1.343860428E1,4.161976007E1
1.047322671E1,5.269042969E-2,-4.667893066E1,-1.311991699E1,4.848770531E1
1.048322971E1,3.329226837E0,-4.941074982E1,-1.620395370E1,5.210637259E1
1.049323271E1,-2.715203705E0,-3.964730301E1,-1.388796982E1,4.209699125E1
1.050323471E1,-8.098908234E0,-3.105202698E1,-7.120542755E0,3.287130699E1
1.051323771E1,-9.797575836E0,-2.699321732E1,-7.976013794E0,2.980340701E1
1.052324071E1,-9.947563934E0,-2.517704407E1,-9.705517273E0,2.875820999E1
1.053324371E1,-8.547974396E0,-2.438653793E1,-9.239685974E0,2.744344905E1
1.054324571E1,-7.114405518E0,-2.586321716E1,-6.877897339E0,2.769162761E1
1.055324871E1,-6.163732452E0,-2.893917068E1,-6.129603424E0,3.021653911E1
1.056325171E1,-5.441184998E0,-2.986709106E1,-7.219936066E0,3.120540177E1
1.057325371E1,-4.396657104E0,-2.803879303E1,-7.137008514E0,2.926502005E1
1.058325671E1,-3.984264679E0,-2.410182999E1,-6.049370270E0,2.516679269E1
1.059325971E1,-3.334016876E0,-1.835662720E1,-4.376748505E0,1.916343805E1
1.060326271E1,-2.534529419E0,-1.292741730E1,-3.282973022E0,1.357644538E1
1.061326471E1,-1.735491028E0,-8.850195923E0,-1.072669373E0,9.082318898E0
1.062326771E1,-1.498982849E0,-5.258265381E0,-1.027313690E0,5.563423210E0
1.063327071E1,-8.216413879E-1,-2.419867859E0,-2.148332520E0,3.338590667E0
1.064327271E1,1.091380463E0,-9.758207703E-1,-1.719025269E0,2.257960443E0
1.065327571E1,2.657274170E0,-9.882449341E-1,-4.538562012E-1,2.871187823E0
1.066327871E1,3.058140564E0,-1.250349884E0,5.941145325E-1,3.356869169E0
1.067328171E1,2.521955566E0,-7.280859375E-1,2.125579834E-1,2.633543223E0
1.068328371E1,1.868115234E0,6.125262451E-1,-5.638774109E-1,2.045238535E0
1.069328671E1,1.040935364E0,1.361867981E0,-7.015910339E-1,1.852150320E0
1.070328971E1,5.815406799E-1,1.604363708E0,-5.563929749E-1,1.794922175E0
1.071329171E1,4.770579529E-1,1.852846985E0,-4.117936707E-1,1.957089744E0
1.072329471E1,1.383123779E-1,2.151475983E0,-1.289867706E0,2.512317241E0
1.073329771E1,-1.352886658E0,2.487527161E0,-7.316784668E0,7.845599503E0
1.074330071E1,-2.659220123E0,2.832260284E0,-5.903573456E0,7.067200969E0
1.075330271E1,-3.447031860E0,2.304457855E0,1.646725616E0,4.461419047E0
1.076330571E1,-4.161496124E0,1.414408722E0,5.017416229E0,6.670312410E0
1.077330871E1,-1.701811066E0,1.189426575E0,4.446353760E0,4.907235295E0
1.078331071E1,1.005608826E0,7.319778442E-1,2.298919373E0,2.613823054E0
1.079331371E1,9.966275024E-1,1.508862305E-1,1.428329773E0,1.748187339E0
1.080331671E1,9.202862549E-1,9.190887451E-2,8.921447754E-1,1.285027755E0
1.081331871E1,8.529263306E-1,4.864883423E-2,7.747888184E-1,1.153320314E0
1.082332171E1,7.797285461E-1,-1.125659180E-1,7.836204529E-1,1.111174471E0
1.083332471E1,7.674540710E-1,-3.173400879E-1,7.694000244E-1,1.132107274E0
1.084332771E1,7.770341492E-1,-4.581971741E-1,7.390132141E-1,1.166133461E0
1.085332971E1,7.512876892E-1,-5.577401733E-1,6.077362061E-1,1.115728726E0
1.086333271E1,6.879693604E-1,-7.099736023E-1,-5.987548828E-3,9.886355281E-1
1.087333571E1,2.891986084E-1,-9.857002258E-1,-2.058668976E0,2.300730041E0
1.088333771E1,-5.206173706E-1,-1.113684082E0,-2.627186737E0,2.900593876E0
1.089334071E1,-1.073417816E0,-8.282276917E-1,-1.438358917E0,1.976629275E0
1.090334371E1,-1.310225372E0,-6.039939880E-1,-5.571414185E-1,1.546578748E0
1.091334671E1,-1.178948364E0,-4.652325439E-1,-3.757186890E-2,1.267979578E0
1.092334871E1,-9.557624817E-1,-6.518943787E-1,-6.137237549E-3,1.156929500E0
1.093335171E1,-9.433383179E-1,-9.967771912E-1,-4.954696655E-2,1.373283238E0
1.094335471E1,-1.068328400E0,-1.339714050E0,-4.638853455E-1,1.775203909E0
1.095335671E1,-1.263821869E0,-1.597927094E0,-1.293460236E0,2.413225247E0
1.096335971E1,-1.610351257E0,-1.738185425E0,-1.711690521E0,2.923081282E0
1.097336271E1,-1.821262665E0,-1.759141846E0,-1.598076782E0,2.994232311E0
1.098336471E1,-1.759291534E0,-1.851649475E0,-1.971101074E0,3.226290738E0
1.099336771E1,-6.789880371E-1,-2.097737732E0,-1.341660004E0,2.581003664E0
1.100337071E1,9.618997192E-1,-5.010979614E0,-4.725822601E0,6.954751399E0
1.101337371E1,1.216969299E0,-1.044273422E1,-1.253448441E1,1.635985977E1
1.102337571E1,-1.935475159E-1,-1.820843536E1,-8.007298737E0,1.989224502E1
1.103337871E1,-3.060385895E0,-3.314527405E1,-1.164099243E1,3.526312321E1
1.104338171E1,-1.107696533E0,-3.904645248E1,-1.004590942E1,4.033327087E1
1.105338371E1,-1.813179474E0,-3.939193405E1,-1.047880920E1,4.080217556E1
1.106338671E1,-1.258433075E0,-3.926035767E1,-1.908471313E1,4.367133629E1
1.107338971E1,-5.610932007E0,-2.877346527E1,-1.302396652E1,3.207831925E1
1.108339271E1,-7.727829895E0,-2.421664124E1,-1.222328156E1,2.820591568E1
1.109339471E1,-7.788902893E0,-2.545830917E1,-1.107591751E1,2.883519487E1
1.110339771E1,-6.566694489E0,-2.697285965E1,-1.064945435E1,2.973327281E1
1.111340071E1,-5.433700562E0,-2.895114578E1,-1.104328537E1,3.145867282E1
1.112340271E1,-4.991819458E0,-2.948852829E1,-9.689949646E0,3.143861775E1
1.113340571E1,-4.159699860E0,-2.898632263E1,-9.011710052E0,3.063855285E1
1.114340871E1,-3.991150360E0,-2.909394882E1,-9.242080994E0,3.078641259E1
1.115341171E1,-4.246669006E0,-2.832275253E1,-8.876541138E0,2.998342027E1
1.116341371E1,-4.252057800E0,-2.528826279E1,-7.115303650E0,2.661209831E1
1.117341671E1,-4.741090851E0,-2.080748062E1,-5.495671692E0,2.203705061E1
1.118341971E1,-5.147795105E0,-1.654000488E1,-4.695585480E0,1.794770400E1
1.119342104E1,-5.024451599E0,-1.250649261E1,-4.099225616E0,1.408762301E1
1.120342404E1,-3.873195648E0,-8.811426544E0,-1.729653168E0,9.779293551E0
1.121342704E1,-3.533252563E0,-6.408024445E0,-5.583389282E-1,7.338827789E0
1.122343004E1,-2.156266022E0,-4.183350677E0,-1.509161682E0,4.942415910E0
1.123343204E1,-1.167572021E-1,-2.991229706E0,-7.698490906E-1,3.090914916E0
1.124343504E1,1.666484528E0,-2.055076447E0,-3.074606323E-1,2.663651990E0
1.125343804E1,2.902913361E0,-3.802093506E-1,-8.521778870E-1,3.049208468E0
1.126344004E1,3.617976379E0,4.287084961E-1,6.879693604E-1,3.707673920E0
1.127344304E1,2.974464569E0,5.599855042E-1,1.507515106E0,3.381364374E0
1.128344604E1,1.617386627E0,9.530680847E-1,7.704478455E-1,2.029253104E0
1.129344904E1,4.285588074E-1,1.421444092E0,2.944377136E-1,1.513558563E0
1.130345104E1,-1.691482544E-2,1.518891449E0,-7.185058594E-3,1.519002623E0
1.131345404E1,-1.004411316E-1,1.735191650E0,-2.164498901E-1,1.751521921E0
1.132345704E1,-1.504371643E-1,1.974693604E0,-8.333171082E-1,2.148595721E0
1.133345904E1,-6.255491638E-1,1.601070557E0,-3.326382751E0,3.744270409E0
1.134346204E1,-2.097887421E0,-3.203338623E-2,-8.241262207E0,8.504149607E0
1.135346504E1,-2.845432892E0,-6.938072205E-1,-3.747307434E0,4.756066632E0
1.136346704E1,-3.768263855E0,-1.200503540E0,1.625320129E0,4.275825856E0
1.137347004E1,-2.846181335E0,-1.528471527E0,3.760779419E0,4.957865997E0
1.138347304E1,-8.577163696E-2,-9.343569946E-1,2.774779816E0,2.929126626E0
1.139347604E1,8.153544617E-1,-7.662565613E-1,1.940863953E0,2.240291253E0
1.140347804E1,9.581575012E-1,-5.516029358E-1,1.374142456E0,1.763689056E0
1.141348104E1,8.261320496E-1,-1.294807434E-1,9.526190186E-1,1.267573438E0
1.142348404E1,3.200344849E-1,1.050814819E-1,6.924600220E-1,7.700422530E-1
1.143348604E1,-1.724414062E-1,2.653981018E-1,-1.422042847E-1,3.469787452E-1
1.144348904E1,-2.248324585E-1,4.025129700E-1,-2.508633270E0,2.550648390E0
1.145349204E1,1.922003174E-1,2.478845215E-1,-3.657793579E0,3.671217995E0
1.146349504E1,4.918771362E-1,5.897735596E-2,-1.940265198E0,2.002511044E0
1.147349704E1,7.083270264E-1,7.753875732E-2,-6.423143005E-1,9.593263761E-1
1.148350004E1,8.897497559E-1,9.774673462E-2,7.274871826E-2,8.980542457E-1
1.149350304E1,7.264393616E-1,-2.095642090E-2,3.278182983E-1,7.972566427E-1
1.150350504E1,2.269281006E-1,-2.917433167E-1,1.228944397E-1,3.895042605E-1
1.151350804E1,-1.354682922E-1,-4.343966675E-1,2.576142883E-1,5.228931482E-1
1.152351104E1,-3.704795837E-1,-6.948550415E-1,7.191046143E-1,1.066391156E0
1.153351304E1,-7.355703735E-1,-1.145717468E0,3.829037476E-1,1.414336442E0
1.154351604E1,-9.099577332E-1,-1.584904175E0,-6.732998657E-1,1.947633700E0
1.155351904E1,-8.333171082E-1,-1.810485077E0,-1.588796082E0,2.548832400E0
1.156352204E1,-1.044078827E0,-1.545685730E0,-2.463127899E0,3.089699665E0
1.157352404E1,-1.244212646E0,-1.284179535E0,-2.453547821E0,3.035964278E0
1.158352704E1,-1.372944946E0,-1.429078217E0,-1.631906433E0,2.567169839E0
1.159353004E1,-7.628137207E-1,-1.831291809E0,-1.461261292E0,2.463899151E0
1.160353204E1,9.093589783E-1,-3.805686035E0,-1.418450317E0,4.161992462E0
1.161353504E1,1.125659180E-1,-8.495134277E0,-4.338727570E0,9.539629678E0
1.162353804E1,-1.046174469E0,-1.485181549E1,-1.267564087E0,1.494247714E1
1.163354104E1,-6.683302002E0,-2.902045166E1,-9.745633850E0,3.133417494E1
1.164354304E1,-7.156767426E0,-4.305107483E1,-1.942929657E1,4.777145517E1
1.165354604E1,8.416996765E-1,-4.959426819E1,-1.045695465E1,5.069169356E1
1.166354904E1,5.836961975E0,-4.965983185E1,-1.436637497E1,5.202462642E1
1.167355104E1,1.162781982E0,-3.948833359E1,-1.922691742E1,4.393580436E1
1.168355404E1,-2.146536255E0,-3.184238342E1,-1.157228531E1,3.394794231E1
1.169355704E1,-6.364614716E0,-2.760544418E1,-6.108347626E0,2.898069667E1
1.170355904E1,-6.604865112E0,-2.481225266E1,-6.539002075E0,2.649586143E1
1.171356204E1,-6.921307068E0,-2.447934494E1,-5.333409119E0,2.599207712E1
1.172356504E1,-7.922425232E0,-2.688454330E1,-5.232219543E0,2.851174515E1
1.173356804E1,-8.812474365E0,-2.998040543E1,-6.606960754E0,3.193957333E1
1.174357004E1,-9.019793243E0,-3.068933121E1,-6.556216278E0,3.265234589E1
1.175357304E1,-8.382867737E0,-2.785228088E1,-5.991440735E0,2.969712754E1
1.176357604E1,-7.024143219E0,-2.317735245E1,-4.703518982E0,2.467086025E1
1.177357804E1,-5.329666901E0,-1.904998535E1,-3.395538940E0,2.007079908E1
1.178358104E1,-4.790488129E0,-1.351165237E1,-3.044219513E0,1.465540169E1
1.179358404E1,-3.954626312E0,-9.468260651E0,-2.634072418E0,1.059364746E1
1.180358704E1,-1.867666168E0,-7.014413452E0,-2.818339233E0,7.786732885E0
1.181358904E1,4.593946838E-1,-5.077591095E0,-2.466870117E0,5.663781685E0
1.182359204E1,2.663411407E0,-3.346590729E0,-1.785487061E0,4.634802463E0
1.183359504E1,4.024980011E0,-1.927092590E0,1.044228516E0,4.583073547E0
1.184359704E1,4.391118622E0,-7.650590515E-1,2.988684998E0,5.366514336E0
1.185360004E1,4.208049316E0,1.898052979E-1,3.569926300E0,5.521601116E0
1.186360304E1,2.932551727E0,1.146016846E0,2.804867249E0,4.216692368E0
1.187360604E1,1.681603088E0,1.768721924E0,1.436113586E0,2.831711218E0
1.188360804E1,9.403445435E-1,1.904639282E0,3.243754578E-1,2.148748029E0
1.189361104E1,6.683601379E-1,2.080673218E0,-1.290167084E0,2.537801690E0
1.190361404E1,3.344046021E-1,2.482737122E0,-5.326523438E0,5.886226464E0
1.191361604E1,-5.599855042E-1,2.330204315E0,-6.602919159E0,7.024384481E0
1.192361904E1,-8.583151245E-1,1.705253906E0,-2.609373779E0,3.233176033E0
1.193362204E1,-1.106648712E0,1.415606232E0,1.646276550E0,2.436973298E0
1.194362404E1,-1.465003510E0,1.335822144E0,3.303779755E0,3.853001006E0
1.195362704E1,-1.925595703E0,8.909472656E-1,3.017724609E0,3.688952109E0
1.196363004E1,-2.289189606E0,2.544708252E-2,2.767594757E0,3.591742940E0
1.197363304E1,-2.099983063E0,-3.902384949E-1,2.223027191E0,3.082866335E0
1.198363504E1,-1.485660553E0,-4.701722717E-1,1.546583862E0,2.195488758E0
1.199363804E1,-1.266665955E0,-5.345384216E-1,1.094074860E0,1.757035504E0
1.200364104E1,-1.246907043E0,-6.559359741E-1,9.514215088E-1,1.700068253E0
1.201364304E1,-1.211879883E0,-7.911048889E-1,9.041198730E-1,1.706438555E0
1.202364604E1,-1.155297546E0,-7.355703735E-1,8.354127502E-1,1.604272626E0
1.203364904E1,-8.583151245E-1,-5.830375671E-1,7.319778442E-1,1.269814641E0
1.204365204E1,-4.355941772E-1,-3.549119568E-1,4.757107544E-1,7.362102323E-1
1.205365404E1,-1.811233521E-1,-2.273771667E-1,2.255809021E-1,3.679575900E-1
1.206365704E1,2.544708252E-3,-2.469863892E-1,1.426533508E-1,2.852345184E-1
1.207366004E1,8.457412720E-2,-3.890409851E-1,1.586700439E-2,3.984437638E-1
1.208366204E1,2.395019531E-1,-6.242019653E-1,-6.051914978E-1,9.018015458E-1
1.209366504E1,4.402345276E-1,-9.616003418E-1,-1.210832062E0,1.607667857E0
1.210366804E1,4.397854614E-1,-1.298250275E0,-1.506018219E0,2.036407598E0
1.211367004E1,2.794688416E-1,-1.808688812E0,-2.157912598E0,2.829495508E0
1.212367304E1,3.100053406E-1,-2.486479340E0,-2.818488922E0,3.771281297E0
1.213367604E1,3.966751099E-2,-3.173101501E0,-3.491639099E0,4.718229567E0
1.214367904E1,-7.801776123E-1,-3.390449524E0,-4.251309357E0,5.493401162E0
1.215368104E1,-1.113833771E0,-2.107317810E0,-6.233487396E0,6.673663098E0
1.216368404E1,-2.232008514E0,-4.685256958E-1,-1.027448410E1,1.052456184E1
1.217368704E1,-4.036805420E0,-2.555186462E-1,-1.136346954E1,1.206190399E1
1.218368904E1,-3.559747467E0,-3.761527863E0,-3.991599426E0,6.538635933E0
1.219369179E1,-4.029021606E0,-1.064556244E1,-4.483626251E0,1.223372058E1
1.220369479E1,-3.951482849E0,-1.905118286E1,-9.951306152E0,2.185383901E1
1.221369679E1,2.029030609E0,-3.230701721E1,-2.330249222E1,3.988566747E1
1.222369979E1,1.166823578E1,-4.848507477E1,-1.650931870E1,5.253101755E1
1.223370279E1,-4.762047272E0,-5.403253876E1,-1.118279526E1,5.538273421E1
1.224370579E1,-8.712332611E0,-4.002841049E1,-2.118948624E1,4.612128265E1
1.225370779E1,-7.528294830E0,-1.906196045E1,-2.148931274E0,2.060707318E1
1.226371079E1,-1.256127869E1,-1.622984985E1,-3.527115326E0,2.082388751E1
1.227371379E1,-7.798932037E0,-1.576237198E1,-1.317964279E1,2.197677627E1
1.228371579E1,-8.515791321E0,-1.891825928E1,-1.187390808E1,2.390416133E1
1.229371879E1,-7.200177155E0,-2.605362122E1,-1.261022690E1,2.982702721E1
1.230372179E1,-3.544928284E0,-3.257525940E1,-9.393416290E0,3.408739226E1
1.231372479E1,-2.714155884E0,-3.528357742E1,-6.044131165E0,3.590026462E1
1.232372679E1,-3.547622681E0,-3.034519684E1,-5.305866394E0,3.100917310E1
1.233372979E1,-3.880829773E0,-2.479069748E1,-4.760400696E0,2.554018277E1
1.234373279E1,-3.538491669E0,-2.100596786E1,-4.343068542E0,2.174014383E1
1.235373479E1,-3.414848785E0,-1.636501877E1,-4.012705536E0,1.719234822E1
1.236373779E1,-3.939058685E0,-1.224199265E1,-2.368075562E0,1.307632781E1
1.237374079E1,-4.397854614E0,-9.571994934E0,-1.525477753E0,1.064383834E1
1.238374379E1,-3.726351013E0,-6.743027802E0,-2.378553772E0,8.062979217E0
1.239374579E1,-2.722538452E0,-4.208947449E0,-2.672392731E0,5.680593029E0
1.240374879E1,-1.196911011E0,-2.322270813E0,-2.620600433E0,3.700416778E0
1.241375179E1,5.072950745E-1,-1.305435333E0,-2.386936340E0,2.767485284E0
1.242375379E1,1.700314178E0,-1.164877625E0,-1.114582214E0,2.343139283E0
1.243375679E1,2.374661865E0,-1.135388947E0,5.980064392E-1,2.699210762E0
1.244375979E1,2.590213623E0,-2.974314880E-1,2.071991272E0,3.330288266E0
1.245376179E1,2.227667542E0,6.776408386E-1,2.204166412E0,3.206251605E0
1.246376479E1,1.298998718E0,1.384470978E0,1.085841980E0,2.187055181E0
1.247376779E1,6.888674927E-1,1.690883789E0,3.004252625E-1,1.850373408E0
1.248377079E1,4.035607910E-1,1.775757294E0,-6.167175293E-2,1.822080866E0
1.249377279E1,1.926493835E-1,1.720821533E0,-2.019300842E-1,1.743306139E0
1.250377579E1,-1.956431580E-1,1.336570587E0,-1.866618347E-1,1.363649449E0
1.251377879E1,-7.265890503E-1,3.525169373E-1,-2.887495422E-1,8.576573542E-1
1.252378079E1,-1.633253632E0,-6.198609924E-1,-7.786807251E-1,1.912613068E0
1.253378379E1,-2.848726044E0,-1.181493073E0,-2.072440338E0,3.715666146E0
1.254378679E1,-3.922592926E0,-1.675765228E0,-2.192790070E0,4.796170624E0
1.255378979E1,-2.987337799E0,-1.599423981E0,-1.008901978E-1,3.390062393E0
1.256379179E1,-8.411009216E-1,-8.873547363E-1,8.297245789E-1,1.477596719E0
1.257379479E1,2.854563904E-1,-5.182223511E-1,1.034049683E0,1.191343150E0
1.258379779E1,9.410929871E-1,-1.564247131E-1,1.192719727E0,1.527319563E0
1.259379979E1,1.125060425E0,3.046165466E-1,4.153862000E-1,1.237375406E0
1.260380279E1,1.196312256E0,7.554789734E-1,-1.005908203E0,1.736019241E0
1.261380579E1,1.451381836E0,7.964936829E-1,-1.562899933E0,2.276744962E0
1.262380779E1,1.697320404E0,2.883004761E-1,-4.323010254E-1,1.775076870E0
1.263381079E1,1.956281891E0,-2.005828857E-2,7.439529419E-1,2.093061669E0
1.264381379E1,1.812580719E0,-1.856140137E-1,1.185534668E0,2.173797110E0
1.265381679E1,1.372645569E0,-3.526666260E-1,9.764195251E-1,1.721024316E0
1.266381879E1,6.741979980E-1,-5.522016907E-1,5.881269836E-1,1.051362448E0
1.267382179E1,-1.158590698E-1,-8.797206116E-1,-5.239105225E-2,8.888624758E-1
1.268382479E1,-9.098080444E-1,-1.386416931E0,-4.778063965E-1,1.725746661E0
1.269382679E1,-1.478026428E0,-1.724563751E0,-4.429289246E-1,2.314058834E0
1.270382979E1,-1.462907867E0,-1.845063171E0,-6.421646118E-1,2.440641908E0
1.271383279E1,-1.390308838E0,-1.844165039E0,-1.215921478E0,2.610051417E0
1.272383479E1,-1.251547394E0,-1.837578735E0,-3.332669678E0,4.006214381E0
1.273383779E1,-1.486708374E0,-1.849703522E0,-6.077960815E0,6.524822801E0
1.274384079E1,-5.191204834E-1,-2.155517578E0,-4.931045837E0,5.406565930E0
1.275384379E1,-1.378034363E0,-4.804558868E0,-3.513793030E0,6.109787728E0
1.276384579E1,-4.764591980E0,-1.018826340E1,-1.387165375E0,1.133253174E1
1.277384879E1,-1.084300186E1,-2.058459412E1,-7.671546936E0,2.449793536E1
1.278385179E1,-9.726473694E0,-3.102732834E1,-1.351599335E1,3.521337062E1
1.279385379E1,-1.775158539E0,-3.806898514E1,-9.358838196E0,3.924266390E1
1.280385679E1,6.262976074E-1,-4.855018936E1,-6.351741486E0,4.896792578E1
1.281385979E1,-1.396895142E0,-4.995846085E1,-1.806159073E1,5.314151095E1
1.282386279E1,-1.903591461E0,-3.731141052E1,-2.130235153E1,4.300645529E1
1.283386479E1,-1.400188293E0,-2.893423096E1,-6.317612457E0,2.964898777E1
1.284386779E1,-4.929099884E0,-2.587938354E1,-3.678001556E0,2.660011680E1
1.285387079E1,-3.622317352E0,-2.615690643E1,-9.211843872E0,2.796717727E1
1.286387279E1,-2.026485901E0,-2.787159073E1,-1.076127182E1,2.994557039E1
1.287387579E1,-2.323468323E0,-2.918870178E1,-4.229454803E0,2.958491346E1
1.288387879E1,-2.541564789E0,-2.961082397E1,-2.917433167E0,2.986254953E1
1.289388179E1,-3.778442688E0,-2.791964081E1,-4.542304230E0,2.853796594E1
1.290388379E1,-4.901407471E0,-2.372775787E1,-5.400619354E0,2.482331522E1
1.291388679E1,-5.375621338E0,-1.903007675E1,-4.052672424E0,2.018576924E1
1.292388979E1,-5.724246368E0,-1.437221283E1,-2.807411957E0,1.572288332E1
1.293389179E1,-5.433999939E0,-1.068478088E1,-3.169958038E0,1.239925529E1
1.294389479E1,-4.752766571E0,-7.214247894E0,-3.115920410E0,9.183851194E0
1.295389779E1,-2.376158752E0,-4.226760406E0,-1.856289825E0,5.192056035E0
1.296389979E1,-1.303788757E-1,-2.191442871E0,-7.304809570E-1,2.313660074E0
1.297390279E1,1.174308014E0,-5.095404053E-1,9.624984741E-2,1.283703536E0
1.298390579E1,1.855391693E0,1.592687988E-1,1.444496155E-1,1.867809031E0
1.299390879E1,2.251917114E0,5.376818848E-1,-5.890251160E-1,2.388971135E0
1.300391079E1,2.080373840E0,1.138233032E0,-1.017134857E0,2.580328093E0
1.301391379E1,1.435814209E0,1.538350983E0,-8.117619324E-1,2.255447544E0
1.302391679E1,1.064137115E0,1.725461884E0,-4.773573303E-1,2.082660926E0
1.303391879E1,1.124012604E0,1.964514771E0,-1.293310547E-1,2.267035319E0
1.304392179E1,9.508227539E-1,2.135010223E0,-8.791218567E-1,2.497035803E0
1.305392479E1,5.029541016E-1,1.669178925E0,-3.805536346E0,4.185836594E0
1.306392779E1,-3.938310242E-1,5.613327026E-1,-6.869514771E0,6.903653414E0
1.307392979E1,-8.213420105E-1,5.432203674E-1,-2.833906860E0,3.000119857E0
1.308393279E1,-9.656419373E-1,2.230361938E-1,9.517208862E-1,1.374038624E0
1.309393579E1,-3.088078308E-1,-6.692582703E-1,2.744692383E0,2.841936872E0
1.310393779E1,1.038091278E0,-9.851014709E-1,2.589914246E0,2.959005612E0
1.311394079E1,9.616003418E-1,-9.788145447E-1,2.020049286E0,2.441997594E0
1.312394379E1,2.472857666E-1,-9.481283569E-1,1.416504364E0,1.722376917E0
1.313394579E1,-1.490899658E-1,-8.002359009E-1,7.731422424E-1,1.122654997E0
1.314394879E1,-3.248245239E-1,-4.206253052E-1,4.254153442E-1,6.807457924E-1
1.315395179E1,-3.300636292E-1,4.370910645E-2,3.141966248E-1,4.577903497E-1
1.316395479E1,-4.164340210E-1,1.863624573E-1,3.014730835E-1,5.468402686E-1
1.317395679E1,-4.423301697E-1,2.086660767E-1,3.623963928E-1,6.087106505E-1
1.318395979E1,-7.065307617E-2,1.158590698E-1,-1.170565796E0,1.178405475E0
1.319396279E1,5.551954651E-1,-2.977308655E-1,-2.943179626E0,3.009849163E0
1.320396529E1,5.194198608E-1,-5.517526245E-1,-3.773652649E-1,8.465414896E-1
1.321396829E1,8.683442688E-1,-7.288343811E-1,1.939965820E-1,1.150154771E0
1.322397129E1,3.050656128E-1,-1.115180969E0,1.959425354E-1,1.172641079E0
1.323397429E1,-1.254391479E-1,-1.163081360E0,2.061213684E-1,1.187846475E0
1.324397629E1,-4.484674072E-1,-1.175804901E0,-3.688330078E-1,1.311364926E0
1.325397929E1,-6.102809143E-1,-1.250948639E0,-1.228195953E0,1.856281388E0
1.326398229E1,-4.872367859E-1,-1.169817352E0,-2.196681976E0,2.535997640E0
1.327398429E1,-5.315446472E-1,-8.660989380E-1,-2.241438904E0,2.461039504E0
1.328398729E1,-9.716294861E-1,-7.393125916E-1,-1.667232971E0,2.066473505E0
1.329399029E1,-1.826052704E0,-6.215075684E-1,-2.266287231E0,2.976037290E0
1.330399229E1,-2.491119690E0,-5.174739075E-1,-2.910697174E0,3.865955845E0
1.331399529E1,-2.719694366E0,-8.675958252E-1,-1.174158325E0,3.086763311E0
1.332399829E1,-3.846401367E0,-5.041965179E0,-4.112996979E0,7.558634830E0
1.333400129E1,-4.406686249E0,-1.046428940E1,-5.917943573E0,1.280399517E1
1.334400329E1,-4.549189911E0,-1.947435287E1,-7.968229980E0,2.152761570E1
1.335400629E1,-2.768193512E0,-3.346560791E1,-1.413660278E1,3.643423317E1
1.336400929E1,3.016227722E0,-4.197915390E1,-1.008078690E1,4.327781483E1
1.337401129E1,5.028792572E0,-5.312811951E1,-1.609243561E1,5.573914532E1
1.338401429E1,3.432062988E0,-5.611336166E1,-2.167807022E1,6.025302600E1
1.339401729E1,-3.632645874E0,-3.833004227E1,-1.515598297E1,4.137743438E1
1.340402029E1,-8.513246613E0,-2.512749710E1,-9.641899567E0,2.822822534E1
1.341402229E1,-1.083746338E1,-2.103740250E1,-8.894204407E0,2.528101636E1
1.342402529E1,-1.046593597E1,-2.087334366E1,-5.841901703E0,2.406990043E1
1.343402829E1,-7.807913361E0,-2.342194382E1,-6.662944336E0,2.557236380E1
1.344403029E1,-5.341192932E0,-2.727433273E1,-7.615263977E0,2.881683212E1
1.345403329E1,-4.455484772E0,-2.916475159E1,-6.767277374E0,3.026929340E1
1.346403629E1,-4.414170685E0,-2.757400955E1,-6.295608215E0,2.862596004E1
1.347403829E1,-5.025499420E0,-2.414464096E1,-5.159470825E0,2.519602093E1
1.348404129E1,-5.935307465E0,-2.018477554E1,-3.594774628E0,2.134421334E1
1.349404429E1,-5.501659241E0,-1.432042053E1,-3.287763062E0,1.568923467E1
1.350404729E1,-3.955075378E0,-1.018332367E1,-3.146007843E0,1.136838016E1
1.351404929E1,-2.677931213E0,-7.737409973E0,-2.485431519E0,8.556646452E0
1.352405229E1,-9.240284729E-1,-5.414241028E0,-2.704575806E0,6.122300615E0
1.353405529E1,6.926097107E-1,-3.254232788E0,-2.702330475E0,4.286295515E0
1.354405729E1,1.609902191E0,-1.739083557E0,-1.059945831E0,2.596089723E0
1.355406029E1,2.175126801E0,-9.235794067E-1,1.097817078E0,2.605643463E0
1.356406329E1,2.405797119E0,-2.230361938E-1,1.366957397E0,2.776000261E0
1.357406629E1,2.326162720E0,4.567002869E-1,1.690434723E0,2.911559325E0
1.358406829E1,1.931732941E0,1.377734985E0,1.642234955E0,2.885598983E0
1.359407129E1,1.166224823E0,2.030078430E0,5.282514954E-1,2.400072585E0
1.360407429E1,6.800358582E-1,2.151625671E0,-3.011737061E-1,2.276542861E0
1.361407629E1,6.337820435E-1,2.269879761E0,-4.664300537E-1,2.402413537E0
1.362407929E1,5.408253479E-1,2.360291748E0,-3.150947571E-1,2.441875078E0
1.363408229E1,2.550695801E-1,2.259102173E0,-9.610015869E-2,2.275486400E0
1.364408429E1,-5.625302124E-1,1.679357758E0,-1.697919159E0,2.453489798E0
1.365408729E1,-1.982178040E0,3.894900513E-1,-3.950734406E0,4.437232766E0
1.366409029E1,-2.820734253E0,-4.884342957E-1,-8.981323242E-3,2.862724306E0
1.367409329E1,-2.886297913E0,-1.229842529E0,2.228415985E0,3.848254941E0
1.368409529E1,-2.790946198E0,-1.765578461E0,1.600771179E0,3.670029475E0
1.369409829E1,-1.775457916E0,-1.850302277E0,9.301657104E-1,2.727833862E0
1.370410129E1,-3.258723450E-1,-1.232686615E0,1.016386414E-1,1.279077593E0
1.371410329E1,3.359014893E-1,-5.240602112E-1,-3.188369751E-1,6.993753871E-1
1.372410629E1,6.710545349E-1,-1.676513672E-2,-2.830613708E-1,7.285046316E-1
1.373410929E1,9.134005737E-1,3.429368591E-1,-1.405577087E-1,9.857295607E-1
1.374411229E1,1.191821594E0,6.462062073E-1,-5.701643372E-1,1.470751014E0
1.375411429E1,1.390608215E0,8.825646973E-1,-1.442400513E0,2.189344855E0
1.376411729E1,1.017733612E0,5.123844910E-1,-1.219364319E0,1.668882534E0
1.377412029E1,5.990542603E-1,-9.041198730E-2,-7.424560547E-1,9.582699658E-1
1.378412229E1,2.805166626E-1,-5.252577209E-1,-5.095404053E-1,7.837197816E-1
1.379412529E1,-1.606159973E-1,-9.180409241E-1,-1.606159973E-1,9.457241329E-1
1.380412829E1,-6.069877625E-1,-1.222208405E0,-7.858657837E-2,1.366895526E0
1.381413029E1,-8.086184692E-1,-1.392404480E0,-3.664379883E-1,1.651342140E0
1.382413329E1,-8.779243469E-1,-1.590442657E0,-9.578581238E-1,2.053716434E0
1.383413629E1,-1.113085327E0,-1.700314178E0,-1.353635101E0,2.441793447E0
1.384413929E1,-1.423839111E0,-1.683249664E0,-1.662592621E0,2.761315170E0
1.385414129E1,-1.382525024E0,-1.683998108E0,-2.385439453E0,3.230719185E0
1.386414429E1,-1.408421173E0,-1.867067413E0,-1.950294342E0,3.045199328E0
1.387414729E1,-1.597777405E0,-2.837200012E0,3.715274048E-1,3.277289910E0
1.388414929E1,-2.192191315E0,-6.278992767E0,-2.476599884E0,7.096830273E0
1.389415229E1,-5.336702271E0,-1.316168015E1,-1.115240845E1,1.805786337E1
1.390415529E1,-7.975115662E0,-2.331925735E1,-5.392536163E0,2.522835071E1
1.391415829E1,-2.337389374E0,-3.081536911E1,-1.928739166E0,3.096401778E1
1.392416029E1,-1.444496155E-1,-3.955748978E1,-1.753648270E1,4.327059150E1
1.393416329E1,1.015188904E0,-4.369548477E1,-1.363020584E1,4.578327762E1
1.394416629E1,7.906558228E-1,-3.754851746E1,-1.132080826E1,3.922597353E1
1.395416829E1,-4.055067444E0,-2.805480972E1,-1.088237000E1,3.036349613E1
1.396417129E1,-7.639363861E0,-2.749826706E1,-1.095362183E1,3.056953390E1
1.397417429E1,-8.033494263E0,-2.907478867E1,-1.104657852E1,3.212331339E1
1.398417729E1,-6.632856903E0,-3.040597046E1,-8.513246613E0,3.226442620E1
1.399417929E1,-4.996310120E0,-3.127656006E1,-8.478369141E0,3.278824587E1
1.400418229E1,-3.353027344E0,-3.041839462E1,-8.052355042E0,3.164430352E1
1.401418529E1,-2.059267731E0,-2.869652527E1,-6.843169556E0,2.957296258E1
1.402418729E1,-1.535357208E0,-2.605676468E1,-5.946085052E0,2.677065996E1
1.403419029E1,-1.960473175E0,-2.272259811E1,-5.077291718E0,2.336533354E1
1.404419329E1,-3.110082550E0,-1.915776123E1,-4.223916321E0,1.986287738E1
1.405419529E1,-3.647914124E0,-1.603450607E1,-3.601211243E0,1.683393551E1
1.406419829E1,-4.190236359E0,-1.173065598E1,-2.569257202E0,1.271878347E1
1.407420129E1,-4.399052124E0,-7.929161224E0,-2.602039032E0,9.433655942E0
1.408420429E1,-3.553161163E0,-5.674549713E0,-2.621947632E0,7.190276635E0
1.409420629E1,-1.894161072E0,-3.810476074E0,-2.415826263E0,4.893239276E0
1.410420929E1,7.291337585E-1,-2.375859375E0,-7.885601807E-1,2.607330237E0
1.411421229E1,3.980672150E0,-2.102228394E0,4.218228149E0,6.169162318E0
1.412421429E1,3.172802124E0,-5.626799011E-1,-1.041833496E-1,3.223993821E0
1.413421729E1,1.019529877E0,5.340893555E-1,-5.022056580E-1,1.255748037E0
1.414422029E1,4.809498596E-1,1.408870239E0,1.867217102E0,2.388038489E0
1.415422329E1,-5.222639465E-1,2.264640656E0,1.034648438E0,2.543983946E0
1.416422529E1,-1.405427399E0,2.403252411E0,-9.180409241E-1,2.931492361E0
1.417422829E1,-2.829715576E0,1.522633667E0,-5.986501007E0,6.794401948E0
1.418423129E1,-4.398453369E0,-2.544708252E-1,-8.712781677E0,9.763386298E0
1.419423329E1,-3.647165680E0,-4.770579529E-1,-5.449866943E0,6.574986805E0
1.420423542E1,-2.890489197E0,-1.252894592E-1,-1.559307404E0,3.286649483E0
1.421423842E1,-2.261946259E0,-1.567240906E-1,2.001338196E0,3.024287997E0
1.422424042E1,-5.921685791E-1,-3.182382202E-1,2.586022339E0,2.671975061E0
1.423424342E1,9.080117798E-1,-6.735992432E-1,3.301684113E0,3.489891017E0
1.424424642E1,2.055076447E0,-9.012757874E-1,3.548820190E0,4.198781012E0
1.425424942E1,2.523602142E0,-9.580078125E-1,3.271147614E0,4.241079279E0
1.426425142E1,2.496807861E0,-7.915539551E-1,2.766247559E0,3.809558074E0
1.427425442E1,2.192939758E0,-5.224136353E-1,1.753004608E0,2.855683096E0
1.428425742E1,1.396446075E0,-1.167572021E-1,7.131170654E-1,1.572332609E0
1.429425942E1,5.513035583E-1,3.857478333E-1,-1.892065430E-1,6.989535895E-1
1.430426242E1,5.381309509E-1,8.536747742E-1,-1.432970123E0,1.752640555E0
1.431426542E1,6.565347290E-1,7.740403748E-1,-1.370549927E0,1.705456963E0
1.432426842E1,6.110293579E-1,5.098397827E-1,-3.314108276E-1,8.620479203E-1
1.433427042E1,3.757186890E-1,3.044668579E-1,6.885681152E-2,4.884729893E-1
1.434427342E1,1.549278259E-1,3.427871704E-2,-5.807922363E-2,1.689699911E-1
1.435427642E1,7.664062500E-2,-1.574725342E-1,-2.857557678E-1,3.351533131E-1
1.436427842E1,1.565744019E-1,-3.275189209E-1,-4.156855774E-1,5.518864794E-1
1.437428142E1,2.868035889E-1,-4.559518433E-1,-3.752696228E-1,6.564873736E-1
1.438428442E1,4.544549561E-1,-5.966592407E-1,-3.644920349E-1,8.338980754E-1
1.439428642E1,4.625381470E-1,-6.709048462E-1,-6.547384644E-1,1.045340761E0
1.440428942E1,8.050259399E-1,-7.008425903E-1,-1.215472412E0,1.617597071E0
1.441429242E1,1.015488281E0,-9.098080444E-1,-2.632126465E0,2.964297025E0
1.442429542E1,-8.726852417E-2,-1.077908478E0,-3.800446930E0,3.951316154E0
1.443429742E1,-1.147513733E0,-4.228706360E-1,-2.262694702E0,2.572040952E0
1.444430042E1,-1.478026428E0,3.288661194E-1,-1.658551025E-1,1.523227810E0
1.445430342E1,-2.543660431E0,-1.692979431E-1,-8.430468750E-1,2.685069499E0
1.446430542E1,-4.824018402E0,-4.275558929E0,-7.756420441E0,1.008531684E1
1.447430842E1,-4.680167542E0,-9.820328522E0,-9.306896210E0,1.431646386E1
1.448431142E1,-3.406765594E0,-1.651470749E1,-4.685107269E0,1.750119554E1
1.449431442E1,-6.293662262E0,-3.084994720E1,-1.663236282E1,3.560849506E1
1.450431642E1,-6.775210876E0,-5.403328720E1,-2.434657104E1,5.965111172E1
1.451431942E1,6.339317322E-1,-7.166916321E1,-2.369752075E1,7.548803424E1
1.452432242E1,7.839797058E0,-5.679369690E1,-2.010648834E1,6.075571824E1
1.453432442E1,-1.905537415E0,-2.178375046E1,3.779041443E0,2.219107954E1
1.454432742E1,-8.834328918E0,-1.364816849E1,-1.210278214E1,2.026808343E1
1.455433042E1,-8.152197418E0,-1.446906143E1,-1.741568390E1,2.406487289E1
1.456433342E1,-9.106163635E0,-1.576686264E1,-2.893482971E-1,1.820988457E1
1.457433542E1,-8.633895721E0,-2.166399948E1,-8.274792480E0,2.474561010E1
1.458433842E1,-8.497229919E0,-2.945005829E1,-1.442460388E1,3.387592134E1
1.459434142E1,-5.601950684E0,-3.763653442E1,-8.207731934E0,3.892630779E1
1.460434342E1,-1.647623749E0,-3.563519623E1,-6.429878998E0,3.624810641E1
1.461434642E1,-6.167175293E-1,-2.841885269E1,-7.782166901E0,2.947157360E1
1.462434942E1,-1.127156067E0,-2.208073288E1,-6.279142456E0,2.298383944E1
1.463435242E1,-2.069296875E0,-1.685509964E1,-4.860093384E0,1.766343345E1
1.464435442E1,-3.027005310E0,-1.228315704E1,-3.672014008E0,1.317278995E1
1.465435742E1,-3.767964478E0,-8.283025360E0,-2.794838104E0,9.519305933E0
1.466436042E1,-3.880081329E0,-4.445156250E0,-2.619253235E0,6.455612497E0
1.467436242E1,-2.778971100E0,-2.406096497E0,-3.230581970E0,4.893734830E0
1.468436542E1,-1.958377533E0,-1.875899048E0,-2.539618835E0,3.715360498E0
1.469436842E1,-6.424639893E-1,-1.313817902E0,-9.984237671E-1,1.770798542E0
1.470437042E1,1.456770630E0,-5.167254639E-1,-1.989363098E-1,1.558448436E0
1.471437342E1,2.435136108E0,2.185455322E-2,-3.230282593E-1,2.456565233E0
1.472437642E1,2.233206024E0,6.132746887E-1,9.999206543E-1,2.522529743E0
1.473437942E1,1.437311096E0,1.078956299E0,1.994153137E0,2.684521674E0
1.474438142E1,5.393284607E-1,1.386117554E0,1.562151489E0,2.156968784E0
1.475438442E1,6.676116943E-2,1.569037170E0,7.851173401E-1,1.755774454E0
1.476438742E1,-2.044747925E-1,1.806892548E0,2.661465454E-1,1.837798847E0
1.477438942E1,-5.417234802E-1,1.763931885E0,1.202000427E-1,1.849153340E0
1.478439242E1,-1.441801758E0,9.812095642E-1,5.493576050E-2,1.744873192E0
1.479439542E1,-2.284698944E0,1.580712891E-1,-6.825805664E-2,2.291177636E0
1.480439742E1,-2.563569031E0,-3.917353821E-1,-4.876858521E-1,2.638783863E0
1.481440042E1,-2.337688751E0,-2.435435486E-1,-3.433859253E-1,2.375292835E0
1.482440342E1,-1.802701263E0,2.800675964E-1,6.908134460E-1,1.950741634E0
1.483440642E1,-6.625222778E-1,3.258723450E-1,1.301393738E0,1.496246709E0
1.484440842E1,4.040098572E-1,4.254153442E-1,1.279090118E0,1.407221983E0
1.485441142E1,9.401948547E-1,5.372328186E-1,1.110839996E0,1.551306212E0
1.486441442E1,1.023122406E0,5.346881104E-1,9.388476562E-1,1.487987149E0
1.487441642E1,8.825646973E-1,5.008584595E-1,6.252497864E-1,1.191938311E0
1.488441942E1,8.116122437E-1,4.430786133E-1,3.061134338E-1,9.740320970E-1
1.489442242E1,8.566685486E-1,2.219883728E-1,3.462300110E-1,9.502815690E-1
1.490442542E1,1.015338593E0,-2.628533936E-1,7.009922791E-1,1.261504871E0
1.491442742E1,1.244512024E0,-7.692503357E-1,7.430548096E-1,1.640940799E0
1.492443042E1,1.235231323E0,-1.008901978E0,4.294569397E-1,1.651699999E0
1.493443342E1,1.050964508E0,-9.641450500E-1,2.619552612E-1,1.450076768E0
1.494443542E1,1.118623810E0,-8.774752808E-1,5.837860107E-2,1.422916075E0
1.495443842E1,1.522034912E0,-9.948312378E-1,-2.260299683E-1,1.832312477E0
1.496444142E1,1.804796906E0,-1.377585297E0,-6.451583862E-1,2.360352190E0
1.497444442E1,1.727557526E0,-1.918859711E0,-1.459614716E0,2.965965730E0
1.498444642E1,1.216969299E0,-2.582878876E0,-2.647095337E0,3.893506297E0
1.499444942E1,-8.232879639E-3,-3.204386444E0,-4.181704102E0,5.268283350E0
1.500445242E1,-1.355581055E0,-3.344495087E0,-5.566025391E0,6.633542495E0
1.501445442E1,-2.189796295E0,-2.554887085E0,-7.346872101E0,8.080791143E0
1.502445742E1,-3.071762238E0,-1.855691071E0,-6.326444092E0,7.273459111E0
1.503446042E1,-4.047133942E0,-1.547781372E0,-1.092428284E0,4.468592605E0
1.504446242E1,-7.088209991E0,-4.168531494E0,3.948788452E-1,8.232575843E0
1.505446542E1,-9.940528564E0,-1.121393051E1,-2.636617126E0,1.521571870E1
1.506446842E1,-9.657018127E0,-2.112092880E1,-1.200264038E1,2.614220742E1
1.507447142E1,1.102307739E0,-3.589206207E1,-1.320029984E1,3.825837317E1
1.508447342E1,2.417921906E0,-5.366071198E1,-1.026460464E1,5.468711425E1
1.509447642E1,-7.864196320E0,-6.002802109E1,-3.152100174E1,6.825527416E1
1.510447942E1,-1.059796143E0,-3.556574066E1,-1.742765900E1,3.962030256E1
1.511448142E1,-3.180286560E0,-1.634136795E1,4.748874664E0,1.731202876E1
1.512448442E1,-7.009773102E0,-1.207134750E1,-1.236967712E1,1.865109277E1
1.513448742E1,-8.843310242E0,-1.506572067E1,-1.469015167E1,2.282500014E1
1.514449042E1,-5.663023682E0,-2.321103241E1,-5.964646454E0,2.462516741E1
1.515449242E1,-2.758912811E0,-2.905892166E1,-1.345087875E1,3.213967435E1
1.516449542E1,-2.621199188E0,-3.387785065E1,-1.102202957E1,3.572204621E1
1.517449842E1,-3.456911316E0,-3.396407135E1,-5.474565582E0,3.457570313E1
1.518450042E1,-3.707939301E0,-2.883708298E1,-5.669759674E0,2.962215967E1
1.519450342E1,-2.836301880E0,-2.512435364E1,-5.906567230E0,2.596469315E1
1.520450646E1,-3.062930603E0,-2.084699844E1,-5.094954987E0,2.167804083E1
1.521450946E1,-4.158951416E0,-1.658491150E1,-3.904330902E0,1.753852805E1
1.522451146E1,-4.784350891E0,-1.235261261E1,-2.365530853E0,1.345632892E1
1.523451446E1,-4.581672363E0,-8.170309753E0,-1.467847595E0,9.481574747E0
1.524451746E1,-4.690496063E0,-5.682333527E0,-2.165846100E0,7.679880009E0
1.525451946E1,-3.890559540E0,-3.714076538E0,-3.344794464E0,6.333914119E0
1.526452246E1,-2.863245850E0,-2.170636139E0,-3.839066620E0,5.258162279E0
1.527452546E1,-1.429227905E0,-1.253792725E0,-3.564537506E0,4.039878245E0
1.528452846E1,7.969427490E-1,-5.369334412E-1,-2.428400116E0,2.611616815E0
1.529453046E1,1.519639893E0,-1.194515991E-1,1.773811340E-1,1.534613357E0
1.530453346E1,1.619332581E0,7.746391296E-1,2.255809021E0,2.882876710E0
1.531453646E1,1.807341614E0,2.267634430E0,2.000589752E0,3.522926195E0
1.532453846E1,1.321901093E0,2.970273285E0,9.857002258E-1,3.397285802E0
1.533454146E1,7.725434875E-1,3.060385895E0,1.683998108E-1,3.160877056E0
1.534454446E1,1.327738953E-1,2.850522308E0,-3.185375977E-1,2.871336368E0
1.535454646E1,-1.151705017E0,1.487157440E0,-7.167095947E-1,2.012892034E0
1.536454946E1,-1.911824341E0,-5.674699402E-1,-4.263583832E0,4.706935472E0
1.537455246E1,-2.577041016E0,-1.907034302E0,-4.999752960E0,5.939313924E0
1.538455546E1,-2.878065033E0,-2.452949066E0,8.948391724E-1,3.885994673E0
1.539455746E1,-1.764530640E0,-2.286046143E0,2.218386841E0,3.641540267E0
1.540456046E1,7.304809570E-2,-1.464704132E0,2.725532227E0,3.095031524E0
1.541456346E1,7.960446167E-1,-1.003962250E0,2.557282104E0,2.860300507E0
1.542456546E1,9.168434143E-1,-5.691165161E-1,1.861079865E0,2.151305120E0
1.543456846E1,9.265731812E-1,-1.077758789E-2,1.354682922E0,1.641286031E0
1.544457146E1,1.069825287E0,4.694238281E-1,1.230141907E0,1.696506406E0
1.545457346E1,1.056353302E0,9.080117798E-1,1.154848480E0,1.809431597E0
1.546457646E1,8.804690552E-1,1.191821594E0,1.178798676E0,1.893470567E0
1.547457946E1,7.259902954E-1,1.290765839E0,1.075363770E0,1.830176384E0
1.548458246E1,7.303312683E-1,1.255439301E0,2.656974792E-1,1.476518455E0
1.549458446E1,9.404942322E-1,9.009764099E-1,-1.761836243E0,2.190971209E0
1.550458746E1,4.794529724E-1,1.633103943E-1,-1.442849579E0,1.529169822E0
1.551459046E1,-3.077600098E-1,-3.294648743E-1,1.916015625E-1,4.898719075E-1
1.552459246E1,-6.429130554E-1,-8.433462524E-1,4.210743713E-1,1.140996812E0
1.553459546E1,-7.635621643E-1,-1.493444366E0,8.412506104E-2,1.679428558E0
1.554459846E1,-8.776249695E-1,-1.994901581E0,-2.110610962E-1,2.189612909E0
1.555460146E1,-1.205293579E0,-2.428849182E0,-4.297563171E-1,2.745310812E0
1.556460346E1,-1.582958221E0,-2.767744446E0,-9.741741943E-1,3.333943822E0
1.557460646E1,-1.866169281E0,-2.910846863E0,-1.763183441E0,3.881292709E0
1.558460946E1,-2.195334778E0,-2.970872040E0,-2.152972870E0,4.275613131E0
1.559461146E1,-1.884131927E0,-2.600542145E0,-1.823657684E0,3.693033972E0
1.560461446E1,-8.720864868E-1,-1.684596863E0,-1.749412079E0,2.580473610E0
1.561461746E1,-5.709127808E-1,-2.202669525E0,-7.295828247E-1,2.389557603E0
1.562462046E1,-7.559280396E-1,-4.958139496E0,-1.552272034E0,5.250154562E0
1.563462246E1,-2.359094238E-1,-9.574240265E0,-1.024125320E1,1.402159039E1
1.564462546E1,1.895508270E0,-1.765458710E1,-1.465377731E1,2.302195879E1
1.565462846E1,2.238295441E0,-3.008189438E1,-9.138945465E0,3.151905234E1
1.566463046E1,-2.823578339E0,-4.036640762E1,-1.486124588E1,4.310772655E1
1.567463346E1,-5.262905731E0,-4.631354050E1,-1.545326477E1,4.910647210E1
1.568463646E1,-9.153165894E0,-4.466711426E1,-1.516241959E1,4.805029146E1
1.569463946E1,-8.855584717E0,-2.889426407E1,-1.142603943E1,3.230873340E1
1.570464146E1,-1.368843475E1,-2.272184967E1,-1.705418564E1,3.153570907E1
1.571464446E1,-1.750340149E1,-2.257710068E1,-1.447385147E1,3.202478595E1
1.572464746E1,-1.394335464E1,-2.177357162E1,-1.320239548E1,2.903116957E1
1.573464946E1,-6.921456757E0,-2.277169601E1,-1.494342499E1,2.810271612E1
1.574465246E1,-3.740272064E0,-2.558734085E1,-1.213107330E1,2.856334340E1
1.575465546E1,-3.055745544E0,-2.784045547E1,-1.050500473E1,2.991293477E1
1.576465846E1,-2.577190704E0,-2.888139084E1,-9.584119720E0,3.053902421E1
1.577466046E1,-2.373015289E0,-2.772324921E1,-8.621770935E0,2.912979029E1
1.578466346E1,-3.023861847E0,-2.365515884E1,-6.843468933E0,2.481014606E1
1.579466646E1,-4.074377289E0,-1.926793213E1,-5.382806396E0,2.041637489E1
1.580466846E1,-5.176535339E0,-1.524459869E1,-3.923940125E0,1.657080606E1
1.581467146E1,-4.675377502E0,-1.152872589E1,-2.529140625E0,1.269516553E1
1.582467446E1,-3.481310577E0,-8.610693970E0,-2.036065979E0,9.508372029E0
1.583467646E1,-1.544188843E0,-5.645659790E0,-2.177671509E0,6.245017762E0
1.584467946E1,4.252656555E-1,-3.043022003E0,-2.990331573E0,4.287530374E0
1.585468246E1,5.602848816E-1,-1.935175781E0,-3.202739868E0,3.783697546E0
1.586468546E1,1.084494781E0,-1.175505524E0,-2.988086243E0,3.389188924E0
1.587468746E1,2.174977112E0,-5.795947266E-1,-1.481169891E0,2.694498048E0
1.588469046E1,2.317780151E0,-4.421804810E-1,9.461824036E-1,2.542221381E0
1.589469346E1,1.155896301E0,2.811154175E-1,1.675316162E0,2.054703477E0
1.590469546E1,5.809419250E-1,9.285191345E-1,9.627978516E-1,1.458293868E0
1.591469846E1,4.116439819E-1,1.532812500E0,7.047344971E-1,1.736552804E0
1.592470146E1,2.546205139E-1,2.039209442E0,5.664221191E-1,2.131675579E0
1.593470446E1,-3.936813354E-2,2.246678009E0,1.335223389E-1,2.250986482E0
1.594470646E1,-1.041683807E0,1.917512512E0,-3.617976379E-1,2.211980316E0
1.595470946E1,-2.289938049E0,9.145980835E-1,-7.219487000E-1,2.569341521E0
1.596471246E1,-4.477788391E0,-2.200424194E-2,-5.440735931E0,7.046465819E0
1.597471446E1,-6.051914978E0,-3.632945251E-1,-5.459896088E0,8.158929041E0
1.598471746E1,-4.248315582E0,-6.185137939E-1,2.598745880E0,5.018388661E0
1.599472046E1,-1.526675262E0,-7.650590515E-1,3.096909943E0,3.536510130E0
1.600472246E1,2.636018372E-1,-7.360194397E-1,3.097059631E0,3.194211781E0
1.601472546E1,1.178199921E0,-5.542973328E-1,3.412603455E0,3.652569359E0
1.602472846E1,1.110390930E0,-2.498304749E-1,2.348765717E0,2.609996873E0
1.603473146E1,7.664062500E-1,1.118174744E-1,1.474134521E0,1.665218987E0
1.604473346E1,5.766009521E-1,4.995112610E-1,8.776249695E-1,1.162843818E0
1.605473646E1,4.897814941E-1,7.729925537E-1,3.779640198E-1,9.900809060E-1
1.606473946E1,5.342390442E-1,8.502319336E-1,-1.440005493E-1,1.014417003E0
1.607474146E1,1.022972717E0,8.982820129E-1,-1.638642426E0,2.130383241E0
1.608474446E1,1.832639008E0,8.997789001E-1,-2.972817993E0,3.606357528E0
1.609474746E1,1.998793488E0,8.511300659E-1,-1.591939545E0,2.693300820E0
1.610475046E1,1.550475769E0,6.001020813E-1,-2.401007080E-1,1.679805336E0
1.611475246E1,1.265318756E0,1.923500061E-1,-1.362167358E-1,1.287083944E0
1.612475546E1,9.982740784E-1,-2.368075562E-1,-5.779481506E-1,1.177562321E0
1.613475846E1,5.141807556E-1,-6.310876465E-1,-8.497828674E-1,1.176768622E0
1.614476046E1,-4.176315308E-2,-1.071022797E0,-2.122586060E-1,1.092651686E0
1.615476346E1,-2.269281006E-1,-1.621577911E0,8.297245789E-1,1.835607301E0
1.616476646E1,-2.679428101E-1,-2.196083221E0,7.710466003E-1,2.342880220E0
1.617476946E1,-2.210902405E-1,-2.753524017E0,1.688488770E-1,2.767541391E0
1.618477146E1,-3.149450684E-1,-3.272195435E0,-9.412426758E-1,3.419413858E0
1.619477446E1,-6.511459351E-1,-3.550766144E0,-2.941982117E0,4.656950720E0
1.620477742E1,-6.352789307E-1,-3.954925690E0,-7.182064819E0,8.223568058E0
1.621477942E1,2.384541321E-1,-4.506828003E0,-9.262288971E0,1.030331772E1
1.622478242E1,2.438429260E-1,-6.357130280E0,-5.913901978E0,8.686011822E0
1.623478542E1,-3.401376801E0,-1.121018829E1,-1.846859436E0,1.185953521E1
1.624478742E1,-1.043929138E1,-2.084355560E1,-2.161804504E0,2.341166405E1
1.625479042E1,-1.432640808E1,-3.449381973E1,-2.077080688E1,4.273752434E1
1.626479342E1,-8.595126343E-1,-4.382376801E1,-1.715986588E1,4.707146058E1
1.627479642E1,3.595822449E0,-4.748051376E1,6.798861694E-1,4.762133316E1
1.628479842E1,4.329596558E0,-4.021612015E1,-1.236473740E1,4.229619908E1
1.629480142E1,4.590054932E0,-2.825748825E1,-2.274939240E1,3.656622897E1
1.630480442E1,-3.474873962E0,-2.563539093E1,-5.913003845E0,2.653698611E1
1.631480642E1,-7.640860748E0,-2.910023575E1,-8.385861511E0,3.123346197E1
1.632480942E1,-9.272916870E0,-3.377366730E1,-1.362691269E1,3.758111679E1
1.633481242E1,-7.999215546E0,-3.478346741E1,-7.772736511E0,3.652796856E1
1.634481542E1,-6.437962189E0,-3.454665985E1,-6.394402771E0,3.571844693E1
1.635481742E1,-6.528074799E0,-3.308435074E1,-6.905440063E0,3.442201515E1
1.636482042E1,-6.387816467E0,-2.958792160E1,-6.650370483E0,3.099155903E1
