"Time (s)","Acceleration x (m/s^2)","Acceleration y (m/s^2)","Acceleration z (m/s^2)","Absolute acceleration (m/s^2)"
-1.158833329E-3,-1.965113525E0,-5.525010681E-1,-2.974314880E0,3.607419799E0
8.844166667E-3,-1.713337097E0,1.017883301E-1,-1.986219635E0,2.625062535E0
1.884616667E-2,-1.268761597E0,8.723858643E-1,-1.397643585E0,2.079476058E0
2.884916667E-2,-1.222058716E0,1.294058990E0,-1.008602600E0,2.045799448E0
3.885116667E-2,-1.102457428E0,1.568438416E0,-7.789801025E-1,2.069352905E0
4.885416666E-2,-8.330177307E-1,1.654359741E0,-6.015989685E-1,1.947497371E0
5.885716667E-2,-5.551954651E-1,1.430275726E0,-5.532495117E-1,1.630955450E0
6.885916667E-2,-2.074685669E-1,8.180488586E-1,-4.740641785E-1,9.679793317E-1
7.886216667E-2,1.609153748E-1,-3.719764709E-1,-3.008743286E-1,5.047629289E-1
8.886516667E-2,3.680845642E-1,-1.091230774E0,2.225871277E-1,1.172951780E0
9.886716666E-2,7.580236816E-1,-1.446591797E0,8.876541138E-1,1.858805411E0
1.088701667E-1,1.445244598E0,-1.501377869E0,1.457070007E0,2.542817426E0
1.188731667E-1,1.500779114E0,-1.186881866E0,3.870950317E-1,1.952144738E0
1.288751667E-1,5.752537537E-1,-6.478527832E-1,-4.101470947E0,4.191979728E0
1.388781667E-1,1.213077393E0,-1.483415222E-1,-1.369053040E0,1.835175248E0
1.488801667E-1,1.182840271E0,3.058140564E-1,7.988887024E-1,1.459745355E0
1.588831667E-1,4.141886902E-1,4.607418823E-1,1.202599182E0,1.352804548E0
1.688861667E-1,1.362167358E-1,-6.735992432E-2,1.235381012E0,1.244692172E0
1.788881667E-1,8.369096375E-1,-5.251080322E-1,1.278341675E0,1.615646504E0
1.888911667E-1,1.044078827E0,-5.331912231E-1,7.394622803E-1,1.386072848E0
1.988941667E-1,6.755451965E-1,-4.484674072E-1,-1.362167358E-1,8.222161073E-1
2.088961667E-1,2.459385681E-1,-2.384541321E-1,-3.905378723E-1,5.194862675E-1
2.188991667E-1,-4.373904419E-1,-3.531156921E-1,-3.658392334E-1,6.707007048E-1
2.289021667E-1,-9.142987061E-1,-7.578739929E-1,-1.266366577E-1,1.194299776E0
2.389041667E-1,-6.758445740E-1,-1.926793213E0,-6.182144165E-2,2.042821545E0
2.489064167E-1,2.664459229E-2,-3.868106232E0,1.059796143E-1,3.869649523E0
2.589084167E-1,1.018482056E0,-6.164331207E0,-3.962260437E-1,6.260453658E0
2.689114167E-1,2.852468262E0,-8.709039459E0,-3.390000458E0,9.771184503E0
2.789144167E-1,6.158044281E0,-1.297187485E1,-9.691296844E0,1.732374904E1
2.889164167E-1,8.551117859E0,-2.020228912E1,-1.238015533E1,2.518972704E1
2.989194167E-1,9.400002594E0,-2.777040115E1,-1.087847809E1,3.127133695E1
3.089224167E-1,7.923173676E0,-3.435640549E1,-1.791040512E1,3.954645231E1
3.189244167E-1,6.696474609E0,-3.671415253E1,-1.323832077E1,3.959829422E1
3.289274167E-1,7.273524628E0,-3.142056061E1,-1.409169617E1,3.519562033E1
3.389304167E-1,5.673801270E0,-2.191577591E1,-1.125644211E1,2.528241965E1
3.489324167E-1,6.279591522E0,-1.668669983E1,-5.456453247E0,1.864543115E1
3.589354167E-1,7.249125366E0,-1.485211487E1,-8.608298950E0,1.863432171E1
3.689384167E-1,7.980055389E0,-1.525103531E1,-1.119506973E1,2.053302093E1
3.789404167E-1,7.733817444E0,-1.681378555E1,-1.084165466E1,2.144893454E1
3.889434167E-1,5.843697968E0,-1.947824478E1,-1.258463013E1,2.391492716E1
3.989454167E-1,5.255271606E0,-2.250584885E1,-1.392105103E1,2.698011812E1
4.089484167E-1,5.076842651E0,-2.466675522E1,-1.178035263E1,2.780287489E1
4.189514167E-1,4.401447144E0,-2.534738983E1,-1.011611343E1,2.764414331E1
4.289534167E-1,5.209017792E0,-2.344170273E1,-9.129066010E0,2.569021486E1
4.389564167E-1,7.158713379E0,-2.030347870E1,-7.515870667E0,2.280277914E1
4.489594167E-1,7.908354492E0,-1.730880615E1,-6.213129730E0,2.001848701E1
4.589614167E-1,7.241491241E0,-1.434362228E1,-5.032235413E0,1.683752027E1
4.689644167E-1,5.618566132E0,-1.126003464E1,-4.161346436E0,1.325418687E1
4.789674167E-1,3.731590118E0,-8.012837219E0,-3.186872864E0,9.396088748E0
4.889694167E-1,1.891316986E0,-5.413642273E0,-1.982477417E0,6.067521678E0
4.989724167E-1,3.493734741E-1,-4.016148376E0,-1.401535492E0,4.267998517E0
5.089754167E-1,-1.128353577E0,-3.072959747E0,-1.523681488E0,3.610798898E0
5.189774167E-1,-8.247848511E-1,-1.545086975E0,-2.001787262E0,2.659833839E0
5.289804167E-1,-1.005459137E0,-1.769320679E-1,-1.365161133E0,1.704675321E0
5.389824167E-1,-1.090033264E0,2.924917603E-1,-1.392254791E0,1.792232505E0
5.489854167E-1,-4.299060059E-1,1.323996735E0,-2.291884003E0,2.681514275E0
5.589884167E-1,-8.068222046E-1,1.830693054E0,-1.497935028E0,2.499241580E0
5.689904167E-1,-6.792874146E-1,2.129471741E0,-1.111588440E0,2.496339349E0
5.789934167E-1,-6.629713440E-1,2.354453888E0,-9.056167603E-1,2.608280244E0
5.889964167E-1,-1.093326416E0,2.367476807E0,-8.143066406E-1,2.731923203E0
5.989984167E-1,-1.356479187E0,1.700763245E0,-8.075706482E-1,2.320517561E0
6.090014167E-1,-1.012195129E0,-1.842668152E-1,-8.186476135E-1,1.314791677E0
6.190044167E-1,-1.368304596E0,-1.597927094E0,-6.909631348E-1,2.214285103E0
6.290064167E-1,-1.149459686E0,-2.061213684E0,-3.918850708E-1,2.392369815E0
6.390094167E-1,-5.625302124E-1,-2.198478241E0,-1.966909790E-1,2.277813460E0
6.490114167E-1,6.975494385E-2,-2.364632721E0,-5.433700562E-2,2.366285310E0
6.590144167E-1,7.099736023E-1,-2.487377472E0,3.953279114E-1,2.616752446E0
6.690174167E-1,9.587562561E-1,-1.977238312E0,5.303471375E-1,2.260520512E0
6.790194167E-1,1.236428833E0,-1.033450928E0,-1.930984497E-2,1.611567544E0
6.890224167E-1,1.279239807E0,-2.412982178E-1,-1.103205872E-1,1.306464675E0
6.990254167E-1,9.794132996E-1,3.086581421E-1,-6.735992432E-3,1.026920461E0
7.090274167E-1,8.295748901E-1,6.168672180E-1,-5.777984619E-2,1.035402421E0
7.190304167E-1,8.342152405E-1,8.301736450E-1,-1.627116394E-1,1.188098660E0
7.290334167E-1,1.109343109E0,8.925938416E-1,-1.893562317E-1,1.436391897E0
7.390354167E-1,1.493743744E0,7.030879211E-1,-6.032455444E-2,1.652041782E0
7.490384167E-1,1.615740051E0,2.474354553E-1,2.568658447E-1,1.654635996E0
7.590404167E-1,1.684447174E0,-3.338058472E-1,6.324348450E-1,1.829962420E0
7.690434167E-1,1.703757019E0,-6.821315002E-1,1.116228790E0,2.148035865E0
7.790464167E-1,1.362466736E0,-1.032702484E0,1.326691132E0,2.164000782E0
7.890484167E-1,1.113085327E0,-1.905986481E0,1.618883514E0,2.737248115E0
7.990514167E-1,9.642947388E-1,-3.012784882E0,1.509610748E0,3.505090826E0
8.090544167E-1,8.803193665E-1,-4.909939728E0,-3.559597778E-1,5.000917684E0
8.190564167E-1,8.482859802E-1,-8.000562744E0,-4.412823486E0,9.176143223E0
8.290594167E-1,1.852547607E0,-1.334879105E1,-9.447304230E0,1.645824147E1
8.390624167E-1,4.809498596E0,-1.995545242E1,-6.696474609E0,2.159152913E1
8.490644167E-1,6.465654602E0,-2.552177719E1,-1.470541992E0,2.636907837E1
8.590674167E-1,7.325167236E0,-3.102882523E1,-9.638606415E0,3.330688823E1
8.690704167E-1,6.799161072E0,-3.519675797E1,-2.601994125E1,4.429534632E1
8.790724167E-1,3.476221161E0,-3.111220184E1,-1.954126373E1,3.690412179E1
8.890754167E-1,1.935175781E0,-2.173031158E1,-1.048494644E1,2.420507072E1
8.990774167E-1,2.483784943E0,-1.638103546E1,-1.126841721E1,2.003708404E1
9.090804167E-1,4.986580353E0,-1.499851044E1,-1.220951019E1,1.997231679E1
9.190834167E-1,8.755293274E0,-1.627206207E1,-8.622070312E0,2.039056794E1
9.290854167E-1,9.571246490E0,-1.847098938E1,-8.352331238E0,2.241757447E1
9.390884167E-1,9.256002045E0,-2.026800247E1,-1.163260986E1,2.513529610E1
9.490914167E-1,9.790091400E0,-2.191143494E1,-1.414693130E1,2.785843743E1
9.590934167E-1,1.042492126E1,-2.231813919E1,-1.367690872E1,2.817509809E1
9.690964167E-1,9.931696930E0,-2.315459976E1,-1.066038162E1,2.735722629E1
9.790994167E-1,8.752000122E0,-2.383718033E1,-9.214837646E0,2.701336530E1
9.891014167E-1,8.079448700E0,-2.327914078E1,-8.784183197E0,2.616023244E1
9.991044167E-1,7.556885376E0,-2.138093811E1,-7.671846313E0,2.393967955E1
1.009107417E0,6.218069458E0,-1.829061447E1,-5.821993103E0,2.017688205E1
1.019109417E0,4.645290070E0,-1.520133865E1,-4.057612152E0,1.640498805E1
1.029112417E0,3.377426605E0,-1.184950882E1,-2.875220947E0,1.265246084E1
1.039114417E0,2.489473114E0,-8.468339996E0,-2.007774811E0,9.052149931E0
1.049117417E0,1.075812836E0,-5.918841705E0,-1.378932495E0,6.171832403E0
1.059120417E0,-9.062155151E-1,-4.183799744E0,-9.178912354E-1,4.378119593E0
1.069122417E0,-2.546504517E0,-3.552861786E0,-9.388476562E-1,4.470900026E0
1.079125417E0,-3.018622742E0,-3.210224304E0,-1.616189117E0,4.693579722E0
1.089128417E0,-2.659519501E0,-1.889071655E0,-1.703008575E0,3.679928519E0
1.099130417E0,-2.240690460E0,-4.887336731E-1,-1.373693390E0,2.673310283E0
1.109133417E0,-1.625769196E0,4.667294312E-1,-1.570534058E0,2.308146240E0
1.119136417E0,-1.102756805E0,1.106199646E0,-1.254391479E0,2.003309315E0
1.129138417E0,-4.496649170E-1,1.362017670E0,-5.882766724E-1,1.550277431E0
1.139141417E0,1.293310547E-1,1.470242615E0,-6.753955078E-1,1.623113970E0
1.149144417E0,3.803590393E-1,1.450483704E0,-9.713301086E-1,1.786633189E0
1.159146417E0,4.031117249E-1,1.400188293E0,-1.221310272E0,1.901216742E0
1.169149417E0,7.830216980E-1,5.331912231E-1,-1.193019104E0,1.523387817E0
1.179151417E0,1.012644196E0,-1.045575714E0,-9.876461792E-1,1.759011602E0
1.189154417E0,8.497828674E-1,-1.747765503E0,-8.740324402E-1,2.130903067E0
1.199157417E0,8.933422852E-1,-2.302960968E0,-7.821235657E-1,2.591024301E0
1.209159417E0,1.041833496E0,-2.861898651E0,-9.433383179E-1,3.188380169E0
1.219162417E0,1.000519409E0,-1.915566559E0,-3.479813690E0,4.096283394E0
1.229165417E0,1.074914703E0,-5.933660889E-1,-5.516328735E0,5.651319107E0
1.239167417E0,1.291214905E0,-2.630030823E-1,-2.475102997E0,2.804022360E0
1.249171042E0,7.689509583E-1,3.474275208E-1,3.288661194E-1,9.056182324E-1
1.259174042E0,5.852828979E-1,4.824467468E-1,8.198451233E-1,1.116896128E0
1.269176042E0,7.908055115E-1,2.189945984E-1,1.564546509E0,1.766674211E0
1.279179042E0,5.551954651E-1,1.926493835E-1,2.297572174E0,2.371538253E0
1.289181042E0,3.354524231E-1,2.453398132E-1,2.197430420E0,2.236385567E0
1.299184042E0,4.685256958E-2,2.832110596E-1,1.907483368E0,1.928962536E0
1.309187042E0,-3.260220337E-1,4.517605591E-1,1.575024719E0,1.670652817E0
1.319189042E0,-7.219487000E-1,1.742376709E-1,1.459465027E0,1.637561253E0
1.329192042E0,-6.548881531E-1,-3.698808289E-1,1.592538300E0,1.761212241E0
1.339195042E0,-6.074368286E-1,-6.056405640E-1,8.053253174E-1,1.176575055E0
1.349197042E0,-2.513273621E-1,-7.316784668E-1,-1.221459961E0,1.445850358E0
1.359200042E0,1.284329224E-1,-6.891668701E-1,-8.186476135E-1,1.077789360E0
1.369203042E0,-1.734892273E-1,-6.845265198E-1,3.092568970E-1,7.709182165E-1
1.379205042E0,-4.129911804E-1,-7.438032532E-1,1.074465637E0,1.370504068E0
1.389208042E0,8.936416626E-2,-1.234482880E0,1.701811066E0,2.104303884E0
1.399211042E0,1.121318207E0,-2.406844940E0,2.578837280E0,3.701440099E0
1.409213042E0,2.459834747E0,-4.547992401E0,-2.209405518E-1,5.175310289E0
1.419216042E0,5.327271881E0,-8.700058136E0,-9.623188477E0,1.402414324E1
1.429219042E0,7.209607544E0,-1.532288589E1,-7.194189606E0,1.839906620E1
1.439221042E0,7.314689026E0,-2.205917770E1,1.309327240E0,2.327716337E1
1.449224042E0,1.025262955E1,-3.004058029E1,-6.953939209E0,3.249477108E1
1.459226042E0,1.253448441E1,-4.214306305E1,-2.944407074E1,5.291601236E1
1.469229042E0,4.366719360E0,-4.560581223E1,-2.727358429E1,5.331797771E1
1.479232042E0,-4.816983032E-1,-3.424129486E1,-2.209824646E1,4.075574565E1
1.489234042E0,1.989662476E0,-2.294862808E1,-1.391506348E1,2.691147114E1
1.499237042E0,4.725672913E0,-1.550520676E1,-5.736221466E0,1.719440775E1
1.509240042E0,8.873697052E0,-1.204140976E1,-6.778953094E0,1.642230963E1
1.519242042E0,1.253448441E1,-1.120854172E1,-5.531746674E0,1.770155157E1
1.529245042E0,1.239093292E1,-1.242311600E1,-8.669970703E0,1.957134185E1
1.539248042E0,1.001956421E1,-1.610471008E1,-2.070733887E1,2.808108325E1
1.549250042E0,1.020802231E1,-2.083098175E1,-2.694322128E1,3.555377186E1
1.559253042E0,1.093431198E1,-2.214988907E1,-1.711376175E1,3.005091688E1
1.569256042E0,7.737409973E0,-2.619657394E1,-1.092188782E1,2.941794746E1
1.579258042E0,4.205654297E0,-2.900293808E1,-1.069780380E1,3.119777158E1
1.589261042E0,4.042792969E0,-2.791080917E1,-8.621022491E0,2.949032846E1
1.599264042E0,4.640500031E0,-2.487841507E1,-5.857319641E0,2.597648880E1
1.609266042E0,5.744753723E0,-2.089849136E1,-4.095483398E0,2.205724645E1
1.619269042E0,7.001091156E0,-1.508562927E1,-2.192191315E0,1.677489764E1
1.629271042E0,6.347699890E0,-9.850865021E0,-5.460644531E-1,1.173162486E1
1.639274042E0,3.900139618E0,-6.561006317E0,-1.672023010E-1,7.634516982E0
1.649277042E0,1.812730408E0,-4.577331390E0,-4.056564331E-1,4.939889810E0
1.659279042E0,9.250762939E-1,-3.571572876E0,-4.340972900E-1,3.714880808E0
1.669282042E0,3.038681030E-1,-2.844834137E0,-1.540596313E0,3.249439043E0
1.679285042E0,-1.022373962E-1,-1.030307465E0,-3.035238190E0,3.206970038E0
1.689287042E0,-5.629792786E-1,8.623567200E-1,-2.742746429E0,2.929720594E0
1.699290042E0,-6.939569092E-1,1.066532135E0,-2.138453064E0,2.488382706E0
1.709293042E0,-3.149450684E-1,1.031205597E0,-1.948198700E0,2.226668712E0
1.719295042E0,-3.376977539E-1,1.333127747E0,-1.167422333E0,1.803924684E0
1.729298042E0,-4.972659302E-1,1.548080750E0,-4.252656555E-1,1.680677926E0
1.739301042E0,-6.632707214E-1,1.567839661E0,6.301895142E-2,1.703531814E0
1.749303042E0,-6.137237549E-1,1.344055023E0,3.800596619E-1,1.525642848E0
1.759306042E0,-7.285350037E-1,9.972262573E-1,4.626878357E-1,1.318826559E0
1.769308042E0,-4.893324280E-1,-1.017883301E-1,1.895059204E-1,5.345274390E-1
1.779311042E0,-3.742218018E-3,-1.013093262E0,-4.535568237E-2,1.014114934E0
1.789314042E0,-9.370513916E-2,-1.219064941E0,2.088157654E-1,1.240364466E0
1.799316042E0,-5.748046875E-2,-1.459614716E0,9.913883972E-1,1.765397994E0
1.809319042E0,1.350192261E-1,-1.155147858E0,8.229885864E-1,1.424748040E0
1.819322042E0,3.194357300E-1,-2.029779053E-1,4.129911804E-1,5.601793737E-1
1.829324042E0,-1.586700439E-1,6.586303711E-3,6.749464417E-1,6.933774307E-1
1.839327042E0,-7.810757446E-1,6.152206421E-2,3.116519165E-1,8.432029413E-1
1.849330042E0,-8.780740356E-1,2.703378296E-1,-1.103205872E-1,9.253470625E-1
1.859332042E0,-8.575666809E-1,3.884422302E-1,-3.393443298E-1,1.000731009E0
1.869335042E0,-6.673123169E-1,2.686912537E-1,-2.938389587E-1,7.770727455E-1
1.879338042E0,-1.561253357E-1,1.434017944E-1,-2.408491516E-1,3.208543422E-1
1.889340042E0,3.849993896E-1,-3.667373657E-2,-5.710624695E-1,6.896969168E-1
1.899343042E0,8.695417786E-1,-2.805166626E-1,-9.873468018E-1,1.345230913E0
1.909345042E0,9.198371887E-1,-5.215155029E-1,-1.112336884E0,1.534722195E0
1.919348042E0,4.328997803E-1,-7.111711121E-1,-1.035396881E0,1.328613289E0
1.929351042E0,1.070274353E-1,-7.770341492E-1,-1.019829254E0,1.286580215E0
1.939353042E0,4.131408691E-2,-7.212002563E-1,-8.195457458E-1,1.092470546E0
1.949356042E0,7.050338745E-2,-7.535330200E-1,-6.087840271E-1,9.712881815E-1
1.959359042E0,4.049079895E-1,-1.066532135E0,-4.379891968E-1,1.221996650E0
1.969361042E0,8.773255920E-1,-1.504970398E0,-2.543211365E-1,1.760487243E0
1.979364042E0,1.127605133E0,-2.155367889E0,-1.056802368E-1,2.434804384E0
1.989367042E0,1.496138763E0,-2.694696350E0,1.305285645E-1,3.084940409E0
1.999369042E0,1.762584686E0,-3.216511230E0,9.889933777E-1,3.798783644E0
2.009372042E0,2.258353729E0,-3.048261108E0,-2.785707092E-1,3.803900497E0
2.019375042E0,3.977229309E0,-3.027154999E0,-2.784808960E0,5.721641487E0
2.029377042E0,5.853577423E0,-4.570595398E0,-3.655997314E0,8.277742887E0
2.039380042E0,7.065307617E0,-8.776249695E0,-3.081492004E0,1.168061314E1
2.049383042E0,8.418942719E0,-1.559681625E1,-6.477030945E-1,1.773580540E1
2.059385042E0,8.633895721E0,-2.272499313E1,3.017275543E0,2.449639606E1
2.069388042E0,9.157806244E0,-3.230641846E1,-1.338771011E1,3.614970084E1
2.079390042E0,5.129982147E0,-4.338607819E1,-3.274560516E1,5.459801420E1
2.089393042E0,1.912872162E0,-4.091262177E1,-2.255464737E1,4.675696544E1
2.099396042E0,1.553020477E0,-2.955319382E1,-1.899684586E1,3.516650807E1
2.109398042E0,3.638483734E0,-2.275957123E1,-1.539338928E1,2.771629629E1
2.119401042E0,8.696914673E0,-1.953407867E1,-9.053473206E0,2.322029138E1
2.129404042E0,1.058523788E1,-1.942121338E1,-8.759933624E0,2.379006573E1
2.139406042E0,1.180804504E1,-1.989857071E1,-1.230141907E1,2.620511315E1
2.149409042E0,1.065469345E1,-1.988659561E1,-1.648506912E1,2.794202358E1
2.159412042E0,8.317004700E0,-2.044927551E1,-1.835138809E1,2.870747082E1
2.169414042E0,7.416926422E0,-2.277588730E1,-1.360939911E1,2.754936631E1
2.179417042E0,6.010151825E0,-2.582354965E1,-1.170550827E1,2.898269424E1
2.189420042E0,4.912484436E0,-2.670341995E1,-1.050949539E1,2.911450899E1
2.199422042E0,4.936284943E0,-2.513423309E1,-7.874225464E0,2.679738810E1
2.209425042E0,5.598058777E0,-2.075598770E1,-6.054759064E0,2.233404117E1
2.219427042E0,6.227799225E0,-1.428883621E1,-2.764451294E0,1.583030367E1
2.229430042E0,5.540129242E0,-9.187145233E0,-9.770182800E-1,1.077270784E1
2.239433042E0,4.423601074E0,-6.374643860E0,-1.374441833E0,7.879937890E0
2.249435333E0,2.527494049E0,-4.584666138E0,-1.716330872E0,5.509372144E0
2.259438333E0,5.679190063E-1,-3.537294159E0,-1.636097717E0,3.938501962E0
2.269441333E0,-7.776329041E-1,-2.543211365E0,-2.183060303E0,3.440696044E0
2.279443333E0,-1.323847046E0,-1.665287018E0,-3.476370850E0,4.075647941E0
2.289446333E0,-1.286125488E0,-5.791456604E-1,-3.946393433E0,4.190888879E0
2.299449333E0,-1.639690247E0,1.365161133E-1,-2.946323090E0,3.374617090E0
2.309451333E0,-1.714534607E0,7.755372620E-1,-2.057022400E0,2.787907480E0
2.319454333E0,-8.776249695E-1,1.376088409E0,-8.193960571E-1,1.826267997E0
2.329457333E0,-1.695973206E-1,1.514550476E0,2.237846375E-1,1.540359036E0
2.339459333E0,1.139131165E-1,1.449286194E0,9.421408081E-1,1.732349841E0
2.349462333E0,4.385879517E-1,1.381626892E0,1.294508057E0,1.943451406E0
2.359464333E0,9.698332214E-1,1.081950073E0,9.803114319E-1,1.752770077E0
2.369467333E0,1.348845062E0,1.490899658E-1,3.565585327E-1,1.403119670E0
2.379470333E0,1.340761871E0,-7.367678833E-1,2.499801636E-1,1.550148184E0
2.389472333E0,8.063731384E-1,-1.136436768E0,6.283932495E-1,1.528595513E0
2.399475333E0,2.701881409E-1,-1.119521942E0,1.630708923E0,1.996382379E0
2.409478333E0,-5.867797852E-2,-7.277865601E-1,2.533631287E0,2.636741147E0
2.419480333E0,-2.703378296E-1,-3.100053406E-1,1.930535431E0,1.973867499E0
2.429483333E0,-4.186793518E-1,3.891906738E-2,7.508386230E-1,8.605612885E-1
2.439486333E0,-4.291575623E-1,3.399430847E-1,-4.191284180E-3,5.474989324E-1
2.449488333E0,-8.322692871E-2,4.673281860E-1,-2.233355713E-1,5.245961614E-1
2.459491333E0,4.797523499E-1,4.430786133E-1,-2.121089172E-1,6.866375809E-1
2.469494333E0,9.788145447E-1,2.987786865E-1,-2.489323425E-1,1.053239729E0
2.479496333E0,1.415157166E0,-3.353027344E-2,-2.999761963E-1,1.446989910E0
2.489499333E0,1.764530640E0,-3.544628906E-1,-3.290158081E-1,1.829607532E0
2.499501333E0,1.937421112E0,-5.659730530E-1,-5.165757751E-1,2.083453046E0
2.509504333E0,2.059567108E0,-7.086264038E-1,-1.006506958E0,2.399379984E0
2.519507333E0,2.001787262E0,-7.785310364E-1,-1.471589813E0,2.603620440E0
2.529509333E0,1.681902466E0,-6.956034851E-1,-1.664837952E0,2.466646614E0
2.539512333E0,1.117875366E0,-7.273374939E-1,-1.723066864E0,2.178904445E0
2.549515333E0,2.826123047E-1,-8.491841125E-1,-1.913171539E0,2.112157359E0
2.559517333E0,-3.818559265E-1,-9.632469177E-1,-1.530716858E0,1.848446015E0
2.569520333E0,-8.092172241E-1,-1.339714050E0,-1.312470703E0,2.042607549E0
2.579523333E0,-8.208929443E-1,-2.235002289E0,-9.229806519E-1,2.553623649E0
2.589525333E0,-4.760101318E-1,-3.281176758E0,-4.864883423E-2,3.315881975E0
2.599528333E0,-2.636018372E-1,-4.459526367E0,5.924679565E-1,4.506426481E0
2.609531333E0,1.632056122E0,-6.667584686E0,-1.166075134E-1,6.865412591E0
2.619533333E0,6.746021576E0,-1.290346710E1,-6.039790192E0,1.576348108E1
2.629536333E0,1.103610031E1,-2.468846008E1,-1.777358963E1,3.236071785E1
2.639539333E0,1.446157700E1,-3.117641830E1,-3.585044861E0,3.455370912E1
2.649541333E0,9.212592316E0,-3.282628738E1,6.933581543E0,3.479240655E1
2.659544333E0,-1.971400452E-1,-3.251523422E1,-1.822564957E1,3.727537556E1
2.669546333E0,1.981878662E0,-2.587638977E1,-3.083408020E1,4.030205817E1
2.679549333E0,7.441325684E0,-2.007580215E1,-4.898862762E0,2.196383428E1
2.689552333E0,6.626569977E0,-1.970771759E1,-7.032825165E0,2.194917292E1
2.699554333E0,6.603517914E0,-2.522718979E1,-1.585772369E1,3.052023844E1
2.709557333E0,1.038974442E1,-2.854728561E1,-1.404155045E1,3.346728916E1
2.719560333E0,1.412956741E1,-2.980691620E1,-1.540596313E1,3.640660144E1
2.729562333E0,1.235096603E1,-2.950918533E1,-1.280152908E1,3.445602310E1
2.739565333E0,8.712332611E0,-2.693259338E1,-9.355545044E0,2.981267430E1
2.749568333E0,7.115303650E0,-2.442366074E1,-8.422684937E0,2.679709632E1
2.759570333E0,6.312672729E0,-2.249417313E1,-8.506510620E0,2.486359557E1
2.769573333E0,5.876479797E0,-2.127181503E1,-7.730524292E0,2.338341582E1
2.779576333E0,5.335205383E0,-1.958676910E1,-4.977000275E0,2.090159018E1
2.789578333E0,5.144202576E0,-1.661380142E1,-5.123844910E0,1.813105084E1
2.799581333E0,4.506828003E0,-1.229647934E1,-3.939358063E0,1.367601714E1
2.809584333E0,3.978426819E0,-7.925119629E0,-2.693349152E0,9.267660478E0
2.819586333E0,3.547323303E0,-5.195994873E0,-2.214944000E0,6.669920709E0
2.829589333E0,1.831740875E0,-3.553310852E0,-1.257085876E0,4.190651208E0
2.839592333E0,-8.496331787E-1,-2.479743347E0,-5.442681885E-1,2.677168554E0
2.849594333E0,-2.210603027E0,-1.659449158E0,-1.253493347E0,3.035091897E0
2.859597333E0,-1.948647766E0,-8.378077698E-1,-2.838098145E0,3.543155522E0
2.869599333E0,-1.350192261E0,8.277786255E-2,-3.137325897E0,3.416531150E0
2.879602333E0,-1.315314789E0,6.367758179E-1,-2.010768585E0,2.485704475E0
2.889605333E0,-1.004860382E0,1.081950073E0,-6.484515381E-1,1.612715023E0
2.899607333E0,-8.235873413E-1,1.301393738E0,4.285588074E-1,1.598619536E0
2.909610333E0,-7.903564453E-1,1.371747437E0,8.180488586E-1,1.782009617E0
2.919613333E0,-7.951464844E-1,1.391057281E0,3.926335144E-1,1.649684627E0
2.929615333E0,-5.712121582E-1,1.271006927E0,9.819580078E-2,1.396919595E0
2.939618333E0,3.308120728E-2,5.771997070E-1,9.235794067E-2,5.854774609E-1
2.949621333E0,4.974156189E-1,-6.777905273E-1,7.424560547E-2,8.439992339E-1
2.959623333E0,4.628375244E-1,-1.055604858E0,1.871109009E-2,1.152766367E0
2.969626333E0,5.786965942E-1,-1.417552185E0,1.142124939E-1,1.535378924E0
2.979629333E0,5.918692017E-1,-2.085014191E0,3.028202820E-1,2.188445441E0
2.989631333E0,6.614744568E-1,-2.477048950E0,5.598358154E-2,2.564459811E0
2.999634333E0,9.589059448E-1,-1.334025879E0,-2.329605560E0,2.850646896E0
3.009636333E0,1.615290985E0,-4.507127380E-1,-3.256927185E0,3.663315660E0
3.019639333E0,1.718426514E0,-4.709207153E-1,-1.326541443E0,2.221366292E0
3.029642333E0,1.621727600E0,-9.565109253E-2,3.826043701E-1,1.668992404E0
3.039644333E0,1.478924561E0,4.668791199E-1,1.143023071E0,1.926576162E0
3.049647333E0,1.576820984E0,6.207591248E-1,6.878196716E-1,1.828880042E0
3.059650333E0,1.459914093E0,4.653822327E-1,2.987786865E-1,1.561152935E0
3.069652333E0,1.191971283E0,1.663041687E-1,-1.447489929E-1,1.212190120E0
3.079655333E0,7.768844604E-1,-9.190887451E-2,-2.269281006E-1,8.145508388E-1
3.089658333E0,3.486250305E-1,-4.179309082E-1,-1.896556091E-1,5.763461686E-1
3.099660333E0,-1.660047913E-1,-7.455995178E-1,-2.649490356E-1,8.085012203E-1
3.109663333E0,-5.426216125E-1,-9.830058289E-1,-6.900650024E-2,1.124944697E0
3.119666333E0,-7.909552002E-1,-1.227447510E0,3.094065857E-1,1.492638588E0
3.129668333E0,-1.009051666E0,-1.492546234E0,5.213658142E-1,1.875553742E0
3.139671333E0,-1.294058990E0,-1.781146088E0,8.806187439E-1,2.371193672E0
3.149674333E0,-1.730102234E0,-1.521436157E0,9.454339600E-1,2.490354813E0
3.159676333E0,-1.875449982E0,-9.614506531E-1,5.162763977E-1,2.169848223E0
3.169679333E0,-1.563798065E0,-7.349716187E-1,2.402503967E-1,1.744525128E0
3.179681333E0,-5.466632080E-1,-8.376580811E-1,-3.802093506E-1,1.070079845E0
3.189684333E0,1.689835968E0,-2.812950439E0,-3.437002716E0,4.751970480E0
3.199687333E0,5.384752350E0,-8.135731659E0,-8.333769836E0,1.283111091E1
3.209689333E0,9.981543274E0,-1.719624023E1,-1.022044647E1,2.235619401E1
3.219692333E0,1.561687454E1,-2.916295532E1,-6.512956238E0,3.371621765E1
3.229695333E0,2.336865463E1,-4.050382187E1,-1.005489075E1,4.783047599E1
3.239697333E0,1.946207840E1,-4.700330612E1,-3.045970871E1,5.929483229E1
3.249700167E0,3.502865753E0,-3.982588165E1,-3.932547226E1,5.607908421E1
3.259703167E0,-5.901777191E0,-2.569002731E1,-2.250060974E1,3.465668646E1
3.269705167E0,3.094065857E-1,-1.434287384E1,-4.878056030E0,1.515286089E1
3.279708167E0,4.850064240E0,-8.956923981E0,-8.928333435E0,1.354491596E1
3.289711167E0,7.710915070E0,-6.237828369E0,-8.157885590E0,1.284211086E1
3.299713167E0,1.205622894E1,-5.675148468E0,-4.270768890E0,1.399283507E1
3.309716167E0,1.531689835E1,-9.496701508E0,-1.220606735E1,2.176655220E1
3.319718167E0,1.488804016E1,-1.616009491E1,-2.323468323E1,3.197894482E1
3.329721167E0,1.121677460E1,-2.514366348E1,-2.309622116E1,3.593682342E1
3.339724167E0,8.863368530E0,-2.708258148E1,-1.239871674E1,3.107657797E1
3.349726167E0,8.957672424E0,-2.861733994E1,-7.018155670E0,3.079685941E1
3.359729167E0,9.391170959E0,-2.812950439E1,-8.892857208E0,3.096039436E1
3.369732167E0,9.473050690E0,-2.399809570E1,-8.886570282E0,2.728769719E1
3.379734167E0,7.983647919E0,-2.049672684E1,-7.095694427E0,2.311283895E1
3.389737167E0,5.967640228E0,-1.688294174E1,-5.032534790E0,1.860034565E1
3.399740167E0,4.284989319E0,-1.224363922E1,-3.102448425E0,1.333765426E1
3.409742167E0,2.881358185E0,-8.429720306E0,-1.761985931E0,9.081134503E0
3.419745167E0,2.087858276E0,-5.536536713E0,-1.416204987E0,6.084244203E0
3.429748167E0,1.411115570E0,-4.067341919E0,-1.762135620E0,4.651842579E0
3.439750167E0,2.395019531E-1,-3.331322479E0,-2.675985260E0,4.279715850E0
3.449753167E0,-1.301094360E0,-2.995271301E0,-3.042423248E0,4.463276367E0
3.459756167E0,-3.190315704E0,-3.096909943E0,-2.054926758E0,4.898131222E0
3.469758167E0,-2.879561920E0,-2.704875183E0,-1.698218536E0,4.300252644E0
3.479761167E0,-1.307530975E0,-1.807640991E0,-1.504671021E0,2.690954865E0
3.489764167E0,1.074765015E-1,-8.155041504E-1,-1.634002075E0,1.829360817E0
3.499766167E0,9.412426758E-1,-1.947450256E-1,-1.593436432E0,1.860887708E0
3.509769167E0,1.130898285E0,2.529739380E-1,-1.276994476E0,1.724425016E0
3.519771167E0,9.165440369E-1,6.426136780E-1,-1.155147858E0,1.608530971E0
3.529774167E0,3.559597778E-1,1.000220032E0,-8.699908447E-1,1.372600286E0
3.539777167E0,-6.227050781E-2,1.212628326E0,-2.451901245E-1,1.238734544E0
3.549779167E0,-1.939965820E-1,1.222657471E0,2.944377136E-1,1.272485572E0
3.559782167E0,-2.977308655E-1,1.027463379E0,7.830216980E-1,1.325687611E0
3.569785167E0,-2.978805542E-2,-2.597099304E-1,1.286873932E0,1.313156919E0
3.579787167E0,-4.775070190E-2,-1.523082733E0,1.677411804E0,2.266224063E0
3.589790167E0,3.341052246E-1,-2.027234344E0,1.813778229E0,2.740638037E0
3.599793167E0,1.460213470E0,-1.932780762E0,8.669970703E-1,2.572848377E0
3.609795167E0,1.555116119E0,-1.280587006E0,-1.630559235E0,2.591720016E0
3.619798167E0,1.291364594E0,-7.830216980E-1,-2.738704834E0,3.127498947E0
3.629801167E0,2.025438080E0,-3.511697388E-1,-1.505868530E0,2.548207141E0
3.639803167E0,2.285896454E0,2.499801636E-1,-7.015910339E-1,2.404171928E0
3.649806167E0,1.863474884E0,9.213340759E-1,-5.002597046E-1,2.138142861E0
3.659809167E0,1.351090393E0,1.384770355E0,-5.275030518E-1,2.005316348E0
3.669811167E0,1.062939606E0,1.413360901E0,-5.367837524E-1,1.848125114E0
3.679814167E0,6.282435608E-1,1.287472687E0,-7.387138367E-1,1.611823199E0
3.689816167E0,1.564247131E-1,1.185983734E0,-1.209035797E0,1.700821468E0
3.699819167E0,-9.041198730E-2,1.082848206E0,-1.637594604E0,1.965311846E0
3.709822167E0,3.849993896E-1,4.355941772E-1,-1.628613281E0,1.729262281E0
3.719824167E0,4.647834778E-1,-2.142045593E-1,-1.128203888E0,1.238850793E0
3.729827167E0,-6.601272583E-2,-4.966671753E-1,-1.002914429E-2,5.011352579E-1
3.739830167E0,-4.161346436E-1,-7.304809570E-1,6.819818115E-1,1.082529289E0
3.749832167E0,-6.096821594E-1,-1.154249725E0,5.272036743E-1,1.407816919E0
3.759835167E0,-9.265731812E-1,-1.483415222E0,-3.592529297E-3,1.749020151E0
3.769838167E0,-1.277593231E0,-1.812880096E0,-4.824467468E-1,2.269699005E0
3.779840167E0,-1.449735260E0,-2.321522369E0,-2.968327332E-1,2.753054323E0
3.789843167E0,-1.900148621E0,-3.165617065E0,6.035449219E-1,3.741117835E0
3.799846167E0,-2.041604462E0,-4.389771423E0,3.047961731E0,5.720866424E0
3.809848167E0,-1.839524689E0,-5.865253143E0,3.963607635E0,7.314043410E0
3.819851167E0,5.574407959E-1,-9.881401520E0,-2.280357971E0,1.015642007E1
3.829854167E0,7.717800751E0,-1.882590134E1,-1.665646271E1,2.629480480E1
3.839856167E0,2.032668045E1,-2.750470367E1,-2.092663284E1,4.009497006E1
3.849859167E0,2.049029022E1,-3.679258942E1,3.231330414E0,4.223728360E1
3.859862167E0,1.145388153E1,-4.542843109E1,-2.127555725E1,5.145467024E1
3.869864167E0,1.073387878E1,-4.015714279E1,-3.918910583E1,5.712791163E1
3.879867167E0,7.849975891E0,-2.750275772E1,-1.860481110E0,2.866156300E1
3.889869167E0,1.014949402E1,-2.292782135E1,-3.256627808E0,2.528443880E1
3.899872167E0,1.297426987E1,-2.347523300E1,-1.199814972E1,2.938322378E1
3.909875167E0,1.208152634E1,-2.286016205E1,-1.360895004E1,2.921906584E1
3.919877167E0,1.122860001E1,-2.250105881E1,-1.101948486E1,2.745556687E1
3.929880167E0,1.184980820E1,-2.417502777E1,-1.485106705E1,3.074742452E1
3.939883167E0,1.100152222E1,-2.611888550E1,-1.450408859E1,3.183705791E1
3.949885167E0,8.396938477E0,-2.619881927E1,-1.073328003E1,2.953117010E1
3.959888167E0,5.828579407E0,-2.477647705E1,-1.001522324E1,2.735234632E1
3.969891167E0,2.869383087E0,-2.263637741E1,-8.257278900E0,2.426564643E1
3.979893167E0,1.510808258E0,-1.965622467E1,-6.387217712E0,2.072308519E1
3.989896167E0,1.312321014E0,-1.474254272E1,-3.533102875E0,1.521668717E1
3.999899167E0,2.283950500E0,-9.386530609E0,2.421963501E-1,9.663438613E0
4.009901167E0,3.141966248E0,-5.586832123E0,1.901346130E0,6.685788074E0
4.019904167E0,3.380719757E0,-3.822151794E0,1.335971832E0,5.274744653E0
4.029907167E0,2.236199799E0,-3.153192902E0,7.020401001E-1,3.928877106E0
4.039909167E0,-2.926414490E-1,-2.762205963E0,3.517684937E-1,2.799850331E0
4.049912167E0,-1.975591736E0,-2.458188171E0,-8.038284302E-2,3.154697005E0
4.059915167E0,-2.359992371E0,-1.285526733E0,-5.568420410E-2,2.687981343E0
4.069917167E0,-1.664688263E0,4.770579529E-1,1.776805115E0,2.481090026E0
4.079920167E0,-1.080153809E0,1.213526459E0,3.231929169E0,3.617284184E0
4.089922167E0,-8.349636841E-1,1.424288177E0,3.106040955E0,3.517563301E0
4.099925167E0,-5.599855042E-1,1.626667328E0,1.837728424E0,2.517315261E0
4.109928167E0,-2.778222656E-1,1.626517639E0,4.363426208E-1,1.706792232E0
4.119930167E0,-8.307723999E-2,1.550475769E0,-1.643582153E-1,1.561374574E0
4.129933167E0,-3.353027344E-2,1.288819885E0,-1.751358032E-1,1.301097047E0
4.139936167E0,2.700384521E-1,7.646099854E-1,-9.894424438E-2,8.169082928E-1
4.149938167E0,1.428030396E0,-2.874023438E-2,-1.662442932E0,2.191760323E0
4.159941167E0,1.867516479E0,5.284011841E-2,-2.267634430E0,2.938124536E0
4.169944167E0,5.764512634E-1,1.278341675E-1,-5.942642212E-2,5.934383988E-1
4.179946167E0,8.322692871E-2,1.422042847E-2,8.963360596E-1,9.003039897E-1
4.189949167E0,-8.128097534E-2,1.263372803E-1,7.515870667E-1,7.664534063E-1
4.199952167E0,-2.576142883E-1,3.314108276E-1,2.513273621E-1,4.892480977E-1
4.209954167E0,7.544311523E-2,4.616400146E-1,4.490661621E-3,4.677855628E-1
4.219957167E0,4.683760071E-1,4.071533203E-1,-4.939727783E-2,6.225672665E-1
4.229960167E0,6.743476868E-1,3.170407104E-1,-1.490899658E-1,7.599259389E-1
4.239962167E0,7.466473389E-1,1.471440125E-1,-3.995191956E-1,8.595052046E-1
4.249965208E0,4.682263184E-1,-1.727407837E-1,-9.858499146E-1,1.104977519E0
4.259968208E0,1.167572021E-1,-5.614823914E-1,-1.994003448E0,2.074836011E0
4.269970208E0,3.436853027E-1,-8.669970703E-1,-3.165018311E0,3.299567307E0
4.279973208E0,9.385482788E-1,-9.351054382E-1,-2.962639160E0,3.245385315E0
4.289975208E0,1.472787323E0,-9.433383179E-1,-2.530936890E0,3.076464077E0
4.299978208E0,1.633103943E0,-1.107696533E0,-2.780617676E0,3.409670770E0
4.309981208E0,1.276395721E0,-1.469793549E0,-3.424877930E0,3.939450209E0
4.319983208E0,6.620732117E-1,-1.779050446E0,-4.019142151E0,4.444869521E0
4.329986208E0,-2.769241333E-2,-1.904788971E0,-3.560944977E0,4.038479543E0
4.339989208E0,-4.287084961E-1,-1.621278534E0,-3.145109711E0,3.564274141E0
4.349991208E0,1.275347900E-1,-1.675615540E0,-3.020718384E0,3.456688027E0
4.359994208E0,4.815486145E-1,-2.214195557E0,-1.539398804E0,2.739397691E0
4.369997208E0,7.105723572E-1,-2.704575806E0,4.539310455E0,5.331508489E0
4.379999208E0,1.800306244E0,-3.957919464E0,5.992039490E0,7.403429361E0
4.390002208E0,9.040899353E0,-7.879314880E0,-1.262729141E1,1.741464764E1
4.400005208E0,1.460063782E1,-1.959919327E1,-1.654614212E1,2.951409528E1
4.410007208E0,1.164248932E1,-3.667298813E1,-1.337513626E1,4.073511858E1
4.420010208E0,1.270018982E1,-4.950759842E1,-2.334650070E1,5.619035698E1
4.430013208E0,1.138173157E1,-4.286261673E1,-1.649539764E1,4.731644397E1
4.440015208E0,5.767506409E0,-2.869727371E1,-8.675658875E0,3.052973478E1
4.450018208E0,7.049590302E0,-2.528916092E1,-6.719227295E0,2.709956455E1
4.460021208E0,8.188272400E0,-2.356848907E1,-1.141122025E1,2.743606075E1
4.470023208E0,9.896819458E0,-2.142599442E1,-1.209948898E1,2.652202680E1
4.480026208E0,1.086380859E1,-2.214629654E1,-1.152857620E1,2.722845675E1
4.490029208E0,9.595645752E0,-2.430690353E1,-1.388317978E1,2.959129361E1
4.500031208E0,7.562723236E0,-2.747731064E1,-1.255948242E1,3.114382734E1
4.510034208E0,6.826703796E0,-3.003114990E1,-1.159952866E1,3.290931349E1
4.520037208E0,5.989494781E0,-3.014341644E1,-1.011985565E1,3.235600533E1
4.530039208E0,4.610262909E0,-2.690939163E1,-7.713459778E0,2.837018406E1
4.540042208E0,3.421285400E0,-2.084535187E1,-5.616171112E0,2.185807096E1
4.550044208E0,2.766846313E0,-1.474209366E1,-3.709286499E0,1.545132908E1
4.560047208E0,2.347418518E0,-9.385183411E0,-2.622995453E0,1.002357953E1
4.570050208E0,1.637145538E0,-5.032534790E0,-1.325194244E0,5.455528546E0
4.580052208E0,2.695893860E-1,-2.318977661E0,-1.298399963E0,2.671362629E0
4.590055208E0,-1.133293304E0,-1.293759613E0,-9.294172668E-1,1.954989541E0
4.600058208E0,-1.583706665E0,-6.692582703E-1,-1.104553070E0,2.043543716E0
4.610060208E0,-1.305435333E0,-2.787203979E-1,-2.153871002E0,2.533970553E0
4.620063208E0,-1.463057556E0,-3.320095825E-1,-2.551444244E0,2.959837075E0
4.630066208E0,-8.129594421E-1,5.965095520E-1,-1.559008026E0,1.856672487E0
4.640068208E0,1.101708984E-1,1.151255951E0,1.893562317E-1,1.171914534E0
4.650071208E0,3.679348755E-1,1.138831787E0,1.214125214E0,1.704820796E0
4.660074208E0,3.121009827E-1,1.153052216E0,1.472937012E0,1.896438735E0
4.670076208E0,4.784051514E-1,1.304686890E0,1.490151215E0,2.037554910E0
4.680079208E0,8.219407654E-1,1.442101135E0,1.430724792E0,2.191395842E0
4.690081208E0,1.295256500E0,5.780978394E-1,1.240620117E0,1.884416299E0
4.700084208E0,1.736838226E0,-8.252339172E-1,1.151405640E0,2.241283782E0
4.710087208E0,2.021695862E0,-1.323847046E0,1.188977509E0,2.693230899E0
4.720089208E0,2.714754639E0,-1.628613281E0,6.985972595E-1,3.241961150E0
4.730092208E0,3.255729675E0,-1.446741486E0,-1.538500671E0,3.880698515E0
4.740095208E0,1.424288177E0,-7.426057434E-1,-7.774832153E-1,1.784528020E0
4.750097208E0,4.192781067E-1,-6.388714600E-1,5.938151550E-1,9.677640784E-1
4.760100208E0,-8.003855896E-1,-5.101391602E-1,2.417472839E-1,9.794390252E-1
4.770103208E0,-1.331181793E0,-1.228944397E-1,-9.970765686E-1,1.667725905E0
4.780105208E0,-1.021625519E0,2.823129272E-1,-2.196532288E0,2.438887734E0
4.790108208E0,-4.348457336E-1,2.860551453E-1,-2.841990051E0,2.889260426E0
4.800111208E0,6.930587769E-2,2.112107849E-1,-2.966830444E0,2.975146414E0
4.810113208E0,5.043013000E-1,7.005432129E-2,-2.620600433E0,2.669601851E0
4.820116208E0,8.023315430E-1,-1.749861145E-1,-2.237696686E0,2.383619622E0
4.830119208E0,1.037941589E0,-2.351609802E-1,-1.886826324E0,2.166272607E0
4.840121208E0,1.078058167E0,-1.995350647E-1,-1.382225647E0,1.764248109E0
4.850124208E0,8.710386658E-1,-2.077679443E-1,-7.366181946E-1,1.159518107E0
4.860127208E0,6.915618896E-1,-3.086581421E-1,-3.011737061E-1,8.150050902E-1
4.870129208E0,2.954855347E-1,-6.761439514E-1,-2.574645996E-1,7.815179872E-1
4.880132208E0,-1.187031555E-1,-9.199868774E-1,-3.580554199E-1,9.943188510E-1
4.890134208E0,-4.831951904E-1,-1.088386688E0,-1.911524963E-1,1.206069008E0
4.900137208E0,-9.725276184E-1,-1.573677521E0,5.418731689E-1,1.927666319E0
4.910140208E0,-1.095871124E0,-2.349813538E0,1.767973480E0,3.138198115E0
4.920142208E0,-5.595364380E-1,-3.137625275E0,3.244652710E0,4.548136387E0
4.930145208E0,2.395019531E-1,-3.831731873E0,5.002597046E0,6.305989814E0
4.940148208E0,1.188827820E0,-4.793930969E0,3.871848450E0,6.275850232E0
4.950150208E0,4.877906342E0,-9.541757812E0,-5.159321136E0,1.189359941E1
4.960153208E0,1.012614258E1,-1.888877060E1,-2.029075516E1,2.951337262E1
4.970156208E0,1.113803833E1,-2.214494934E1,-3.099903717E0,2.498127463E1
4.980158208E0,9.719887390E0,-2.703258545E1,9.263187103E0,3.018349752E1
4.990161208E0,8.968300323E0,-4.038646591E1,-2.460927475E1,4.813640455E1
5.000164208E0,4.461622009E0,-3.888433960E1,-3.734119858E1,5.409494476E1
5.010166208E0,9.637857971E0,-3.062062408E1,-1.197479828E1,3.426232215E1
5.020169208E0,1.021535706E1,-2.494592468E1,-6.611152039E0,2.775536001E1
5.030172208E0,1.070992859E1,-2.437950256E1,-1.608614868E1,3.110991635E1
5.040174208E0,1.105301514E1,-2.606350067E1,-9.168583832E0,2.975799288E1
5.050177208E0,1.244706619E1,-2.667138657E1,-1.194426178E1,3.176409463E1
5.060180208E0,1.323143509E1,-2.833008728E1,-1.554696991E1,3.491952166E1
5.070182208E0,1.113025452E1,-2.748105286E1,-1.209080704E1,3.201996950E1
5.080185208E0,8.562643890E0,-2.590677658E1,-1.122051682E1,2.950220230E1
5.090188208E0,5.709576874E0,-2.356699219E1,-9.336384888E0,2.598404263E1
5.100190208E0,3.333867188E0,-2.025258453E1,-6.996301117E0,2.168478914E1
5.110193208E0,1.661694489E0,-1.691003540E1,-4.584067383E0,1.759898291E1
5.120196208E0,1.815724182E-1,-1.361388977E1,-3.155138855E0,1.397590299E1
5.130198208E0,-1.075812836E0,-1.004426285E1,-1.948198700E0,1.028786020E1
5.140201208E0,-1.088386688E0,-6.819818115E0,-1.186582489E0,7.007316370E0
5.150203208E0,7.943980408E-1,-3.912863159E0,-6.956034851E-1,4.052829944E0
5.160206208E0,1.234183502E0,-1.572629700E0,-2.959346008E-1,2.020878615E0
5.170209208E0,1.356179810E-1,-6.851252747E-1,-2.595602417E-1,7.450908655E-1
5.180211208E0,-4.564009094E-1,-1.326092377E0,-1.158141632E0,1.818822372E0
5.190214208E0,-6.944059753E-1,-1.255439301E0,-2.096689911E0,2.540558222E0
5.200217208E0,-2.555186462E-1,1.676513672E-2,-8.249345398E-1,8.637637659E-1
5.210219208E0,5.511538696E-1,6.950047302E-1,6.725514221E-1,1.113161075E0
5.220222208E0,7.556286621E-1,9.166937256E-1,8.237370300E-1,1.445629536E0
5.230225208E0,4.595443726E-1,1.102307739E0,6.583309937E-1,1.363694643E0
5.240227208E0,1.330732727E-1,1.160686340E0,4.384382629E-1,1.247849906E0
5.250229417E0,-4.834945679E-2,9.553134155E-1,1.989363098E-1,9.770041183E-1
5.260232417E0,3.170407104E-1,1.354682922E-1,2.188449097E-1,4.083620511E-1
5.270234417E0,9.547146606E-1,-9.312135315E-1,5.219645691E-1,1.432161212E0
5.280237417E0,1.221010895E0,-1.523831177E0,7.728428650E-1,2.100051227E0
5.290240417E0,1.207239532E0,-1.947001190E0,7.357200623E-1,2.406143166E0
5.300242417E0,1.394500122E0,-1.983076172E0,-1.198557587E0,2.704396787E0
5.310245417E0,1.117426300E0,-1.057850189E0,-4.478536835E0,4.735502163E0
5.320248417E0,5.321434021E-1,-7.520361328E-1,-2.837200012E0,2.983025118E0
5.330250417E0,8.352630615E-2,-4.137396240E-1,-2.625689850E0,2.659399238E0
5.340253417E0,-6.125262451E-1,2.921923828E-1,-2.681972809E0,2.766503739E0
5.350256417E0,-7.776329041E-1,7.226971436E-1,-2.556982727E0,2.768603395E0
5.360258417E0,-4.323010254E-1,8.397537231E-1,-1.880389709E0,2.104266131E0
5.370261417E0,-2.694396973E-2,7.659571838E-1,-9.759704590E-1,1.240941063E0
5.380264417E0,1.429527283E-1,4.902305603E-1,-4.390370178E-1,6.734352143E-1
5.390266417E0,1.002914429E-2,9.445358276E-2,-1.770817566E-1,2.009477831E-1
5.400269417E0,-1.710942078E-1,-3.092568970E-1,1.841171265E-1,3.985124496E-1
5.410272417E0,-6.489006042E-1,-7.705975342E-1,8.249345398E-1,1.302078933E0
5.420274417E0,-3.896397400E-1,-1.035845947E0,4.014651489E-1,1.177272364E0
5.430277417E0,1.062789917E-2,-1.096469879E0,-3.249742126E-1,1.143664018E0
5.440279417E0,-2.270777893E-1,-1.116977234E0,-4.809498596E-1,1.237139940E0
5.450282417E0,-7.792794800E-1,-1.074765015E0,-5.301974487E-1,1.429512392E0
5.460285417E0,-1.368154907E0,-1.020727386E0,-9.957293701E-1,1.976160223E0
5.470287417E0,-1.587598572E0,-9.970765686E-1,-2.028581543E0,2.762204552E0
5.480290417E0,-1.277892609E0,-1.276994476E0,-3.073857880E0,3.565434991E0
5.490293417E0,-4.718188477E-1,-1.919757843E0,-3.613934784E0,4.119297006E0
5.500295417E0,9.172924805E-1,-2.760709076E0,-2.242037659E0,3.672829013E0
5.510298417E0,2.466421051E0,-4.326902161E0,3.667074280E0,6.184880668E0
5.520301417E0,7.234006805E0,-8.600664825E0,6.361770630E-2,1.123860922E1
5.530303417E0,1.667711975E1,-1.806413544E1,-1.418869446E1,2.838588316E1
5.540306417E0,1.515762955E1,-3.063664078E1,-8.199499054E0,3.515094986E1
5.550309417E0,9.770482178E0,-4.588094009E1,-2.184108124E1,5.174510427E1
5.560311417E0,4.190685425E0,-4.898099350E1,-3.118554932E1,5.821716289E1
5.570314417E0,-7.792794800E-1,-3.416809708E1,-1.922542053E1,3.921330041E1
5.580317417E0,1.915865936E0,-2.278067734E1,-1.009201355E1,2.498956862E1
5.590319417E0,7.005881195E0,-1.619437363E1,-4.419858856E0,1.818997693E1
5.600322417E0,1.062221100E1,-1.612177460E1,-6.052214355E0,2.023295038E1
5.610325417E0,1.323038727E1,-2.025003983E1,-5.918692017E0,2.490257367E1
5.620327417E0,1.139625137E1,-2.543046707E1,-1.143666733E1,3.012275818E1
5.630330417E0,9.336085510E0,-2.731609589E1,-1.655257874E1,3.327640981E1
5.640333417E0,8.432863770E0,-2.707030701E1,-1.173125473E1,3.068447572E1
5.650335417E0,6.759194183E0,-2.782952820E1,-9.925709381E0,3.030988374E1
5.660338417E0,5.118755493E0,-2.708542557E1,-1.066217789E1,2.955510063E1
5.670340417E0,4.110003204E0,-2.364797379E1,-8.715027008E0,2.553567086E1
5.680343417E0,3.450474701E0,-1.880434616E1,-5.858068085E0,1.999565382E1
5.690346417E0,2.843786316E0,-1.416998337E1,-3.824995880E0,1.495012183E1
5.700348417E0,1.983076172E0,-9.960137787E0,-1.022373962E0,1.020696744E1
5.710351417E0,2.522254944E-1,-6.100863190E0,1.018182678E0,6.190383294E0
5.720354417E0,-1.412163391E0,-3.776945801E0,6.661148071E-1,4.086959011E0
5.730356417E0,-1.152902527E0,-2.925815735E0,1.489402771E-1,3.148295596E0
5.740359417E0,-8.891510010E-1,-1.638642426E0,8.397537231E-2,1.866223557E0
5.750362417E0,-8.887019348E-1,-6.469546509E-1,-9.095086670E-1,1.426726135E0
5.760364417E0,-1.035995636E0,-9.138496399E-1,-2.738106079E0,3.066860450E0
5.770367417E0,-3.577560425E-1,-6.174659729E-1,-2.810705109E0,2.899882208E0
5.780370417E0,7.316784668E-1,-1.523831177E-1,-1.334624634E0,1.529639469E0
5.790372417E0,1.259480896E0,2.074685669E-1,2.065704346E-1,1.293060972E0
5.800375417E0,1.013841705E0,8.232879639E-1,1.035247192E0,1.666557777E0
5.810378417E0,8.428971863E-1,1.143472137E0,4.065545654E-1,1.477596295E0
5.820380417E0,9.737251282E-1,1.278641052E0,-2.401007080E-1,1.625026743E0
5.830383417E0,1.278191986E0,1.163081360E0,-4.999603271E-1,1.799025662E0
5.840385417E0,2.126178589E0,4.879852295E-1,-3.363505554E-1,2.207237339E0
5.850388417E0,2.812800751E0,-3.445834351E-1,-3.107537842E-1,2.850816325E0
5.860391417E0,2.547103271E0,-1.205293579E0,-9.366023254E-1,2.969459817E0
5.870393417E0,1.216969299E0,-1.664837952E0,-2.296224976E0,3.086316384E0
5.880396417E0,-5.444178772E-1,-1.320553894E0,-2.834206238E0,3.173795584E0
5.890399417E0,-1.308279419E0,-9.321116638E-1,-2.021695862E0,2.582185382E0
5.900401417E0,-1.501677246E0,-5.763015747E-1,-1.464404755E0,2.175233170E0
5.910404417E0,-1.498982849E0,-1.246907043E-1,-1.090332642E0,1.857773566E0
5.920407417E0,-1.096619568E0,2.709365845E-1,-6.842271423E-1,1.320661914E0
5.930409417E0,-5.969586182E-1,4.851411438E-1,-1.368154907E-1,7.813065978E-1
5.940412417E0,-1.775308228E-1,4.212240601E-1,5.415737915E-1,7.086953319E-1
5.950415417E0,1.884580994E-1,1.459465027E-1,8.494834900E-1,8.822919226E-1
5.960417417E0,5.611830139E-1,-8.726852417E-2,6.114784241E-1,8.345346209E-1
5.970420417E0,5.547463989E-1,-2.745291138E-1,2.713856506E-1,6.758401977E-1
5.980423417E0,3.339555359E-1,-4.038601685E-1,1.010398865E-1,5.337025335E-1
5.990425417E0,2.365081787E-2,-4.261637878E-1,2.176473999E-1,4.791088874E-1
6.000428417E0,-2.662962341E-1,-4.481680298E-1,3.947291565E-1,6.538955377E-1
6.010430417E0,-4.468208313E-1,-7.200027466E-1,1.887574768E-1,8.681487173E-1
6.020433417E0,-6.132746887E-1,-1.068927155E0,-2.272274780E-1,1.253133446E0
6.030436417E0,-6.230044556E-1,-1.358574829E0,-3.477268982E-1,1.534527326E0
6.040438417E0,-4.300556946E-1,-1.751657410E0,-3.742218018E-1,1.842089449E0
6.050441417E0,-2.020797729E-1,-2.378703461E0,-1.483415222E-1,2.391876166E0
6.060444417E0,1.939965820E-1,-3.624562683E0,4.089495850E-1,3.652715302E0
6.070446417E0,1.672621765E0,-6.035000153E0,-1.203497314E-1,6.263655041E0
6.080449417E0,4.740043030E0,-1.163620239E1,-6.014941864E0,1.393013782E1
6.090452417E0,9.239985352E0,-1.925296326E1,-1.288325912E1,2.494057516E1
6.100454417E0,1.762629593E1,-2.981649628E1,-5.600304108E0,3.508665223E1
6.110457417E0,1.980052460E1,-3.825310226E1,6.681655426E0,4.358904824E1
6.120460417E0,4.536316681E0,-3.310725311E1,-1.437116501E1,3.637579912E1
6.130462417E0,-4.198020172E0,-2.395333878E1,-3.843257904E1,4.548020386E1
6.140465417E0,-2.099084930E0,-1.781894531E1,-1.558379333E1,2.376500756E1
6.150468417E0,3.751199341E0,-1.618703888E1,-7.950716400E0,1.842025015E1
6.160470417E0,1.066202820E1,-1.783017197E1,-9.487271118E0,2.283861184E1
6.170473417E0,1.325628342E1,-1.896630936E1,-6.054160309E0,2.391867048E1
6.180475417E0,1.252475464E1,-1.909339508E1,-8.375083923E0,2.432219655E1
6.190478417E0,1.382300491E1,-2.128364044E1,-1.886856262E1,3.162422285E1
6.200481417E0,1.145073807E1,-2.491434036E1,-2.273517197E1,3.561926168E1
6.210483417E0,8.507857819E0,-2.388612854E1,-1.658101959E1,3.029622075E1
6.220486417E0,7.289840698E0,-2.020303757E1,-9.489965515E0,2.348114030E1
6.230489417E0,6.407425690E0,-1.947555038E1,-8.630452881E0,2.224492939E1
6.240491417E0,5.619913330E0,-1.988854156E1,-9.597442017E0,2.278702273E1
6.250494542E0,5.402265930E0,-1.975322296E1,-9.234895935E0,2.246458541E1
6.260497542E0,5.779331818E0,-1.854209152E1,-7.984096985E0,2.099894376E1
6.270499542E0,5.364843750E0,-1.618599106E1,-5.466632080E0,1.790675630E1
6.280502542E0,4.338877258E0,-1.339474548E1,-3.352129211E0,1.447348723E1
6.290505542E0,2.731070709E0,-1.031160690E1,-2.487826538E0,1.095341340E1
6.300507542E0,3.999682617E-1,-8.303083649E0,-1.583407288E0,8.462171785E0
6.310510542E0,-2.071392517E0,-7.093748474E0,-8.524772644E-1,7.438995353E0
6.320513542E0,-3.411405945E0,-5.196593628E0,-3.403921509E-1,6.225603800E0
6.330515542E0,-2.939886475E0,-3.549868011E0,-8.593629456E-1,4.688603209E0
6.340518542E0,-1.554816742E0,-2.566562805E0,-2.640958099E0,3.997419094E0
6.350521542E0,-7.372169495E-1,-1.551972656E0,-3.289409637E0,3.711108152E0
6.360523542E0,-5.924679565E-1,-6.120771790E-1,-2.269580383E0,2.424180659E0
6.370526542E0,-1.109193420E-1,1.589694214E-1,-1.049168243E0,1.066924730E0
6.380528542E0,2.133064270E-1,8.605604553E-1,-1.170565796E-1,8.942964676E-1
6.390531542E0,2.968327332E-1,1.199904785E0,-6.119274902E-1,1.379252123E0
6.400534542E0,5.020559692E-1,1.230441284E0,-1.232387238E0,1.812408412E0
6.410536542E0,1.247805176E0,9.246272278E-1,-1.253044281E0,1.995513277E0
6.420539542E0,1.958227844E0,3.421884155E-1,-1.368753662E0,2.413552525E0
6.430542542E0,2.292183380E0,-4.031117249E-1,-1.432371368E0,2.732817493E0
6.440544542E0,2.354004822E0,-1.000070343E0,-2.290237427E0,3.433171546E0
6.450547542E0,1.573827209E0,-1.238374786E0,-3.931873627E0,4.412497526E0
6.460550542E0,1.167572021E-1,-8.542735291E-1,-1.630708923E0,1.844621126E0
6.470552542E0,-1.034049683E0,-6.770420837E-1,2.074685669E0,2.414946243E0
6.480555542E0,-1.616937561E0,-5.418731689E-1,2.820434875E0,3.295901469E0
6.490558542E0,-9.403445435E-1,-2.909948730E-1,1.782044220E0,2.035830906E0
6.500560542E0,-3.617976379E-1,3.707789612E-1,1.382225647E0,1.476117308E0
6.510563542E0,-3.273692322E-1,7.447013855E-1,1.016835480E0,1.302192444E0
6.520566542E0,-1.995350647E-1,7.560777283E-1,5.797444153E-1,9.734327713E-1
6.530568542E0,-2.709365845E-2,7.331753540E-1,5.291496277E-1,9.045880248E-1
6.540571542E0,5.029541016E-2,7.128176880E-1,5.947132874E-1,9.296895066E-1
6.550573542E0,1.679507446E-1,6.087840271E-1,8.107141113E-1,1.027658900E0
6.560576542E0,6.198609924E-1,2.868035889E-1,1.135089569E0,1.324731021E0
6.570579542E0,1.125659180E0,-8.083190918E-2,1.024020538E0,1.523896469E0
6.580581542E0,1.389261017E0,-3.381468201E-1,3.079096985E-1,1.462599681E0
6.590584542E0,1.479673004E0,-7.698490906E-1,2.182461548E-1,1.682180491E0
6.600587542E0,1.387614441E0,-1.135239258E0,5.025050354E-1,1.861921942E0
6.610589542E0,1.216819611E0,-1.480870514E0,2.911445618E-1,1.938657422E0
6.620592542E0,1.031055908E0,-1.903890839E0,-2.573149109E-1,2.180387024E0
6.630595542E0,6.869215393E-1,-2.285297699E0,-7.099736023E-1,2.489680560E0
6.640597542E0,1.279838562E-1,-2.531535645E0,-1.220861206E0,2.813459556E0
6.650600542E0,-9.789642334E-2,-2.735860748E0,-2.138453064E0,3.473830631E0
6.660603542E0,1.044976959E0,-3.476071472E0,-2.342628479E0,4.320064573E0
6.670605542E0,3.037034454E0,-5.783373413E0,-1.273401947E0,6.655263994E0
6.680608542E0,6.999594269E0,-1.126138184E1,-5.530249786E0,1.436651327E1
6.690611542E0,1.315659073E1,-2.154290131E1,-1.951746323E1,3.190805301E1
6.700613542E0,1.653551422E1,-2.886193130E1,-4.922064514E0,3.362530339E1
6.710616542E0,7.396868134E0,-3.298375992E1,-4.151916046E0,3.405701812E1
6.720619542E0,2.584525452E0,-3.963098694E1,-2.887809769E1,4.910437275E1
6.730621542E0,-3.061882782E0,-3.250400757E1,-1.933424423E1,3.794336087E1
6.740624542E0,4.259691925E0,-2.221934464E1,-5.553900604E0,2.329570912E1
6.750626542E0,1.275662247E1,-2.003613464E1,-8.284671936E0,2.515579252E1
6.760629542E0,1.303369629E1,-2.181758011E1,-1.530477356E1,2.966681875E1
6.770632542E0,1.311812073E1,-2.281780014E1,-1.349803070E1,2.957928206E1
6.780634542E0,1.454270828E1,-2.401486084E1,-1.814870956E1,3.343021933E1
6.790637542E0,1.128578110E1,-2.738210861E1,-1.759815445E1,3.445059894E1
6.800640542E0,5.787265320E0,-2.941428268E1,-1.381567017E1,3.300856264E1
6.810642542E0,3.486699371E0,-2.951232880E1,-1.175969559E1,3.195974130E1
6.820645542E0,3.250789948E0,-2.700234833E1,-1.004695724E1,2.899372002E1
6.830648542E0,2.168989563E0,-2.311463287E1,-8.959319000E0,2.488493853E1
6.840650542E0,1.522633667E0,-1.912033905E1,-5.578000488E0,1.997548167E1
6.850653542E0,6.825805664E-1,-1.466784805E1,-3.531605988E0,1.510244760E1
6.860656542E0,1.273401947E0,-9.881551208E0,-2.369722137E0,1.024120060E1
6.870658542E0,1.722318420E0,-6.495442657E0,-1.607058105E0,6.909398803E0
6.880661542E0,1.018332367E0,-4.555177460E0,-9.966275024E-1,4.772830280E0
6.890664542E0,1.314266968E-1,-4.479434967E0,-9.482780457E-1,4.580594050E0
6.900666542E0,-5.287005615E-1,-3.633693695E0,-9.553134155E-1,3.794190016E0
6.910669542E0,-1.600172424E-1,-2.295626221E0,-9.050180054E-1,2.472764213E0
6.920671542E0,7.042854309E-1,-9.427395630E-1,-1.446741486E0,1.864895916E0
6.930674542E0,1.198407898E0,-3.091072083E-1,-1.276096344E0,1.777681252E0
6.940677542E0,1.436712341E0,1.661544800E-1,-6.945556641E-1,1.604418036E0
6.950679542E0,1.705702972E0,8.240364075E-1,6.456074524E-1,2.001316470E0
6.960682542E0,1.620679779E0,1.277892609E0,1.477277985E0,2.538102187E0
6.970685542E0,1.223106537E0,1.442699890E0,1.260079651E0,2.272701762E0
6.980687542E0,9.506730652E-1,1.562750244E0,5.504054260E-1,1.910213008E0
6.990690542E0,7.084767151E-1,1.510957947E0,1.579216003E-1,1.676267402E0
7.000693542E0,2.682421875E-1,9.687854004E-1,7.214996338E-2,1.007821730E0
7.010695542E0,1.508862305E-1,4.954696655E-2,7.155120850E-2,1.741870600E-1
7.020698542E0,3.124003601E-1,-4.617897034E-1,2.607577515E-1,6.154984322E-1
7.030701542E0,1.323248291E-1,-6.932084656E-1,4.715194702E-1,8.487511107E-1
7.040703542E0,-3.637435913E-2,-7.725434875E-1,6.421646118E-1,1.005247195E0
7.050706542E0,-3.712280273E-2,-6.622229004E-1,6.450086975E-1,9.251775463E-1
7.060709542E0,-1.308279419E-1,-3.799099731E-1,5.300477600E-1,6.651301872E-1
7.070711542E0,-1.366658020E-1,-1.347198486E-1,4.017645264E-1,4.452434320E-1
7.080714542E0,4.870870972E-1,3.143463135E-2,2.281256104E-1,5.387794265E-1
7.090716542E0,1.378633118E0,2.814147949E-2,9.939331055E-2,1.382497829E0
7.100719542E0,1.880240021E0,1.496887207E-3,1.863624573E-1,1.889453821E0
7.110722542E0,2.220183105E0,8.232879639E-3,7.574249268E-2,2.221489979E0
7.120724542E0,2.475701752E0,-2.290237427E-2,-4.122427368E-1,2.509893973E0
7.130727542E0,2.115251312E0,-1.266366577E-1,-1.372196503E0,2.524529302E0
7.140730542E0,1.187630310E0,-4.460723877E-1,-2.389481049E0,2.705377240E0
7.150732542E0,7.122189331E-1,-7.084767151E-1,-3.015179901E0,3.178129151E0
7.160735542E0,5.421725464E-1,-9.047186279E-1,-3.169658661E0,3.340539312E0
7.170738542E0,5.304968262E-1,-1.037642212E0,-2.688559113E0,2.930269330E0
7.180740542E0,2.426454163E-1,-1.252146149E0,-1.754052429E0,2.168743115E0
7.190743542E0,-7.557783508E-1,-1.297801208E0,-8.660989380E-1,1.733671325E0
7.200746542E0,-1.948797455E0,-1.404978333E0,-1.018781433E0,2.609538512E0
7.210748542E0,-2.464175720E0,-1.824106750E0,-2.764002228E0,4.127860915E0
7.220751542E0,-1.478176117E0,-2.110311584E0,-3.860472107E0,4.641299872E0
7.230754542E0,-7.475454712E-1,-2.087858276E0,-9.234297180E-1,2.402227895E0
7.240756542E0,-1.823507996E0,-2.699935455E0,6.606661377E0,7.366329305E0
7.250759833E0,-1.109492798E0,-4.410877533E0,1.148351990E1,1.235143895E1
7.260761833E0,8.206085358E0,-6.394402771E0,-2.536175995E0,1.070796023E1
7.270764833E0,1.901480850E1,-1.776026733E1,-2.249282593E1,3.439356417E1
7.280767833E0,7.087311859E0,-3.439307922E1,-3.801195374E0,3.532085749E1
7.290769833E0,6.780300293E0,-4.631608521E1,-1.656170975E1,4.965322196E1
7.300772833E0,1.235695358E1,-4.434962448E1,-1.731224899E1,4.918635439E1
7.310775833E0,1.070259384E1,-2.871897858E1,-3.086192230E1,4.349463753E1
7.320777833E0,6.627019043E0,-2.455613525E1,-1.211251190E1,2.817151229E1
7.330780833E0,6.446943512E0,-2.072859467E1,-1.281934204E0,2.174582886E1
7.340783833E0,8.147257690E0,-2.312945206E1,-1.515209106E1,2.882594706E1
7.350785833E0,1.246293320E1,-2.435136108E1,-1.073208252E1,2.938521883E1
7.360788833E0,1.304836578E1,-2.466376144E1,-1.279374527E1,3.069594267E1
7.370791833E0,9.623487854E0,-2.508303955E1,-1.301812866E1,2.985367759E1
7.380793833E0,7.330406342E0,-2.625570099E1,-1.338247101E1,3.036753566E1
7.390796833E0,6.256389771E0,-2.718871078E1,-1.239003479E1,3.052673204E1
7.400799833E0,5.520220642E0,-2.564766541E1,-9.241931305E0,2.781526327E1
7.410801833E0,4.823868713E0,-2.210288681E1,-7.223229218E0,2.374831268E1
7.420804833E0,4.299359436E0,-1.762839157E1,-5.504952393E0,1.896178214E1
7.430806833E0,3.810625763E0,-1.257864258E1,-3.440894623E0,1.358612798E1
7.440809833E0,3.216960297E0,-7.555837555E0,-2.124232635E0,8.482445343E0
7.450812833E0,2.482587433E0,-3.974834290E0,-1.691931610E0,4.982487387E0
7.460814833E0,1.610650635E-1,-3.484154663E0,-2.767744446E-1,3.498839774E0
7.470817833E0,-1.922452240E0,-3.623514862E0,1.724414062E-1,4.105535118E0
7.480820833E0,-2.912044373E0,-2.477498016E0,-1.197509766E-3,3.823349354E0
7.490822833E0,-3.066523132E0,-1.400038605E0,-8.794212341E-1,3.483827482E0
7.500825833E0,-1.986668701E0,-3.677851868E-1,-9.843530273E-1,2.247458421E0
7.510828833E0,-6.767427063E-1,5.824388123E-1,5.498066711E-1,1.048571903E0
7.520830833E0,1.519340515E-1,1.124461670E0,1.613045654E0,1.972159802E0
7.530833833E0,3.604504395E-1,1.399589539E0,1.896107025E0,2.384113514E0
7.540836833E0,3.484753418E-1,1.447340240E0,1.144969025E0,1.878079578E0
7.550838833E0,4.067042542E-1,1.394799500E0,3.468287659E-1,1.493708200E0
7.560841833E0,7.893086243E-1,1.289568329E0,1.562750244E-1,1.520005415E0
7.570843833E0,1.245559845E0,9.541159058E-1,-1.317260742E-2,1.569053857E0
7.580846833E0,1.411714325E0,6.406677246E-2,-9.220825195E-2,1.416172394E0
7.590849833E0,1.322649536E0,-7.063810730E-1,-5.837860107E-2,1.500594574E0
7.600851833E0,1.708846436E0,-1.024319916E0,-1.068927155E0,2.260971626E0
7.610854833E0,2.485132141E0,-8.943901062E-1,-2.907703400E0,3.928174446E0
7.620857833E0,1.453926544E0,-6.882687378E-1,-1.317859497E0,2.079511939E0
7.630859833E0,4.300556946E-1,-7.589218140E-1,-2.903961182E-2,8.727849215E-1
7.640862833E0,-7.285350037E-1,-5.170248413E-1,2.579136658E-1,9.298372960E-1
7.650865833E0,-1.118773499E0,-3.023712158E-2,6.301895142E-2,1.120954867E0
7.660867833E0,-6.903643799E-1,3.740721130E-1,-4.201762390E-1,8.905509500E-1
7.670870833E0,-2.656974792E-1,4.230203247E-1,-8.020321655E-1,9.448793257E-1
7.680873833E0,-8.382568359E-2,1.989363098E-1,-9.081614685E-1,9.334664715E-1
7.690875833E0,-4.640350342E-2,-1.987866211E-1,-6.252497864E-1,6.577284403E-1
7.700878833E0,1.781295776E-1,-4.541555786E-1,-1.032852173E-1,4.986534590E-1
7.710880833E0,4.692741394E-1,-5.737568665E-1,2.728825378E-1,7.898607720E-1
7.720883833E0,6.390211487E-1,-7.129673767E-1,2.817141724E-1,9.980147211E-1
7.730886833E0,5.376818848E-1,-9.406439209E-1,7.319778442E-2,1.085942315E0
7.740888833E0,4.507127380E-1,-1.059047699E0,-1.856140137E-1,1.165837280E0
7.750891833E0,3.603007507E-1,-1.123114471E0,-6.448590088E-1,1.344264069E0
7.760894833E0,3.188369751E-2,-1.301992493E0,-1.362017670E0,1.884487504E0
7.770896833E0,-3.394940186E-1,-1.443598022E0,-2.089504852E0,2.562276716E0
7.780899833E0,-5.951623535E-1,-1.391057281E0,-3.017724609E0,3.375784413E0
7.790902833E0,-5.273533630E-1,-1.555864563E0,-4.246070251E0,4.552793504E0
7.800904833E0,3.597019958E-1,-2.067051544E0,-4.039200439E0,4.551618152E0
7.810907833E0,1.671723633E0,-2.878813477E0,-1.104553070E0,3.507458399E0
7.820910833E0,2.796484680E0,-4.412224731E0,4.021537170E0,6.592481692E0
7.830912833E0,9.675729218E0,-9.010362854E0,-5.258115692E0,1.422863856E1
7.840915833E0,1.730521362E1,-2.101030884E1,-1.473640549E1,3.095262740E1
7.850917833E0,5.557044067E0,-3.179104019E1,-1.893412628E0,3.232856301E1
7.860920833E0,7.912994843E0,-4.463612869E1,-2.646646271E1,5.249260062E1
7.870923833E0,5.956413574E0,-4.634153229E1,-2.492975830E1,5.295761821E1
7.880925833E0,2.401007080E-1,-3.249622375E1,-1.640543472E1,3.640330335E1
7.890928833E0,4.214934998E0,-2.600272705E1,-8.186176758E0,2.758479619E1
7.900931833E0,6.742578735E0,-2.624926437E1,-8.747210083E0,2.847806054E1
7.910933833E0,8.568182373E0,-2.685744965E1,-1.127245880E1,3.036123644E1
7.920936833E0,1.055036041E1,-2.826796646E1,-9.067394257E0,3.150564507E1
7.930939833E0,8.685688019E0,-2.971874954E1,-1.086335953E1,3.281246457E1
7.940941833E0,5.845344543E0,-3.075848740E1,-1.058254349E1,3.304909721E1
7.950944833E0,4.749473419E0,-3.086012604E1,-1.032672546E1,3.288686874E1
7.960947833E0,4.184548187E0,-2.829760483E1,-8.952133942E0,2.997341463E1
7.970949833E0,3.690276031E0,-2.331596420E1,-7.355254669E0,2.472553529E1
7.980952833E0,3.949686584E0,-1.744187943E1,-6.189478912E0,1.892429209E1
7.990955833E0,3.991150360E0,-1.236398895E1,-3.924089813E0,1.357188214E1
8.000957833E0,3.909719696E0,-8.874146118E0,-3.048710175E0,1.016518623E1
8.010960833E0,2.338886261E0,-6.259682922E0,-2.350711670E0,7.083774741E0
8.020963833E0,9.162446594E-1,-4.206402740E0,-1.025367737E0,4.425461251E0
8.030965833E0,1.040785675E0,-3.520079956E0,-8.427474976E-1,3.766221059E0
8.040968833E0,4.830455017E-1,-2.948119354E0,-1.351689148E0,3.278994394E0
8.050970833E0,-1.362167358E-1,-1.238374786E0,-1.245410156E0,1.761582688E0
8.060973833E0,7.484436035E-2,2.035766602E-2,-2.570155334E-1,2.684643315E-1
8.070976833E0,1.032253418E0,9.614506531E-1,8.509803772E-1,1.647453210E0
8.080978833E0,1.881138153E0,1.738784180E0,1.799258423E0,3.130396468E0
8.090981833E0,2.050585785E0,2.128723297E0,2.221380615E0,3.697417582E0
8.100984833E0,1.819466400E0,2.383643188E0,2.184108124E0,3.709789903E0
8.110986833E0,1.749711456E0,2.538121948E0,1.620230713E0,3.482628428E0
8.120989833E0,1.853894806E0,1.962718506E0,5.596861267E-1,2.757251973E0
8.130992833E0,2.152074738E0,5.873785400E-1,1.646575928E-2,2.230854174E0
8.140994833E0,2.090402985E0,-1.802252197E-1,1.294807434E-1,2.102149146E0
8.150997833E0,1.489851837E0,-3.537144470E-1,2.363584900E-1,1.549399155E0
8.161000833E0,1.154100037E-1,-6.855743408E-2,1.924996948E-1,2.346821749E-1
8.171002833E0,-7.902067566E-1,6.586303711E-3,3.043171692E-1,8.468051943E-1
8.181005833E0,-1.125808868E0,-3.221301270E-1,3.245251465E-1,1.215125507E0
8.191007833E0,-1.391506348E0,-3.918850708E-1,1.601669312E-1,1.454481787E0
8.201010833E0,-1.361568604E0,-2.074685669E-1,2.859054565E-2,1.377581100E0
8.211013833E0,-9.005273438E-1,9.086105347E-2,-1.862127686E-1,9.240565043E-1
8.221015833E0,-3.418890381E-1,2.911445618E-1,-3.077600098E-1,5.443982860E-1
8.231018833E0,1.595681763E-1,2.580633545E-1,-2.477348328E-1,3.917030063E-1
8.241021833E0,5.766009521E-1,6.930587769E-2,-2.145039368E-1,6.190992663E-1
8.251024333E0,8.472381592E-1,-8.966354370E-2,-3.032693481E-1,9.043364125E-1
8.261027333E0,9.704319763E-1,-3.531156921E-1,-6.036946106E-1,1.196192332E0
8.271030333E0,9.580078125E-1,-6.801855469E-1,-1.327589264E0,1.772829546E0
8.281032333E0,9.178912354E-1,-9.518705750E-1,-2.410886536E0,2.749719222E0
8.291035333E0,1.091829529E0,-1.191671906E0,-2.886746979E0,3.308395649E0
8.301038333E0,1.271455994E0,-1.425036621E0,-2.497256927E0,3.143822813E0
8.311040333E0,1.331930237E0,-1.691332855E0,-2.341281281E0,3.180604191E0
8.321043333E0,9.392967224E-1,-1.870659943E0,-2.568059692E0,3.313091840E0
8.331046333E0,4.722679138E-1,-1.901944885E0,-2.805915070E0,3.422512338E0
8.341048333E0,2.191442871E-1,-1.816322937E0,-2.656525726E0,3.225551451E0
8.351051333E0,8.666976929E-2,-1.166973267E0,-2.305505676E0,2.585477650E0
8.361054333E0,1.634600830E-1,-7.369175720E-1,-2.275867310E0,2.397777871E0
8.371056333E0,6.474037170E-1,-1.303339691E0,1.689985657E-1,1.465055097E0
8.381059333E0,1.817221069E-1,-3.489992523E0,5.774990845E0,6.750080740E0
8.391061333E0,2.731220398E0,-5.767057343E0,2.195933533E0,6.748380497E0
8.401064333E0,1.211341003E1,-1.091380463E1,-1.843835724E1,2.461338765E1
8.411067333E0,8.391549683E0,-2.248234772E1,-1.003992188E1,2.601296016E1
8.421069333E0,1.400038605E0,-3.373504761E1,-9.201515350E0,3.499544870E1
8.431072333E0,5.942642212E0,-4.220323792E1,-2.704530899E1,5.047649973E1
8.441075333E0,3.591631165E0,-3.576288071E1,-1.866019592E1,4.049797974E1
8.451077333E0,6.416107635E0,-2.888169022E1,-8.887767792E0,3.089192262E1
8.461080333E0,1.050021469E1,-2.552267532E1,-7.464377747E0,2.858983035E1
8.471083333E0,1.087114334E1,-2.492092667E1,-1.082309326E1,2.926386323E1
8.481085333E0,1.152184021E1,-2.403027878E1,-1.063568298E1,2.869363784E1
8.491088333E0,1.319506073E1,-2.291150528E1,-1.511347137E1,3.045428901E1
8.501091333E0,1.272234375E1,-2.259835648E1,-1.669134018E1,3.084063201E1
8.511093333E0,1.067295547E1,-2.460313751E1,-1.573527832E1,3.109381511E1
8.521096333E0,7.552095337E0,-2.685460556E1,-1.408945084E1,3.125246564E1
8.531099333E0,5.152884521E0,-2.762176025E1,-1.137888748E1,3.031489632E1
8.541101333E0,3.333717499E0,-2.643547714E1,-9.299112396E0,2.822094285E1
8.551104333E0,2.103725281E0,-2.355591522E1,-7.914342041E0,2.493879732E1
8.561107333E0,1.098565521E0,-1.883667892E1,-5.184768219E0,1.956806430E1
8.571109333E0,9.466314697E-1,-1.360520782E1,-3.234024811E0,1.401630149E1
8.581112333E0,2.201472015E0,-8.804840240E0,-2.295476532E0,9.361672030E0
8.591114333E0,2.007924500E0,-5.573659515E0,-8.174501038E-1,5.980440273E0
8.601117333E0,9.000782776E-1,-4.191284180E0,-4.790039063E-2,4.287108399E0
8.611120333E0,5.927673340E-2,-3.826941833E0,2.065704346E-2,3.827456628E0
8.621122333E0,-6.731501770E-1,-3.027154999E0,-1.116677856E0,3.296023056E0
8.631125333E0,-9.226812744E-1,-1.220262451E0,-1.489702148E0,2.135320509E0
8.641128333E0,-7.298822021E-1,-1.809736633E-1,-1.562301178E0,1.733858260E0
8.651130333E0,-2.466870117E-1,9.131011963E-2,-1.495689697E0,1.518644030E0
8.661133333E0,3.317102051E-1,5.456153870E-1,-7.634124756E-3,6.385813108E-1
8.671136333E0,8.511300659E-1,1.035696259E0,1.258283386E0,1.838577224E0
8.681138333E0,9.430389404E-1,1.355730743E0,1.498234406E0,2.229805961E0
8.691141333E0,7.843688965E-1,1.557361450E0,1.209634552E0,2.122221714E0
8.701144333E0,6.334826660E-1,1.588197327E0,4.884342957E-1,1.778268567E0
8.711146333E0,6.950047302E-1,1.212778015E0,1.309776306E-1,1.403929211E0
8.721149333E0,8.707392883E-1,1.772314453E-1,3.113525391E-2,8.891385142E-1
8.731151333E0,1.368005219E0,-7.447013855E-1,-1.496887207E-3,1.557568834E0
8.741154333E0,1.866019592E0,-1.178948364E0,-3.233276367E-1,2.230804591E0
8.751157333E0,2.158810730E0,-1.058598633E0,-1.163231049E0,2.670992569E0
8.761159333E0,1.681603088E0,-5.418731689E-1,-1.732796631E0,2.474671623E0
8.771162333E0,4.960684204E-1,-5.275030518E-1,-9.250762939E-1,1.174780617E0
8.781165333E0,-8.517288208E-1,-6.216572571E-1,2.454895020E-2,1.054752284E0
8.791167333E0,-1.160087585E0,-4.784051514E-1,5.849835205E-1,1.384514505E0
8.801170333E0,-6.598278809E-1,-1.631607056E-1,7.390132141E-1,1.004059151E0
8.811173333E0,-3.394940186E-1,3.323089600E-2,7.970924377E-1,8.670160526E-1
8.821175333E0,-5.807922363E-2,5.284011841E-2,7.991880798E-1,8.030360274E-1
8.831178333E0,3.842509460E-1,1.960922241E-2,7.740403748E-1,8.643910069E-1
8.841181333E0,9.006770325E-1,-9.340576172E-2,5.891748047E-1,1.080310466E0
8.851183333E0,1.239572296E0,-3.990701294E-1,2.192939758E-1,1.320562870E0
8.861186333E0,1.035247192E0,-7.197033691E-1,-2.609074402E-1,1.287548982E0
8.871189333E0,5.989045715E-1,-8.713380432E-1,-5.719606018E-1,1.202104655E0
8.881191333E0,3.906875610E-1,-9.389973450E-1,-6.623725891E-1,1.213709286E0
8.891194333E0,2.188449097E-1,-9.668394470E-1,-5.795947266E-1,1.148303818E0
8.901196333E0,9.340576172E-2,-1.062340851E0,-4.128414917E-1,1.143560587E0
8.911199333E0,-1.728904724E-1,-1.281036072E0,-4.787045288E-1,1.378442077E0
8.921202333E0,-6.530918884E-1,-1.463656311E0,-7.461982727E-1,1.767945325E0
8.931204333E0,-1.079255676E0,-1.660646667E0,-1.249601440E0,2.341803563E0
8.941207333E0,-1.155596924E0,-1.986369324E0,-1.924098816E0,2.997202628E0
8.951210333E0,3.787124634E-2,-2.378404083E0,-2.801574097E0,3.675194911E0
8.961212333E0,1.747316437E0,-3.190764771E0,-2.894530792E0,4.648914181E0
8.971215333E0,3.131637726E0,-5.685926056E0,-1.225800934E0,6.606019822E0
8.981218333E0,8.147257690E0,-1.164712967E1,-4.112398224E0,1.479679886E1
8.991220333E0,1.392748764E1,-2.332314926E1,-1.324954742E1,3.022407501E1
9.001223333E0,9.454189911E0,-3.184552689E1,-6.288423157E0,3.380922293E1
9.011226333E0,1.395592850E1,-4.324686768E1,-2.337554031E1,5.110259669E1
9.021228333E0,8.459807739E0,-4.162139786E1,-1.719234833E1,4.582014784E1
9.031231333E0,1.866618347E0,-3.192800537E1,-2.537777664E1,4.082785003E1
9.041234333E0,4.423152008E0,-2.473665985E1,-5.049449615E0,2.563130031E1
9.051236333E0,7.672894135E0,-2.196173035E1,-3.117117920E0,2.347141513E1
9.061239333E0,1.139954453E1,-2.476165787E1,-1.259555740E1,3.002894241E1
9.071242333E0,1.315509384E1,-2.542911987E1,-1.121542740E1,3.074869824E1
9.081244333E0,1.270962021E1,-2.543840057E1,-1.170940018E1,3.075315792E1
9.091247333E0,9.913734283E0,-2.670446777E1,-1.360176498E1,3.156610108E1
9.101250333E0,6.571783905E0,-2.769271271E1,-1.341420502E1,3.146451298E1
9.111252333E0,5.602250061E0,-2.680490891E1,-1.161479691E1,2.974545099E1
9.121255333E0,5.327421570E0,-2.385649017E1,-9.485025787E0,2.621982567E1
9.131257333E0,3.657045135E0,-2.000769379E1,-6.802005157E0,2.144642310E1
9.141260333E0,2.028880920E0,-1.612237335E1,-5.495971069E0,1.715380361E1
9.151263333E0,1.911974030E0,-1.155611893E1,-4.521497498E0,1.255561504E1
9.161265333E0,2.116748199E0,-7.635771332E0,-2.498903503E0,8.308438210E0
9.171268333E0,-1.234931946E-1,-5.259911957E0,-9.909393311E-1,5.353866371E0
9.181271333E0,-1.415157166E0,-3.501219177E0,-6.496490479E-2,3.776959884E0
9.191273333E0,-1.422342224E0,-1.872605896E0,3.588038635E-1,2.378749768E0
9.201276333E0,-1.841021576E0,-1.142124939E0,2.234852600E-1,2.178016410E0
9.211279333E0,-2.095941467E0,-1.367406464E0,-1.183888092E0,2.768458431E0
9.221281333E0,-1.341360626E0,-3.333567810E-1,-1.320703583E0,1.911709451E0
9.231284333E0,1.661544800E-2,8.515791321E-1,-1.291813660E-1,8.614818144E-1
9.241287333E0,8.696914673E-1,1.422042847E0,9.635462952E-1,1.925354661E0
9.251288792E0,9.027726746E-1,1.743424530E0,1.557960205E0,2.506345466E0
9.261291792E0,1.058149567E0,1.992057495E0,1.326391754E0,2.616732439E0
9.271294792E0,1.776954803E0,1.967807922E0,9.900411987E-1,2.830197514E0
9.281296792E0,2.530787201E0,1.447938995E0,7.447013855E-1,3.009317422E0
9.291299792E0,2.809806976E0,-8.352630615E-2,6.393205261E-1,2.882832396E0
9.301302792E0,3.423680420E0,-1.471440125E0,-3.086581421E-1,3.739250394E0
9.311304792E0,3.676953735E0,-1.720372467E0,-7.628137207E-1,4.130563517E0
9.321307792E0,1.627864838E0,-7.970924377E-1,4.655319214E-2,1.813137470E0
9.331309792E0,1.537303162E-1,-2.435435486E-1,6.982978821E-1,7.553584595E-1
9.341312792E0,-6.481521606E-1,-3.101550293E-1,9.741741943E-1,1.210501023E0
9.351315792E0,-1.192420349E0,-2.576142883E-1,5.318440247E-1,1.330822857E0
9.361317792E0,-9.312135315E-1,-3.891906738E-3,4.086502075E-2,9.321178778E-1
9.371320792E0,-6.459068298E-1,2.559677124E-1,-2.948867798E-1,7.547670604E-1
9.381323792E0,-5.016069031E-1,3.414399719E-1,-4.834945679E-1,7.758593538E-1
9.391325792E0,-4.318519592E-1,2.790197754E-1,-5.288502502E-1,7.375843931E-1
9.401328792E0,-4.340972900E-1,7.170089722E-2,-4.261637878E-1,6.125333052E-1
9.411331792E0,-3.445834351E-1,-2.881507874E-1,-4.803511047E-1,6.576517344E-1
9.421333792E0,-9.460327148E-2,-5.343887329E-1,-6.524931335E-1,8.486862708E-1
9.431336792E0,3.044668579E-1,-6.601272583E-1,-6.355783081E-1,9.656230374E-1
9.441339792E0,7.008425903E-1,-8.170010376E-1,-5.379812622E-1,1.203368136E0
9.451341792E0,8.740324402E-1,-1.080752563E0,-4.014651489E-1,1.446766421E0
9.461344792E0,1.009949799E0,-1.391206970E0,-4.966671753E-1,1.789450673E0
9.471347792E0,1.262774048E0,-1.615740051E0,-8.631051636E-1,2.224896567E0
9.481349792E0,1.468296661E0,-1.868414612E0,-1.466500397E0,2.792398908E0
9.491352792E0,1.728455658E0,-2.044298859E0,-1.919608154E0,3.294178540E0
9.501355792E0,2.219734039E0,-2.101030884E0,-2.004182281E0,3.654900354E0
9.511357792E0,2.962190094E0,-2.006427612E0,-1.571731567E0,3.907769445E0
9.521360792E0,2.769989777E0,-1.912722473E0,-1.553768921E-1,3.369791181E0
9.531362792E0,1.530267792E0,-2.785557404E0,2.706372070E0,4.174386104E0
9.541365792E0,3.127745819E0,-4.803960114E0,1.846859436E0,6.022600473E0
9.551368792E0,9.410181427E0,-9.142837372E0,-1.005459137E1,1.652990615E1
9.561370792E0,1.234737350E1,-1.787912018E1,-9.281000061E0,2.362747411E1
9.571373792E0,6.434070282E0,-2.883843018E1,-9.034462738E0,3.089779656E1
9.581376792E0,8.663683777E0,-4.180521561E1,-2.697166214E1,5.049956462E1
9.591378792E0,9.606273651E0,-3.969610153E1,-2.973820908E1,5.052150086E1
9.601381792E0,4.234244843E0,-3.433230560E1,-2.287183777E1,4.146995298E1
9.611384792E0,5.392236786E0,-2.630554733E1,-1.423390045E0,2.689022271E1
9.621386792E0,7.212002563E0,-2.339949051E1,-1.234303253E1,2.742078754E1
9.631389792E0,7.770341492E0,-2.492122604E1,-1.056458084E1,2.816125144E1
9.641392792E0,9.263037415E0,-2.429208435E1,-1.211535599E1,2.868259184E1
9.651394792E0,9.244925079E0,-2.269355850E1,-1.692605209E1,2.978183132E1
9.661397792E0,9.672136688E0,-2.346295853E1,-1.442669952E1,2.919229881E1
9.671400792E0,9.073980560E0,-2.514486099E1,-1.340402618E1,2.990433205E1
9.681402792E0,7.755821686E0,-2.613699783E1,-1.222313187E1,2.987809195E1
9.691405792E0,6.209836578E0,-2.473845612E1,-1.011087433E1,2.743689234E1
9.701408792E0,4.286935272E0,-2.069237000E1,-7.050787811E0,2.227701952E1
9.711410792E0,2.877466278E0,-1.612267273E1,-4.907395020E0,1.709686854E1
9.721413792E0,1.434616699E0,-1.207449097E1,-2.834355927E0,1.248539269E1
9.731415792E0,9.392967224E-1,-8.459658051E0,-1.000070343E0,8.570194476E0
9.741418792E0,8.485853577E-1,-5.243446198E0,-3.279679871E-1,5.321784300E0
9.751421792E0,5.255570984E-1,-2.952909393E0,5.519023132E-1,3.049668886E0
9.761423792E0,3.192860413E-1,-2.132315826E0,6.472540283E-1,2.251144628E0
9.771426792E0,9.610015869E-2,-1.875899048E0,-9.210346985E-1,2.092017542E0
9.781429792E0,-1.815724182E-1,-1.055754547E0,-2.489323425E0,2.710040096E0
9.791431792E0,2.667453003E-1,4.893324280E-1,-2.006277924E0,2.082246476E0
9.801434792E0,6.617738342E-1,9.819580078E-1,-6.197113037E-2,1.185759907E0
9.811437792E0,7.574249268E-1,1.147064667E0,1.671573944E0,2.164164809E0
9.821439792E0,5.270539856E-1,1.292412415E0,2.443818054E0,2.814313848E0
9.831442792E0,3.978726196E-1,1.351090393E0,2.246378632E0,2.651408084E0
9.841445792E0,6.550378418E-1,9.339079285E-1,1.250649261E0,1.692743976E0
9.851447792E0,1.587897949E0,-1.748364258E-1,7.207511902E-1,1.752560969E0
9.861450792E0,1.567989349E0,-1.027463379E0,8.023315430E-1,2.039119295E0
9.871453792E0,1.007255402E0,-1.548978882E0,9.135502625E-1,2.061182452E0
9.881455792E0,5.887257385E-1,-1.741029510E0,9.819580078E-1,2.083752212E0
9.891458792E0,1.990859985E-1,-1.292711792E0,8.207432556E-1,1.544136815E0
9.901460792E0,-1.859133911E-1,-4.595443726E-1,3.649411011E-1,6.155703263E-1
9.911463792E0,-2.445913696E-1,2.398013306E-1,-3.338058472E-1,4.782843922E-1
9.921466792E0,-7.858657837E-2,5.941145325E-1,-4.734654236E-1,7.637522081E-1
9.931468792E0,-2.628533936E-1,5.996530151E-1,-2.622546387E-1,7.053035804E-1
9.941471792E0,-7.045848083E-1,3.893403625E-1,-3.688330078E-1,8.854735782E-1
9.951474792E0,-7.550299072E-1,2.276765442E-1,-5.418731689E-1,9.568350437E-1
9.961476792E0,-4.706213379E-1,2.345622253E-1,-6.484515381E-1,8.348612331E-1
9.971479792E0,-8.053253174E-2,7.634124756E-2,-6.732998657E-1,6.823827254E-1
9.981482792E0,1.926493835E-1,-2.303709412E-1,-6.224057007E-1,6.910668649E-1
9.991484792E0,2.471360779E-1,-6.408174133E-1,-4.878355408E-1,8.424409256E-1
1.000148779E1,3.306623840E-1,-1.057999878E0,-5.056484985E-1,1.218352067E0
1.001149079E1,5.105882263E-1,-1.303040314E0,-1.049168243E0,1.749105028E0
1.002149279E1,5.261558533E-1,-1.370100861E0,-1.764380951E0,2.295006861E0
1.003149579E1,6.617738342E-1,-1.318458252E0,-1.977986755E0,2.467530825E0
1.004149879E1,8.894503784E-1,-1.178648987E0,-2.070943451E0,2.543450842E0
1.005150079E1,1.005159760E0,-1.038839722E0,-2.589165802E0,2.965352198E0
1.006150379E1,1.379381561E0,-8.493338013E-1,-3.203937378E0,3.590163801E0
1.007150579E1,1.753303986E0,-5.093907166E-1,-3.640429688E0,4.072625944E0
1.008150879E1,2.395917664E0,-7.945477295E-1,-4.168980560E0,4.873615337E0
1.009151179E1,1.615740051E0,-1.923500061E0,-1.322499847E0,2.838921317E0
1.010151379E1,-1.290316772E-1,-3.865112457E0,6.435716858E0,7.508275099E0
1.011151679E1,1.441801758E0,-6.077062683E0,5.466332703E0,8.300016649E0
1.012151979E1,8.209677887E0,-1.183364182E1,-1.399245255E1,2.008040383E1
1.013152179E1,7.087012482E0,-2.150383255E1,-1.343111984E1,2.632556819E1
1.014152479E1,4.406686249E0,-3.305890366E1,-1.506452316E1,3.659576277E1
1.015152779E1,6.391858063E0,-4.452221558E1,-3.368639877E1,5.619481285E1
1.016152979E1,7.609276428E0,-4.227883072E1,-2.165441940E1,4.810732267E1
1.017153279E1,4.954097900E0,-2.990286667E1,-9.475146332E0,3.175693498E1
1.018153579E1,4.938230896E0,-2.193972610E1,-2.389331360E0,2.261518539E1
1.019153779E1,6.486611023E0,-2.163930084E1,-3.453468475E0,2.285305030E1
1.020154079E1,7.110962677E0,-2.259760803E1,-6.841822357E0,2.465822808E1
1.021154379E1,9.441316681E0,-2.484293884E1,-1.104253693E1,2.877929278E1
1.022154579E1,8.947044525E0,-2.781455933E1,-1.210981750E1,3.162826262E1
1.023154879E1,8.674611053E0,-2.902883423E1,-1.179442337E1,3.251200572E1
1.024155079E1,8.294252014E0,-2.856764328E1,-1.126242966E1,3.180797354E1
1.025155379E1,6.594386902E0,-2.683649323E1,-1.045111679E1,2.954503595E1
1.026155654E1,4.006418610E0,-2.434657104E1,-8.836125183E0,2.620847229E1
1.027155854E1,1.896256714E0,-2.071587112E1,-7.770640869E0,2.220643973E1
1.028156154E1,5.902226257E-1,-1.630274826E1,-5.927523651E0,1.735694386E1
1.029156454E1,9.084608459E-1,-1.209185486E1,-3.433559875E0,1.260268180E1
1.030156654E1,1.491348724E0,-8.208480377E0,-2.431244202E0,8.689891800E0
1.031156954E1,7.788304138E-1,-5.062023468E0,-1.744172974E0,5.410434157E0
1.032157254E1,9.925859070E-1,-3.378474426E0,-1.442699890E0,3.805351390E0
1.033157454E1,2.074236603E0,-2.417323151E0,-1.404529266E0,3.481179564E0
1.034157754E1,2.595003662E0,-1.014739838E0,-1.576970673E0,3.201652299E0
1.035158054E1,1.992955627E0,-1.206491089E-1,-1.478924561E0,2.484682313E0
1.036158254E1,9.102571106E-1,3.359014893E-1,-9.556127930E-1,1.361834655E0
1.037158554E1,6.295907593E-1,8.994795227E-1,1.399589539E-1,1.106813645E0
1.038158754E1,7.247927856E-1,1.333576813E0,1.035696259E0,1.837503316E0
1.039159054E1,6.809339905E-1,1.616039429E0,1.501228180E0,2.308449822E0
1.040159354E1,4.544549561E-1,1.774559784E0,1.903142395E0,2.641503873E0
1.041159554E1,2.031275940E-1,1.694925385E0,2.265538788E0,2.836670386E0
1.042159854E1,-5.224136353E-2,1.474433899E0,2.034868469E0,2.513438714E0
1.043160154E1,-3.420387268E-1,9.913883972E-1,1.398691406E0,1.748193094E0
1.044160354E1,-6.732998657E-1,4.264631653E-1,9.740245056E-1,1.258541727E0
1.045160654E1,-8.137078857E-1,-4.954696655E-2,8.896000671E-1,1.206633210E0
1.046160954E1,-7.777825928E-1,-4.369413757E-1,8.214916992E-1,1.212729211E0
1.047161154E1,-8.433462524E-1,-6.535409546E-1,7.908055115E-1,1.328051971E0
1.048161454E1,-9.195378113E-1,-7.815248108E-1,6.828799438E-1,1.386598656E0
1.049161754E1,-8.521778870E-1,-8.771759033E-1,3.751199341E-1,1.279202752E0
1.050161954E1,-5.445675659E-1,-9.151968384E-1,1.199006653E-1,1.071688041E0
1.051162254E1,-1.215472412E-1,-9.217831421E-1,-1.266366577E-1,9.383468101E-1
1.052162454E1,3.240760803E-1,-8.943901062E-1,-5.523513794E-1,1.100023188E0
1.053162754E1,7.903564453E-1,-9.190887451E-1,-1.195414124E0,1.702469488E0
1.054163054E1,1.121467896E0,-9.499246216E-1,-1.805395660E0,2.327982070E0
1.055163254E1,1.482068024E0,-8.631051636E-1,-1.803898773E0,2.489081544E0
1.056163554E1,1.846859436E0,-6.622229004E-1,-1.552721100E0,2.502073492E0
1.057163854E1,1.721120911E0,-5.307962036E-1,-1.215472412E0,2.172872519E0
1.058164054E1,1.118025055E0,-6.930587769E-1,-1.196911011E0,1.778456201E0
1.059164354E1,7.438032532E-1,-9.484277344E-1,-1.343605957E0,1.805002885E0
1.060164654E1,5.734574890E-1,-9.680369568E-1,-1.336869965E0,1.747332351E0
1.061164854E1,7.304809570E-2,-9.101074219E-1,-1.216520233E0,1.521036824E0
1.062165154E1,-6.161187744E-1,-9.993218994E-1,-1.783391418E0,2.135118628E0
1.063165354E1,-5.237608337E-1,-1.357077942E0,-3.332819366E0,3.636436564E0
1.064165654E1,7.219487000E-1,-2.082619171E0,-2.752176819E0,3.526044495E0
1.065165954E1,2.296823730E0,-3.424728241E0,2.818937988E0,4.995054970E0
1.066166154E1,4.293970642E0,-5.555696869E0,6.443800049E0,9.530294363E0
1.067166454E1,1.327559326E1,-1.250065475E1,-1.203272781E1,2.184706581E1
1.068166754E1,9.932595062E0,-2.455613525E1,-7.417525177E0,2.750781531E1
1.069166954E1,2.749033356E0,-3.301040451E1,-9.159452820E0,3.436771110E1
1.070167254E1,1.333621719E1,-4.054259125E1,-1.617521347E1,4.564201929E1
1.071167554E1,1.084509750E1,-3.600881927E1,-4.071682892E0,3.782631104E1
1.072167754E1,4.750072174E0,-2.805750412E1,-1.417851563E1,3.179334881E1
1.073168054E1,5.497168579E0,-2.617771317E1,-1.104897354E1,2.894082489E1
1.074168354E1,9.851164398E0,-2.476659760E1,-7.711513824E0,2.774702222E1
1.075168554E1,1.437071594E1,-2.606409943E1,-1.082563797E1,3.167095188E1
1.076168854E1,1.459854218E1,-2.893557816E1,-1.286155426E1,3.486839106E1
1.077169054E1,1.051907547E1,-3.062511475E1,-1.317470306E1,3.495885300E1
1.078169354E1,6.356082458E0,-3.077929413E1,-1.247715363E1,3.381485020E1
1.079169654E1,3.907474365E0,-2.961037491E1,-1.079375427E1,3.175764143E1
1.080169854E1,1.617686005E0,-2.668156540E1,-9.313332825E0,2.830655416E1
1.081170154E1,1.392105103E-2,-2.214524872E1,-7.845634918E0,2.349396139E1
1.082170454E1,1.067280579E-1,-1.700763245E1,-5.792803802E0,1.796740182E1
1.083170654E1,2.027533722E0,-1.191133026E1,-5.097050629E0,1.311375639E1
1.084170954E1,2.192490692E0,-7.790998535E0,-3.896996155E0,8.982942315E0
1.085171254E1,3.210823059E-1,-5.393733673E0,-3.072061615E0,6.215546585E0
1.086171454E1,-3.272195435E-1,-3.692072296E0,-1.616937561E0,4.043879022E0
1.087171754E1,1.273851013E-1,-2.639012146E0,-7.131170654E-1,2.736630779E0
1.088172054E1,2.252815247E-1,-2.294279022E0,-1.022823029E0,2.522029925E0
1.089172254E1,-1.076261902E-1,-1.700463867E0,-2.038311310E0,2.656665910E0
1.090172554E1,-4.490661621E-4,-1.191821594E0,-2.096390533E0,2.411491692E0
1.091172754E1,1.609153748E-1,-4.869374084E-1,-5.968089294E-1,7.868816276E-1
1.092173054E1,5.050497437E-1,4.858895874E-1,3.686833191E-1,7.918909802E-1
1.093173354E1,5.911207581E-1,1.180894318E0,9.627978516E-1,1.634293377E0
1.094173554E1,5.504054260E-1,1.484463043E0,1.730850677E0,2.345723924E0
1.095173854E1,6.111790466E-1,1.783840485E0,1.968256989E0,2.725740684E0
1.096174154E1,8.795709229E-1,1.825304260E0,1.883832550E0,2.766623525E0
1.097174354E1,1.231788483E0,1.217418365E0,1.265318756E0,2.144864074E0
1.098174654E1,1.507515106E0,2.880010986E-1,9.527687073E-1,1.806464679E0
1.099174954E1,1.504970398E0,-1.613644409E-1,1.141825562E0,1.895979956E0
1.100175154E1,1.189725952E0,-4.493655396E-1,1.267863464E0,1.795788126E0
1.101175454E1,7.972421265E-1,-4.763095093E-1,1.101259918E0,1.440569042E0
1.102175654E1,6.246510315E-1,-5.239105225E-1,7.685018921E-1,1.120386676E0
1.103175954E1,5.953120422E-1,-4.808001709E-1,2.920426941E-1,8.190568766E-1
1.104176254E1,8.135581970E-1,-2.981799316E-1,-1.426533508E-1,8.781447432E-1
1.105176454E1,1.349144440E0,-1.007405090E-1,-5.896238708E-1,1.475803401E0
1.106176754E1,1.806293793E0,-5.987548828E-3,-1.088536377E0,2.108943944E0
1.107177054E1,1.752555542E0,-3.502716064E-2,-1.443448334E0,2.270731363E0
1.108177254E1,1.237476654E0,-1.667532349E-1,-1.534608765E0,1.978428460E0
1.109177554E1,7.957452393E-1,-2.423460388E-1,-1.565893707E0,1.773123005E0
1.110177854E1,7.333250427E-1,-2.430944824E-1,-1.530716858E0,1.714629594E0
1.111178054E1,7.382647705E-1,-3.400927734E-1,-1.240919495E0,1.483434919E0
1.112178354E1,7.756869507E-1,-5.686674500E-1,-4.436773682E-1,1.059208441E0
1.113178654E1,7.765850830E-1,-9.571096802E-1,-1.986369324E-1,1.248439010E0
1.114178854E1,5.435197449E-1,-1.289268951E0,-5.432203674E-1,1.500905230E0
1.115179154E1,3.104544067E-1,-1.440903625E0,-1.167122955E0,1.880096059E0
1.116179354E1,5.897735596E-2,-1.551224213E0,-2.075134735E0,2.591516748E0
1.117179654E1,-2.965333557E-1,-1.710043945E0,-3.291954346E0,3.721444040E0
1.118179954E1,-6.581813049E-1,-1.801952820E0,-4.070934448E0,4.500304865E0
1.119180154E1,-1.250798950E0,-1.920206909E0,-3.058439941E0,3.821746651E0
1.120180454E1,-2.506238251E0,-2.352957001E0,1.507814484E0,3.753816902E0
1.121180754E1,-2.543959808E0,-2.893782349E0,6.305337982E0,7.389383929E0
1.122180954E1,-7.735913086E-1,-4.031266937E0,6.788832550E0,7.933334988E0
1.123181254E1,5.641468506E0,-6.916666718E0,-1.029663803E1,1.362670907E1
1.124181554E1,1.301139267E1,-1.779529449E1,-2.095222961E1,3.041323349E1
1.125181754E1,6.836283875E0,-3.525708252E1,-7.920628967E0,3.677679986E1
1.126182042E1,8.185578003E0,-4.244288956E1,-9.035959625E0,4.415938323E1
1.127182242E1,2.012669632E1,-4.060501144E1,-2.134680908E1,5.009528039E1
1.128182542E1,1.514924698E1,-2.957879059E1,-2.579480942E1,4.206871438E1
1.129182842E1,9.157357178E0,-2.462124985E1,-1.414767975E1,2.983655437E1
1.130183042E1,1.122291183E1,-1.946267715E1,-1.060724213E1,2.484478089E1
1.131183342E1,1.206550964E1,-2.063099762E1,-1.242371475E1,2.693628174E1
1.132183642E1,1.086066513E1,-2.503992920E1,-1.274674301E1,3.012360468E1
1.133183842E1,5.356760559E0,-2.716206619E1,-1.342737762E1,3.076958228E1
1.134184142E1,3.391946411E0,-2.815764587E1,-1.286409897E1,3.114230826E1
1.135184442E1,5.256020050E0,-2.900218964E1,-1.270303391E1,3.209547976E1
1.136184642E1,7.015910339E0,-2.774690002E1,-1.173260193E1,3.093165703E1
1.137184942E1,7.770940247E0,-2.487976227E1,-1.016566040E1,2.797732536E1
1.138185242E1,7.635621643E0,-2.085163879E1,-8.140072632E0,2.365067316E1
1.139185442E1,7.591463470E0,-1.566537369E1,-6.993606720E0,1.876019151E1
1.140185742E1,7.006629639E0,-1.087787933E1,-5.438640289E0,1.403566621E1
1.141185942E1,5.684279480E0,-6.720424805E0,-4.147874451E0,9.730365112E0
1.142186242E1,3.984414368E0,-3.916306000E0,-3.859873352E0,6.790554678E0
1.143186542E1,1.280287628E0,-2.835104370E0,-2.897823944E0,4.251392338E0
1.144186742E1,-5.671705627E-1,-1.910028076E0,-2.049388275E0,2.858300544E0
1.145187042E1,-1.300196228E0,-1.214125214E0,-2.155966644E0,2.795139073E0
1.146187342E1,-1.321002960E0,-1.194965057E0,-2.609373779E0,3.159402132E0
1.147187542E1,-1.122066650E0,-9.987231445E-1,-2.008373566E0,2.507996385E0
1.148187842E1,-8.750802612E-1,-5.777984619E-2,8.277786255E-2,8.808837317E-1
1.149188042E1,-5.965095520E-1,1.050216064E0,2.241887970E0,2.546534723E0
1.150188342E1,-2.160008240E-1,1.601968689E0,3.233426056E0,3.614969446E0
1.151188642E1,-8.592132568E-2,1.849553833E0,3.466491394E0,3.929986570E0
1.152188842E1,1.281335449E-1,1.914818115E0,2.687660980E0,3.302494234E0
1.153189142E1,7.771838379E-1,1.390907593E0,1.428629150E0,2.140004649E0
1.154189442E1,1.293160858E0,2.653981018E-1,8.710386658E-1,1.581584495E0
1.155189642E1,1.365759888E0,-5.135820007E-1,7.179071045E-1,1.626178697E0
1.156189942E1,1.432071991E0,-7.113208008E-1,4.272116089E-1,1.655088284E0
1.157190242E1,1.821861420E0,-1.052611084E0,-1.158590698E-1,2.107271328E0
1.158190442E1,3.673211517E0,-1.312470703E0,-3.883673859E0,5.504360529E0
1.159190742E1,4.558021545E0,-8.044271851E-1,-3.993695068E0,6.113285843E0
1.160190942E1,2.506687317E0,-5.685177612E-1,-1.731898499E-1,2.576177104E0
1.161191242E1,2.972817993E-1,-6.200106812E-1,4.188290405E-1,8.051133325E-1
1.162191542E1,-3.529660034E-1,-4.104464722E-1,1.185534668E-1,5.541716616E-1
1.163191742E1,3.487747192E-2,6.915618896E-2,-3.302133179E-1,3.391752524E-1
1.164192042E1,1.339714050E-1,5.694158936E-1,-4.510121155E-1,7.386438421E-1
1.165192342E1,6.361770630E-2,8.237370300E-1,-3.522175598E-1,8.981353554E-1
1.166192542E1,2.335144043E-2,7.990383911E-1,-4.299060059E-1,9.076490589E-1
1.167192842E1,2.160008240E-1,5.436694336E-1,-7.282356262E-1,9.341091672E-1
1.168193142E1,2.811154175E-1,1.547781372E-1,-9.632469177E-1,1.015296397E0
1.169193342E1,-5.448669434E-2,-2.778222656E-1,-9.487271118E-1,9.900692621E-1
1.170193642E1,-5.818400574E-1,-7.665559387E-1,-9.160949707E-1,1.328674473E0
1.171193842E1,-1.266965332E0,-1.154698792E0,-1.413211212E0,2.221642721E0
1.172194142E1,-1.609902191E0,-1.819616089E0,-1.873054962E0,3.067755314E0
1.173194442E1,-1.480720825E0,-2.335742798E0,-1.639091492E0,3.214786073E0
1.174194642E1,-1.630110168E0,-2.349514160E0,-1.233884125E0,3.114473629E0
1.175194942E1,-1.700912933E0,-2.029479675E0,-5.237608337E-1,2.699299533E0
1.176195242E1,-1.644330597E0,-1.620829468E0,1.251397705E0,2.626196392E0
1.177195442E1,-1.627415771E0,-1.853296051E0,3.260968781E0,4.088655737E0
1.178195742E1,-1.211281128E0,-2.026485901E0,3.590134277E0,4.296848986E0
1.179196042E1,-2.805166626E-1,-2.427951050E0,3.144211578E0,3.982424180E0
1.180196242E1,2.132465515E0,-3.840713196E0,-5.125341797E-1,4.422802088E0
1.181196542E1,9.517957306E0,-7.560627594E0,-1.285002823E1,1.768835285E1
1.182196742E1,8.760981445E0,-1.406056091E1,5.351371765E0,1.740951891E1
1.183197042E1,4.075275421E0,-2.106524460E1,9.793085175E0,2.358509947E1
1.184197342E1,1.297561707E1,-3.262076477E1,-2.170052353E1,4.127218984E1
1.185197542E1,1.416953430E1,-4.382930649E1,-1.812011902E1,4.949871233E1
1.186197842E1,1.520014114E1,-5.421291367E1,-3.391946411E1,6.573138021E1
1.187198142E1,1.097353043E1,-4.640200653E1,-3.907130081E1,6.164520360E1
1.188198342E1,3.343896332E0,-2.627650772E1,-8.384364624E0,2.778370153E1
1.189198642E1,6.047574005E0,-1.702290070E1,-5.027744751E0,1.875181369E1
1.190198942E1,1.212284042E1,-1.385354141E1,-8.733438721E0,2.037539746E1
1.191199142E1,1.463566498E1,-1.284987854E1,-1.178559174E1,2.276449517E1
1.192199442E1,1.308728485E1,-1.406265656E1,-1.749247421E1,2.598118527E1
1.193199742E1,9.261690216E0,-1.880973495E1,-1.424916870E1,2.535002650E1
1.194199942E1,7.512727203E0,-2.410197968E1,-1.019155655E1,2.722525150E1
1.195200242E1,5.698649597E0,-2.822964615E1,-8.934770050E0,3.015323606E1
1.196200442E1,3.571423187E0,-2.768762329E1,-8.162825317E0,2.908592897E1
1.197200742E1,4.532125397E0,-2.335727829E1,-6.511459351E0,2.466782748E1
1.198201042E1,5.997128906E0,-1.718875580E1,-3.654201050E0,1.856803884E1
1.199201242E1,5.196144562E0,-1.195713501E1,-1.524429932E0,1.312619071E1
1.200201542E1,3.647465057E0,-8.594826965E0,-8.297245789E-1,9.373552944E0
1.201201842E1,1.249900818E0,-6.486311646E0,-5.881269836E-1,6.631770817E0
1.202202042E1,-1.608405304E0,-5.638774109E0,-8.187973022E-1,5.920571771E0
1.203202342E1,-3.125500488E0,-4.645589447E0,-1.642684021E0,5.835123427E0
1.204202542E1,-2.527494049E0,-2.741698608E0,-2.947670288E0,4.753303857E0
1.205202842E1,-1.068029022E0,-9.913883972E-1,-3.138673096E0,3.460463227E0
1.206203142E1,-8.005352783E-1,-9.397457886E-1,-2.855162659E0,3.110616127E0
1.207203342E1,-1.161734161E0,-7.041357422E-1,-6.045927429E-1,1.486931670E0
1.208203642E1,-9.592053223E-1,-4.685256958E-2,1.440903625E0,1.731610023E0
1.209203942E1,-7.203021240E-1,6.077362061E-1,1.950144653E0,2.165927657E0
1.210204142E1,-7.348219299E-1,1.203048248E0,1.535506897E0,2.084483098E0
1.211204442E1,-8.346643066E-1,1.453926544E0,4.721182251E-1,1.741683817E0
1.212204742E1,-7.343728638E-1,1.196312256E0,-5.644761658E-1,1.512977151E0
1.213204942E1,-1.348695374E-1,6.212081909E-2,-2.101479950E0,2.106719433E0
1.214205242E1,1.277593231E0,-1.208736420E0,-3.189866638E0,3.642600358E0
1.215205542E1,2.584974518E0,-1.615590363E0,-3.391048279E0,4.559762484E0
1.216205742E1,3.408561859E0,-1.724414063E0,-2.627037048E0,4.636078241E0
1.217206042E1,1.634600830E0,-1.416654053E0,-4.318519592E-1,2.205748103E0
1.218206242E1,-5.619314575E-1,-1.578617249E0,1.440753937E0,2.209880378E0
1.219206542E1,-7.021897888E-1,-1.445394287E0,1.639690247E0,2.295826485E0
1.220206842E1,-2.189945984E-1,-2.618055725E-1,1.281335449E0,1.326017091E0
1.221207042E1,-6.436614990E-2,7.818241882E-1,7.536827087E-1,1.087855546E0
1.222207342E1,3.709286499E-1,1.253493347E0,1.251397705E-1,1.313199755E0
1.223207642E1,1.041833496E0,1.300645294E0,-6.343807983E-1,1.783124845E0
1.224207842E1,1.624871063E0,1.247805176E0,-1.757046204E0,2.698969264E0
1.225208142E1,2.145937500E0,1.257984009E0,-2.757116547E0,3.713389715E0
1.226208408E1,1.993255005E0,1.115031281E0,-2.927162933E0,3.712767581E0
1.227208708E1,1.086141357E0,5.727090454E-1,-2.457589417E0,2.747261262E0
1.228209008E1,1.327738953E-1,6.421646118E-2,-1.707050171E0,1.713409743E0
1.229209208E1,-3.397933960E-1,-1.411564636E-1,-5.393284607E-1,6.528858152E-1
1.230209508E1,-5.806425476E-1,-3.733236694E-1,5.551954651E-1,8.858658672E-1
1.231209808E1,-4.905299377E-1,-8.768765259E-1,1.053359528E0,1.455712319E0
1.232210008E1,-4.569996643E-1,-1.362167358E0,1.322050781E0,1.952477112E0
1.233210308E1,-4.697232056E-1,-1.754202118E0,1.617087250E0,2.431632401E0
1.234210608E1,-4.858895874E-1,-1.952689362E0,1.629212036E0,2.589095652E0
1.235210808E1,-8.375083923E-1,-2.068698120E0,1.245859222E0,2.555992453E0
1.236211108E1,-8.789721680E-1,-2.201621704E0,9.822573853E-1,2.566039706E0
1.237211308E1,-5.563929749E-1,-2.032772827E0,2.049537964E0,2.939786451E0
1.238211608E1,-2.514770508E-2,-2.253563690E0,4.142335968E0,4.715732073E0
1.239211908E1,1.087039490E0,-3.159330139E0,3.929777985E0,5.158117563E0
1.240212108E1,5.298681335E0,-6.126759338E0,-6.882537689E0,1.062932401E1
1.241212408E1,9.629774780E0,-1.452444626E1,-1.149265091E1,2.087517967E1
1.242212708E1,8.805438995E0,-2.367536682E1,7.341782684E0,2.630514252E1
1.243212908E1,1.395053970E1,-3.500605453E1,-1.414453629E1,4.025058160E1
1.244213208E1,2.027518753E1,-5.033432922E1,-2.594689316E1,6.014872561E1
1.245213508E1,1.516226990E1,-4.891587891E1,-2.343706238E1,5.632009881E1
1.246213708E1,8.991951141E0,-3.215747818E1,-4.654151642E1,5.728063668E1
1.247214008E1,5.346282349E0,-2.525428345E1,-1.267818558E1,2.875931079E1
1.248214208E1,8.953780518E0,-2.260778687E1,-8.079448700E0,2.562342100E1
1.249214508E1,1.181283508E1,-2.408371765E1,-1.378992371E1,3.016173941E1
1.250214808E1,1.109432922E1,-2.425945221E1,-8.910819855E0,2.812486218E1
1.251215008E1,9.366172943E0,-2.517015839E1,-1.081785416E1,2.895320427E1
1.252215308E1,9.071735229E0,-2.672332855E1,-1.277503418E1,3.097796261E1
1.253215608E1,8.876541138E0,-2.670431808E1,-1.129401398E1,3.032273633E1
1.254215808E1,7.638914795E0,-2.434432571E1,-9.209598541E0,2.712592706E1
1.255216108E1,6.004164276E0,-1.966610413E1,-8.006999359E0,2.206621125E1
1.256216308E1,4.296964417E0,-1.535012924E1,-6.434968414E0,1.719008986E1
1.257216608E1,2.604134674E0,-1.130778534E1,-4.773722992E0,1.254734864E1
1.258216908E1,1.595681763E0,-6.851701813E0,-3.120560760E0,7.696097549E0
1.259217108E1,1.893562317E-1,-4.101021881E0,-1.861528931E0,4.507718515E0
1.260217408E1,-2.510279846E-1,-2.846331024E0,-1.036145325E0,3.039442791E0
1.261217708E1,-1.767823792E-1,-1.947599945E0,-1.431024170E-1,1.960835500E0
1.262217908E1,-2.314187622E-1,-1.949695587E0,-6.466552734E-1,2.067130999E0
1.263218208E1,1.523831177E-1,-1.125509491E0,-2.221679993E0,2.495166171E0
1.264218508E1,2.573149109E-1,-1.462458801E-1,-1.775158539E0,1.799662929E0
1.265218708E1,7.066804504E-1,4.468208313E-1,2.035766602E-2,8.363375807E-1
1.266219008E1,9.160949707E-1,1.035995636E0,1.709594879E0,2.198916007E0
1.267219308E1,7.601193237E-1,1.661993866E0,2.529140625E0,3.120345702E0
1.268219508E1,4.790039062E-1,1.981429596E0,1.957479401E0,2.826169420E0
1.269219808E1,7.432044983E-1,1.927841034E0,6.798861694E-1,2.175125096E0
1.270220008E1,1.767674103E0,8.725355530E-1,-4.508624268E-1,2.022193599E0
1.271220308E1,2.392624512E0,-3.324586487E-1,-8.062234497E-1,2.546601079E0
1.272220608E1,2.544708252E0,-9.883946228E-1,-6.134243774E-1,2.797990973E0
1.273220808E1,2.302960968E0,-1.068627777E0,-2.050735474E-1,2.547086513E0
1.274221108E1,7.605683899E-1,-4.093986511E-1,9.993218994E-1,1.320876902E0
1.275221408E1,-1.413061523E-1,-1.404080200E-1,1.895657959E0,1.906095732E0
1.276221608E1,-6.388714600E-1,-1.038839722E-1,1.574725342E0,1.702559404E0
1.277221908E1,-8.442443848E-1,8.232879639E-2,6.242019653E-1,1.053164140E0
1.278222108E1,-5.935157776E-1,3.152444458E-1,-5.900729370E-1,8.943299782E-1
1.279222408E1,9.535171509E-2,4.781057739E-1,-1.400038605E0,1.482492892E0
1.280222708E1,7.812254333E-1,4.824467468E-1,-1.910327454E0,2.119532737E0
1.281222908E1,1.255888367E0,4.153862000E-1,-2.317929840E0,2.668819969E0
1.282223208E1,1.359772339E0,3.167413330E-1,-2.439477081E0,2.810756894E0
1.283223508E1,1.272503815E0,1.131646729E-1,-2.306104431E0,2.636321272E0
1.284223708E1,1.026565247E0,-2.649490356E-2,-1.999541931E0,2.247822529E0
1.285224008E1,9.226812744E-1,-2.709365845E-2,-9.966275024E-1,1.358433355E0
1.286224308E1,6.756948853E-1,-4.700225830E-2,-6.541397095E-2,6.804790796E-1
1.287224508E1,3.861968994E-1,-2.415975952E-1,4.501139832E-1,6.404061531E-1
1.288224808E1,3.237767029E-1,-6.571334839E-1,3.957769775E-1,8.326434921E-1
1.289225008E1,1.956431580E-1,-1.273252258E0,3.028202820E-1,1.323309367E0
1.290225308E1,-2.511776733E-1,-1.805245972E0,4.251159668E-1,1.871557327E0
1.291225608E1,-2.894979858E-1,-1.992955627E0,4.595443726E-2,2.014396442E0
1.292225808E1,-2.369572449E-1,-2.256707153E0,-2.359094238E-1,2.281343720E0
1.293226108E1,-3.403921509E-1,-2.435884552E0,-4.087998962E-1,2.493294552E0
1.294226408E1,-5.245092773E-1,-2.069147186E0,-8.128097534E-2,2.136138258E0
1.295226608E1,-9.717791748E-1,-1.732048187E0,1.485510864E0,2.480138749E0
1.296226908E1,-1.574425964E0,-2.020498352E0,3.785328369E0,4.570551561E0
1.297227208E1,-1.486408997E0,-2.778372345E0,4.666396179E0,5.630632104E0
1.298227408E1,1.385518799E0,-4.798571320E0,-2.777623901E0,5.714992877E0
1.299227708E1,9.430838470E0,-1.172391998E1,-2.499517227E1,2.917446916E1
1.300228008E1,1.115689911E1,-2.220587265E1,-4.114793243E0,2.518945615E1
1.301228208E1,9.828112335E0,-3.084485779E1,2.313439178E0,3.245533924E1
1.302228508E1,1.728620316E1,-4.580280258E1,-3.047946762E1,5.766894737E1
1.303228708E1,1.189546326E1,-4.280708221E1,-3.776751205E1,5.831237691E1
1.304229008E1,5.716462555E0,-3.139077255E1,-2.301419174E1,3.934096551E1
1.305229308E1,7.617359619E0,-2.510474442E1,-8.771908722E0,2.766258741E1
1.306229508E1,1.276320877E1,-2.361070129E1,-1.436532715E1,3.044219667E1
1.307229808E1,1.440828781E1,-2.372027344E1,-1.234842133E1,3.037653105E1
1.308230108E1,1.348635498E1,-2.312136887E1,-1.534698578E1,3.085465024E1
1.309230308E1,1.139415573E1,-2.324845459E1,-1.509610748E1,2.997014993E1
1.310230608E1,9.407936096E0,-2.521970535E1,-1.554936493E1,3.108577728E1
1.311230908E1,7.986641693E0,-2.750260803E1,-1.487726257E1,3.227247799E1
1.312231108E1,7.268285522E0,-2.772699142E1,-1.257190659E1,3.129963040E1
1.313231408E1,6.014343109E0,-2.445584381E1,-8.996142426E0,2.674305888E1
1.314231708E1,4.182452545E0,-2.022773621E1,-5.330864410E0,2.133242454E1
1.315231908E1,2.530487823E0,-1.643866562E1,-3.377576294E0,1.697177414E1
1.316232208E1,1.219064941E0,-1.131631760E1,-2.099234619E0,1.157376124E1
1.317232408E1,2.779719543E-1,-7.545509033E0,-5.319937134E-1,7.569345565E0
1.318232708E1,-2.718347168E-1,-6.206393738E0,2.842588806E-1,6.218843980E0
1.319233008E1,-9.982740784E-1,-4.791835327E0,1.010997620E0,4.998034926E0
1.320233208E1,-1.075962524E0,-3.338208160E0,6.701564026E-1,3.570775641E0
1.321233508E1,-3.122506714E-1,-2.217488708E0,-1.216071167E0,2.548251506E0
1.322233808E1,4.445755005E-1,-8.951385498E-2,-2.231559448E0,2.277173177E0
1.323234008E1,9.598040771E-1,1.212478638E0,-4.300556946E-1,1.605078258E0
1.324234308E1,1.266965332E0,1.643432465E0,1.046773224E0,2.324178479E0
1.325234608E1,1.139280853E0,1.794468384E0,2.016456757E0,2.929876362E0
1.326234771E1,6.625222778E-1,1.758543091E0,1.868414612E0,2.649977874E0
1.327235071E1,4.273612976E-1,1.753753052E0,8.714877319E-1,2.004439650E0
1.328235271E1,4.685256958E-1,1.692380676E0,1.387614441E-1,1.761511686E0
1.329235571E1,6.985972595E-1,1.420246582E0,-1.266366577E-1,1.587820937E0
1.330235871E1,8.791218567E-1,8.382568359E-2,-3.412902832E-2,8.837685074E-1
1.331236071E1,6.878196716E-1,-1.128203888E0,3.802093506E-2,1.321887100E0
1.332236371E1,1.457668762E0,-1.410965881E0,-1.706750793E0,2.651154694E0
1.333236671E1,2.558329926E0,-1.185534668E0,-3.867806854E0,4.786488725E0
1.334236871E1,7.915539551E-1,-7.059320068E-1,-1.840273132E0,2.124029864E0
1.335237171E1,-8.309220886E-1,-4.622387695E-1,-5.246589661E-1,1.085984912E0
1.336237471E1,-1.294358368E0,-2.155517578E-1,-1.302291870E-1,1.318630269E0
1.337237671E1,-8.984317017E-1,1.227447510E-1,-2.646496582E-1,9.446085105E-1
1.338237971E1,-3.986210632E-1,2.890489197E-1,-7.222480774E-1,8.741225974E-1
1.339238271E1,4.176315308E-2,4.640350342E-1,-8.963360596E-1,1.010193549E0
1.340238471E1,3.917353821E-1,3.553610229E-1,-9.479786682E-1,1.085542087E0
1.341238771E1,5.692662048E-1,2.278262329E-1,-1.018931122E0,1.189196971E0
1.342238971E1,6.171665955E-1,3.616479492E-1,-9.592053223E-1,1.196561196E0
1.343239271E1,6.072871399E-1,5.502557373E-1,-6.228547668E-1,1.029333331E0
1.344239571E1,4.255650330E-1,6.911128235E-1,-3.079096985E-1,8.680731043E-1
1.345239771E1,3.564088440E-1,6.601272583E-1,-1.986369324E-1,7.760488980E-1
1.346240071E1,3.465293884E-1,1.914518738E-1,-3.857478333E-1,5.527547629E-1
1.347240371E1,3.200344849E-1,-7.409591675E-1,-6.432124329E-1,1.032068211E0
1.348240571E1,4.251159668E-1,-1.536704407E0,-7.923023987E-1,1.780428912E0
1.349240871E1,5.319937134E-1,-2.035916290E0,-8.107141113E-1,2.255045415E0
1.350241171E1,6.239025879E-1,-2.427352295E0,-8.553213501E-1,2.648182058E0
1.351241371E1,7.045848083E-1,-2.951861572E0,-7.056326294E-1,3.115741309E0
1.352241671E1,5.920188904E-1,-3.482807465E0,-2.338137817E-1,3.540494752E0
1.353241871E1,3.658392334E-1,-3.101250916E0,5.309458923E-1,3.167569909E0
1.354242171E1,3.489244080E-1,-1.651964722E0,1.423839111E0,2.208631590E0
1.355242471E1,3.861968994E-1,-1.139879608E0,2.782563629E0,3.031688295E0
1.356242671E1,4.595443726E-1,-1.855092316E0,4.166735229E0,4.584128162E0
1.357242971E1,1.298250275E0,-3.564986572E0,3.526965637E0,5.180161160E0
1.358243271E1,5.515280914E0,-6.653813324E0,-4.824317780E0,9.897757188E0
1.359243471E1,1.191522217E1,-1.531659897E1,-1.684626801E1,2.569761602E1
1.360243771E1,9.219028931E0,-2.513977158E1,2.356100464E-1,2.677786626E1
1.361244071E1,5.970783691E0,-3.210867966E1,2.275268555E0,3.273827140E1
1.362244271E1,1.121916962E1,-4.113176605E1,-1.759231659E1,4.612137843E1
1.363244571E1,9.070687408E0,-3.758324524E1,-3.979968613E1,5.548686970E1
1.364244871E1,7.742948456E0,-2.894261353E1,-1.573288330E1,3.384009080E1
1.365245071E1,5.130580902E0,-2.576562012E1,-9.965676270E0,2.809812705E1
1.366245371E1,5.623805237E0,-2.691133759E1,-1.682710785E1,3.223350484E1
1.367245571E1,8.847052460E0,-2.897719162E1,-1.365550323E1,3.323282624E1
1.368245871E1,1.168530029E1,-3.139451477E1,-1.538829987E1,3.686409599E1
1.369246171E1,1.113519424E1,-3.158282318E1,-1.333936066E1,3.604727193E1
1.370246371E1,8.879684601E0,-2.867152725E1,-1.037537430E1,3.175773395E1
1.371246671E1,7.050189056E0,-2.629117722E1,-1.072010742E1,2.925494605E1
1.372246971E1,5.475763092E0,-2.436737778E1,-9.307944031E0,2.665315935E1
1.373247171E1,4.492457886E0,-2.237666748E1,-8.667276306E0,2.441350249E1
1.374247471E1,4.443659363E0,-1.906630142E1,-7.880362701E0,2.110379290E1
1.375247771E1,4.961881714E0,-1.464734070E1,-6.104455719E0,1.662616129E1
1.376247971E1,5.181026001E0,-1.101065323E1,-4.199816437E0,1.287307162E1
1.377248271E1,4.377796326E0,-8.558003540E0,-2.485880585E0,9.928954000E0
1.378248571E1,2.841391296E0,-5.332510986E0,-1.315763855E0,6.183883282E0
1.379248771E1,1.235979767E0,-4.666246490E0,-1.235081635E0,4.982662836E0
1.380249071E1,-3.026705933E-1,-3.527265015E0,-8.973838806E-1,3.652191917E0
1.381249271E1,-1.396146698E0,-1.481469269E0,-7.027885437E-1,2.153575755E0
1.382249571E1,-2.281106415E0,-6.215075684E-1,-1.108295288E0,2.611137028E0
1.383249871E1,-2.575095062E0,1.240919495E-1,-7.411088562E-1,2.682490583E0
1.384250071E1,-1.657503204E0,8.306227112E-1,6.640191650E-1,1.969307597E0
1.385250371E1,-4.007167053E-1,1.381926270E0,1.652862854E0,2.191403593E0
1.386250671E1,5.658233643E-2,1.621128845E0,1.977687378E0,2.557832610E0
1.387250871E1,2.724334717E-2,1.617536316E0,2.175426178E0,2.711022868E0
1.388251171E1,1.695973206E-1,1.532064056E0,1.659000092E0,2.264567250E0
1.389251471E1,4.013154602E-1,1.315464478E0,6.334826660E-1,1.514199848E0
1.390251671E1,6.119274902E-1,1.067280579E0,1.342707825E-1,1.237566859E0
1.391251971E1,8.035290527E-1,2.743794250E-1,2.652484131E-1,8.895502954E-1
1.392252271E1,7.267387390E-1,-4.251159668E-1,4.959187317E-1,9.771428598E-1
1.393252471E1,7.911048889E-1,-5.881269836E-1,4.287084961E-1,1.074956403E0
1.394252771E1,1.111887817E0,-6.164181519E-1,1.312770081E-1,1.278084312E0
1.395252971E1,8.234376526E-1,-5.511538696E-1,5.869294739E-1,1.151653751E0
1.396253271E1,2.032772827E-1,-5.219645691E-1,9.418414307E-1,1.095825691E0
1.397253571E1,-1.092727661E-1,-5.566923523E-1,6.174659729E-1,8.385172271E-1
1.398253771E1,-1.820214844E-1,-3.156935120E-1,2.068698120E-1,4.190338094E-1
1.399254071E1,-1.857637024E-1,2.140548706E-2,-2.333647156E-1,2.990408642E-1
1.400254371E1,-1.278341675E-1,2.656974792E-1,-6.180647278E-1,6.847924741E-1
1.401254571E1,-1.121168518E-1,3.665876770E-1,-8.291258240E-1,9.134584530E-1
1.402254871E1,-4.460723877E-2,2.844085693E-1,-8.765771484E-1,9.226405244E-1
1.403255171E1,3.772155762E-2,1.504371643E-1,-8.822653198E-1,8.957936988E-1
1.404255371E1,1.001417542E-1,2.544708252E-3,-9.774673462E-1,9.825870238E-1
1.405255671E1,2.764750671E-1,-1.251397705E-1,-1.440903625E0,1.472515427E0
1.406255871E1,3.408412170E-1,-2.800675964E-1,-1.641486511E0,1.699731908E0
1.407256171E1,4.367916870E-1,-5.146298218E-1,-2.213447113E0,2.314082746E0
1.408256471E1,4.658312988E-1,-9.859996033E-1,-2.704276428E0,2.915871228E0
1.409256671E1,5.096900940E-1,-1.462758179E0,-3.107986908E0,3.472611136E0
1.410256971E1,9.686357117E-1,-1.911824341E0,-3.590433655E0,4.181452054E0
1.411257271E1,2.104024658E0,-2.324815521E0,-3.729045410E0,4.872111107E0
1.412257471E1,2.211501160E0,-2.071991272E0,-3.902834015E0,4.941254755E0
1.413257771E1,1.314566345E0,-9.342073059E-1,-3.718567200E0,4.053217239E0
1.414258071E1,1.231189728E0,4.370910645E-2,-7.194039917E-1,1.426632656E0
1.415258271E1,-1.978435822E0,-1.189276886E0,7.899822235E0,8.230174917E0
1.416258571E1,-3.833677826E0,-4.380939789E0,3.601510620E0,6.845480104E0
1.417258871E1,1.536854095E0,-9.226513367E0,-2.053250244E1,2.256267107E1
1.418259071E1,7.529791718E0,-1.912991913E1,-2.063698517E1,2.912965372E1
1.419259371E1,1.081396225E1,-3.003070084E1,2.880310364E0,3.204810384E1
1.420259571E1,1.426967606E1,-4.008978287E1,-1.394964157E1,4.478176911E1
1.421259871E1,1.374441833E1,-4.305631393E1,-3.181184692E1,5.526978207E1
1.422260171E1,8.901389465E0,-3.238934601E1,-9.492809601E0,3.490584340E1
1.423260371E1,9.428443451E0,-2.661151108E1,-4.944068756E0,2.866202860E1
1.424260671E1,1.584979019E1,-3.084455841E1,-1.751837036E1,3.885223202E1
1.425260971E1,1.489118362E1,-3.071013794E1,-1.508982056E1,3.731705517E1
1.426261229E1,1.147947830E1,-2.706237350E1,-1.479134125E1,3.290796648E1
1.427261529E1,1.044827271E1,-2.551668777E1,-1.466964432E1,3.123245463E1
1.428261829E1,8.962911530E0,-2.471690094E1,-1.272189468E1,2.920797116E1
1.429262029E1,6.741081848E0,-2.406859909E1,-1.294343399E1,2.814732901E1
1.430262329E1,5.360502777E0,-2.387759628E1,-1.198333054E1,2.724839087E1
1.431262629E1,4.620142365E0,-2.284025345E1,-9.652377777E0,2.522283271E1
1.432262829E1,3.626658325E0,-2.048594925E1,-6.298152924E0,2.173691555E1
1.433263129E1,2.837200012E0,-1.628508499E1,-4.896767120E0,1.724041836E1
1.434263329E1,1.078956299E0,-1.135344040E1,-3.216810608E0,1.184958337E1
1.435263629E1,-1.548230438E0,-7.743247833E0,-1.385069733E0,8.017064467E0
1.436263929E1,-2.699187012E0,-5.595963135E0,-1.019380188E-1,6.213759352E0
1.437264129E1,-2.583926697E0,-4.089046783E0,9.379495239E-1,4.927142182E0
1.438264429E1,-1.946851501E0,-2.411185913E0,4.026626587E-1,3.125089678E0
1.439264729E1,-1.168919220E0,-1.764830017E0,-1.926194458E0,2.862031136E0
1.440264929E1,-1.883084106E-1,-1.002615051E0,-2.402054901E0,2.609705874E0
1.441265229E1,1.487905884E0,6.869215393E-1,-1.308728485E0,2.097259013E0
1.442265529E1,2.229463806E0,1.799857178E0,1.977388000E-1,2.872123841E0
1.443265729E1,2.083816681E0,2.051034851E0,1.483564911E0,3.278719379E0
1.444266029E1,1.852248230E0,1.971999207E0,1.615740051E0,3.151225204E0
1.445266229E1,1.829794922E0,1.928589478E0,1.207838287E0,2.920013726E0
1.446266529E1,2.077230377E0,1.958377533E0,9.976753235E-1,3.024150236E0
1.447266829E1,2.600242767E0,1.165177002E0,3.118016052E-1,2.866377529E0
1.448267029E1,3.262765045E0,-3.838018799E-1,-4.625381470E-2,3.285586559E0
1.449267329E1,3.314856720E0,-9.511221313E-1,3.787124634E-1,3.469341654E0
1.450267629E1,2.188898163E0,-1.023122406E0,6.029461670E-1,2.490300927E0
1.451267829E1,8.006849670E-1,-7.708969116E-1,8.949888611E-1,1.427019105E0
1.452268129E1,3.056643677E-1,-5.263055420E-1,1.126407623E0,1.280321195E0
1.453268429E1,-4.161346436E-2,-1.779798889E-1,1.064436493E0,1.080015541E0
1.454268629E1,-3.246748352E-1,4.685256958E-2,8.059240723E-1,8.701278769E-1
1.455268929E1,-4.986131287E-1,1.460961914E-1,4.864883423E-1,7.117794998E-1
1.456269129E1,-5.295986938E-1,2.258802795E-1,2.216889954E-1,6.169624688E-1
1.457269429E1,-3.959266663E-1,2.627037048E-1,-1.062789917E-2,4.752726731E-1
1.458269729E1,-2.124082947E-1,2.219883728E-1,-1.058299255E-1,3.249555269E-1
1.459269929E1,-1.137634277E-2,2.918930054E-2,-2.303709412E-1,2.324913052E-1
1.460270229E1,-1.923500061E-1,-2.793191528E-1,-1.120719452E0,1.170909819E0
1.461270529E1,-2.234852600E-1,-5.510041809E-1,-2.060016174E0,2.144112382E0
1.462270729E1,2.559677124E-1,-6.024971008E-1,-1.506616974E0,1.642685890E0
1.463271029E1,5.451663208E-1,-6.682104492E-1,-1.128652954E0,1.420411565E0
1.464271329E1,4.155358887E-1,-8.384065247E-1,-1.392105103E0,1.677364657E0
1.465271529E1,1.293310547E-1,-1.149309998E0,-1.890418854E0,2.216150589E0
1.466271829E1,-1.523831177E-1,-1.475781097E0,-2.113455048E0,2.582216625E0
1.467272029E1,-3.802093506E-1,-1.590592346E0,-1.939516754E0,2.536980174E0
1.468272329E1,-4.326004028E-1,-1.528172150E0,-1.771266632E0,2.379041553E0
1.469272629E1,-8.590635681E-1,-1.294508057E0,-3.332070923E-1,1.588951947E0
1.470272829E1,-5.303471375E-1,-3.875440979E-1,4.183799744E-1,7.787813024E-1
1.471273129E1,4.011657715E-2,-3.802093506E-1,2.830613708E-1,4.757018286E-1
1.472273429E1,6.430627441E-1,-1.502276001E0,-1.300645294E0,2.088549989E0
1.473273629E1,1.700763245E0,-3.609144745E0,-3.768563232E0,5.488222867E0
1.474273929E1,3.141816559E0,-7.830067291E0,-9.026529236E0,1.235553298E1
1.475274229E1,9.101373596E0,-1.648731445E1,-2.058145065E1,2.789735920E1
1.476274429E1,1.342722794E1,-2.861434616E1,-1.399439850E0,3.163905321E1
1.477274729E1,1.439122330E1,-4.247148010E1,-1.777688278E1,4.823848558E1
1.478274929E1,1.093685669E1,-4.301993958E1,-2.951232880E1,5.330391718E1
1.479275229E1,4.394860840E0,-3.121563675E1,-1.266770737E1,3.397354249E1
1.480275529E1,6.538553009E0,-2.326656693E1,-1.174158325E0,2.419637286E1
1.481275729E1,1.144954056E1,-2.310714844E1,-9.905950470E0,2.762535326E1
1.482276029E1,1.194246552E1,-2.632066589E1,-1.385878052E1,3.205410634E1
1.483276329E1,1.109747269E1,-2.713721786E1,-1.346060852E1,3.226097449E1
1.484276529E1,1.255065079E1,-2.816483093E1,-1.490824814E1,3.424956057E1
1.485276829E1,1.153127060E1,-2.876418457E1,-1.268402344E1,3.348481695E1
1.486277129E1,1.011506561E1,-2.839205841E1,-1.152079239E1,3.226689000E1
1.487277329E1,9.258097687E0,-2.740246628E1,-1.230456253E1,3.143262302E1
1.488277629E1,7.709268494E0,-2.496029480E1,-1.116168915E1,2.840831642E1
1.489277829E1,6.079607391E0,-2.163930084E1,-8.820258179E0,2.414576404E1
1.490278129E1,4.134402466E0,-1.784903275E1,-7.177873535E0,1.967747754E1
1.491278429E1,2.413281555E0,-1.337618408E1,-5.458399200E0,1.464719599E1
1.492278629E1,2.078876953E0,-8.621172180E0,-4.090543671E0,9.766211480E0
1.493278929E1,1.743125153E0,-4.965773621E0,-3.183879089E0,6.150973826E0
1.494279229E1,8.731343079E-1,-3.336411896E0,-2.388732605E0,4.195241509E0
1.495279429E1,-5.198689270E-1,-2.525847473E0,-1.001567230E0,2.766460930E0
1.496279729E1,-9.448352051E-1,-1.613794098E0,-7.077282715E-1,1.999480998E0
1.497280029E1,-7.327262878E-1,-1.120420074E0,-1.320553894E0,1.880449825E0
1.498280229E1,2.392025757E-1,4.433779907E-1,-2.232906647E0,2.289033422E0
1.499280529E1,8.089178467E-1,1.202299805E0,-1.977837067E0,2.451879354E0
1.500280729E1,1.035097504E0,1.771116943E0,-6.634204102E-1,2.156016862E0
1.501281029E1,9.383985901E-1,1.861229553E0,3.616479492E-1,2.115551135E0
1.502281329E1,7.376660156E-1,1.643881531E0,7.551795959E-1,1.953661654E0
1.503281529E1,1.220861206E0,1.608105927E0,7.809260559E-1,2.164798434E0
1.504281829E1,1.874252472E0,1.556163940E0,6.676116943E-1,2.525900614E0
1.505282129E1,2.095342712E0,4.463717651E-1,4.432283020E-1,2.187729454E0
1.506282329E1,2.271526337E0,-9.945318604E-1,3.270698547E-1,2.501179763E0
1.507282629E1,2.561772766E0,-1.593586121E0,-2.583627319E-1,3.028027036E0
1.508282929E1,2.090402985E0,-1.313668213E0,-5.849835205E-1,2.537265168E0
1.509283129E1,7.725434875E-1,-7.641609192E-1,-1.296304321E-1,1.094335140E0
1.510283429E1,3.833528137E-1,-7.812254333E-1,1.622625732E-1,8.852127994E-1
1.511283629E1,-1.782792664E-1,-6.930587769E-1,-2.609074402E-1,7.616998473E-1
1.512283929E1,-7.583230591E-1,-3.302133179E-1,-1.025517426E0,1.317490299E0
1.513284229E1,-1.037193146E0,-1.374142456E-1,-1.556313629E0,1.875303818E0
1.514284429E1,-1.140328674E0,-1.663041687E-1,-1.570234680E0,1.947727782E0
1.515284729E1,-1.144220581E0,-2.011816406E-1,-1.112187195E0,1.608314381E0
1.516285029E1,-9.439370728E-1,-1.288819885E-1,-2.655477905E-1,9.890113211E-1
1.517285229E1,-5.879772949E-1,2.888992310E-2,3.213816833E-1,6.706997192E-1
1.518285529E1,-1.962419128E-1,8.876541138E-2,5.818400574E-1,6.204256917E-1
1.519285829E1,1.465452576E-1,1.375639343E-1,7.592211914E-1,7.853764486E-1
1.520286029E1,3.441343689E-1,-2.260299683E-2,6.348298645E-1,7.224599063E-1
1.521286329E1,3.833528137E-1,-3.302133179E-1,1.790277100E-1,5.367039557E-1
1.522286529E1,1.484912109E-1,-6.803352356E-1,-1.502874756E-1,7.123847260E-1
1.523286829E1,1.101708984E-1,-1.018781433E0,-3.216810608E-1,1.074026043E0
1.524287129E1,2.056723022E-1,-1.297352142E0,-3.772155762E-1,1.366643797E0
1.525287329E1,-1.856140137E-2,-1.394350433E0,-2.794688416E-1,1.422202689E0
1.526287617E1,-3.141966248E-1,-1.456920319E0,-1.037342834E-1,1.494020460E0
1.527287917E1,-7.081773376E-1,-1.608105927E0,2.844085693E-1,1.780002260E0
1.528288117E1,-7.923023987E-1,-1.852547607E0,1.242266693E0,2.367045049E0
1.529288417E1,-5.918692017E-1,-1.971849518E0,2.885699158E0,3.544821477E0
1.530288717E1,-5.354365540E-1,-2.158211975E0,5.539530487E0,5.969168221E0
1.531288917E1,1.640588379E-1,-2.440824280E0,4.741988983E0,5.335822147E0
1.532289217E1,6.310726776E0,-4.363276520E0,-8.026608582E0,1.110359850E1
1.533289417E1,1.647459091E1,-1.212269073E1,-1.779499512E1,2.711150360E1
1.534289717E1,7.701484680E0,-2.390034897E1,1.206790466E0,2.513952844E1
1.535290017E1,7.879165192E0,-3.650743240E1,-2.057037369E1,4.263817701E1
1.536290217E1,1.681154022E1,-5.387521591E1,-3.536860062E1,6.660408909E1
1.537290517E1,8.233328705E0,-4.228377045E1,-3.049278992E1,5.277798008E1
1.538290817E1,3.268153839E0,-3.292807571E1,-2.124008102E1,3.932022433E1
1.539291017E1,9.688602448E0,-2.437291626E1,-4.860392761E-1,2.623250462E1
1.540291317E1,1.065544189E1,-2.149634811E1,-1.134805161E1,2.654071776E1
1.541291617E1,1.209739334E1,-2.333961502E1,-8.952583008E0,2.777108744E1
1.542291817E1,1.192989166E1,-2.459580276E1,-9.755363617E0,2.902486775E1
1.543292117E1,1.007060806E1,-2.669578583E1,-1.336091583E1,3.150549475E1
1.544292317E1,9.137448578E0,-2.816468124E1,-1.332843338E1,3.247136234E1
1.545292617E1,8.514893188E0,-2.782369034E1,-1.218750595E1,3.154673440E1
1.546292917E1,7.407645721E0,-2.544348999E1,-1.092128906E1,2.866215192E1
1.547293117E1,5.917494507E0,-2.200948105E1,-8.304730225E0,2.425701015E1
1.548293417E1,4.649930420E0,-1.806832672E1,-6.280639343E0,1.968585060E1
1.549293717E1,3.870351563E0,-1.347916992E1,-5.419180756E0,1.503446584E1
1.550293917E1,2.593207397E0,-9.084907837E0,-4.825066223E0,1.060855971E1
1.551294217E1,1.642684021E0,-5.374124451E0,-4.059558105E0,6.932505782E0
1.552294517E1,7.701484680E-1,-2.966082001E0,-2.761906586E0,4.125396840E0
1.553294717E1,-1.676513672E-1,-1.463057556E0,-9.071136475E-1,1.729595202E0
1.554295017E1,5.209167480E-1,-2.918930054E-1,-3.508703613E-1,6.925790897E-1
1.555295217E1,5.716612244E-1,4.221221924E-1,-1.025367737E-1,7.179815392E-1
1.556295517E1,2.779719543E-1,1.962419128E-1,1.820963287E0,1.852481198E0
1.557295817E1,9.300160217E-1,-2.073188782E-1,2.802023163E0,2.959602122E0
1.558296017E1,1.018482056E0,2.134561157E-1,1.957479401E0,2.216888544E0
1.559296317E1,8.854087830E-1,8.110134888E-1,1.681752777E0,2.066393959E0
1.560296617E1,1.041833496E0,6.186634827E-1,3.330574036E-1,1.256617990E0
1.561296817E1,3.700005798E0,-9.458830261E-1,-6.397695923E0,7.450855704E0
1.562297117E1,6.706952820E0,-1.919009399E0,-8.275391235E0,1.082348896E1
1.563297317E1,4.933291168E0,-1.047671356E0,-1.228944397E0,5.190884448E0
1.564297617E1,1.561403046E0,-6.463558960E-1,3.218157806E0,3.634872086E0
1.565297917E1,-1.560953979E0,-5.346881104E-1,3.664230194E0,4.018588262E0
1.566298117E1,-2.711461487E0,-5.147795105E-1,3.487447815E0,4.447394024E0
1.567298417E1,-2.983745270E0,-6.789880371E-1,3.252885590E0,4.465985361E0
1.568298717E1,-2.465672607E0,-4.378395081E-1,1.860331421E0,3.119627836E0
1.569298917E1,-1.463356934E0,-1.104702759E-1,5.078938293E-1,1.552924125E0
1.570299217E1,-1.001267853E0,4.071533203E-2,3.412902832E-2,1.002676340E0
1.571299517E1,-7.707472229E-1,2.116598511E-1,-1.508862305E-1,8.133989358E-1
1.572299717E1,-6.640191650E-1,3.580554199E-1,-3.673361206E-1,8.390834051E-1
1.573300017E1,-6.105802917E-1,4.331991577E-1,-5.715115356E-1,9.418573344E-1
1.574300217E1,-6.186634827E-1,4.519102478E-1,-7.436535645E-1,1.067702206E0
1.575300517E1,-6.215075684E-1,4.752616882E-1,-7.039860535E-1,1.052493085E0
1.576300817E1,-6.408174133E-1,5.295986938E-1,-6.762936401E-1,1.071678507E0
1.577301017E1,-5.962101746E-1,6.259982300E-1,-8.164022827E-1,1.189055526E0
1.578301317E1,-4.222718811E-1,6.938072205E-1,-1.094972992E0,1.363322359E0
1.579301617E1,-9.909393311E-2,6.472540283E-1,-1.514400787E0,1.649899127E0
1.580301817E1,2.659968567E-1,3.603007507E-1,-2.377955017E0,2.419760530E0
1.581302117E1,8.324189758E-1,-2.884501648E-1,-2.187251587E0,2.358006436E0
1.582302417E1,1.128952332E0,-4.790039062E-1,-1.006806335E0,1.586706371E0
1.583302617E1,1.100062408E0,-9.080117798E-1,6.065386963E-1,1.550003834E0
1.584302917E1,5.661227417E-1,-1.497935028E0,7.562274170E-1,1.770927501E0
1.585303117E1,8.367599487E-1,-1.341210938E0,-9.428892517E-1,1.840666763E0
1.586303417E1,1.426982574E0,-7.006929016E-1,-2.327060852E0,2.818237396E0
1.587303717E1,1.589245148E0,-8.382568359E-2,-3.172951813E0,3.549697183E0
1.588303917E1,1.967508545E0,-3.486250305E-1,-1.934577026E0,2.781225909E0
1.589304217E1,1.840123444E0,-1.967508545E0,1.075214081E0,2.900556754E0
1.590304517E1,1.651216278E0,-4.403393097E0,3.839964752E0,6.071384954E0
1.591304717E1,7.326664124E0,-8.315657501E0,-6.313870239E0,1.275519989E1
1.592305017E1,1.355625961E1,-1.993030472E1,-1.541793823E1,2.861296979E1
1.593305317E1,9.714348907E0,-3.427123260E1,-6.736591187E0,3.625282913E1
1.594305517E1,1.556163940E1,-4.819363083E1,-2.806753326E1,5.790144296E1
1.595305817E1,9.308243408E0,-4.529296280E1,-3.269231598E1,5.662935103E1
1.596306017E1,4.133354645E0,-2.917837326E1,-1.810110855E1,3.458485532E1
1.597306317E1,9.126521301E0,-2.189122696E1,-8.646020508E0,2.524426429E1
1.598306617E1,8.366701355E0,-2.185081100E1,-6.531817017E0,2.429247346E1
1.599306817E1,9.011710052E0,-2.634581360E1,-8.600066071E0,2.914230514E1
1.600307117E1,1.091709778E1,-2.867018005E1,-1.172900940E1,3.284405440E1
1.601307417E1,1.066756668E1,-2.767235504E1,-1.345836319E1,3.256814014E1
1.602307617E1,9.387877808E0,-2.699291794E1,-1.265603165E1,3.125579955E1
1.603307917E1,9.634714508E0,-2.649041290E1,-1.259001892E1,3.087196586E1
1.604308217E1,8.417745209E0,-2.528077835E1,-1.127694946E1,2.893347158E1
1.605308417E1,6.460265808E0,-2.360261810E1,-9.707762604E0,2.632601889E1
1.606308717E1,4.105662231E0,-2.061992065E1,-7.215744781E0,2.222846290E1
1.607308917E1,2.514171753E0,-1.671005127E1,-6.068231049E0,1.795467352E1
1.608309217E1,1.404678955E0,-1.240066269E1,-4.791535950E0,1.336818517E1
1.609309517E1,1.845362549E0,-8.137527924E0,-3.020718384E0,8.874089429E0
1.610309717E1,2.555036774E0,-4.553979950E0,-2.406994629E-1,5.227320779E0
1.611310017E1,1.831291809E0,-2.574795685E0,-5.474116516E-1,3.206690198E0
1.612310317E1,1.230590973E0,-1.052760773E0,-1.216370544E0,2.025392971E0
1.613310517E1,4.361929321E-1,-9.939331055E-2,-1.256038055E0,1.333332254E0
1.614310817E1,4.025129700E-1,-2.017803955E-1,-3.281925201E0,3.312667361E0
1.615311117E1,4.031117249E-1,-4.101470947E-2,-3.955075378E0,3.975776970E0
1.616311317E1,5.783972168E-1,4.421804810E-1,-1.696571960E0,1.846191576E0
1.617311617E1,1.080004120E0,7.692503357E-1,9.505233765E-1,1.631456303E0
1.618311817E1,1.325194244E0,8.313711548E-1,1.444196777E0,2.129089504E0
1.619312117E1,1.145867157E0,1.048868866E0,9.583071899E-1,1.825237001E0
1.620312417E1,8.912466431E-1,1.090482330E0,3.486250305E-1,1.450865846E0
1.621312617E1,1.172212372E0,4.827461243E-1,8.232879639E-3,1.267751334E0
1.622312917E1,1.676813049E0,-3.546125793E-1,5.987548828E-3,1.713910130E0
1.623313217E1,1.805245972E0,-1.205592957E0,2.417472839E-1,2.184218200E0
1.624313417E1,2.174078979E0,-1.746867371E0,3.387455750E-1,2.809432965E0
1.625313717E1,4.105512543E0,-1.426832886E0,-2.826721802E0,5.184731571E0
1.626313933E1,2.685265961E0,-3.068618774E-1,-2.733914795E0,3.844360493E0
1.627314133E1,-2.330653381E-1,-2.017803955E-1,-6.430627441E-1,7.131370645E-1
1.628314433E1,-1.525477753E0,-5.382806396E-1,-9.111552429E-1,1.856618512E0
1.629314633E1,-1.917063446E0,-7.113208008E-1,-1.464853821E0,2.515334223E0
1.630314933E1,-1.305884399E0,-2.532733154E-1,-1.669029236E0,2.134277402E0
1.631315233E1,-9.571096802E-1,1.547781372E-1,-1.352587280E0,1.664183753E0
1.632315433E1,-8.113128662E-1,7.679031372E-2,-7.095245361E-1,1.080532455E0
1.633315733E1,-6.268963623E-1,5.867797852E-2,-1.640588379E-1,6.506592476E-1
1.634316033E1,-5.158273315E-1,1.366658020E-1,6.706054688E-2,5.378219913E-1
1.635316233E1,-3.782633972E-1,2.264790344E-1,1.311273193E-1,4.599677430E-1
1.636316533E1,-3.999682617E-1,1.719923401E-1,2.261796570E-1,4.906253282E-1
1.637316733E1,-5.409750366E-1,-6.586303711E-3,2.625540161E-1,6.013584464E-1
1.638317033E1,-6.511459351E-1,-1.448986816E-1,2.546205139E-1,7.140155900E-1
1.639317333E1,-5.815406799E-1,-3.038681030E-1,3.252735901E-1,7.323443827E-1
1.640317533E1,-3.972738647E-1,-6.018983459E-1,2.447410583E-1,7.615814652E-1
