"Time (s)","Acceleration x (m/s^2)","Acceleration y (m/s^2)","Acceleration z (m/s^2)","Absolute acceleration (m/s^2)"
-1.293750000E-3,-6.309229889E0,-2.800436462E1,5.357209625E0,2.920189231E1
8.709250003E-3,-5.403762817E0,-2.810181198E1,8.031248932E0,2.972227193E1
1.871125000E-2,-5.174589386E0,-2.766966064E1,9.212442627E0,2.961850088E1
2.871425000E-2,-5.098397827E0,-2.631572617E1,9.200766907E0,2.834016965E1
3.871625000E-2,-5.038971405E0,-2.513064056E1,9.350455627E0,2.728316969E1
4.871925000E-2,-5.381159821E0,-2.518183411E1,9.495204620E0,2.744522838E1
5.872125000E-2,-5.839806061E0,-2.519605453E1,8.776249695E0,2.731239751E1
6.872325000E-2,-5.192252655E0,-2.271855652E1,7.090904388E0,2.435925333E1
7.872625000E-2,-4.023782501E0,-1.989722351E1,5.954916687E0,2.115540975E1
8.872825000E-2,-2.881956940E0,-1.689102493E1,5.012925568E0,1.785334204E1
9.873125000E-2,-1.579066315E0,-1.374037674E1,3.867956543E0,1.436149335E1
1.087332500E-1,-5.472619629E-1,-1.068957092E1,2.865042114E0,1.108038305E1
1.187362500E-1,-1.559756470E-1,-7.895331573E0,2.173779602E0,8.190598685E0
1.287382500E-1,-2.502795410E-1,-5.601651306E0,1.587149506E0,5.827536423E0
1.387402500E-1,-1.884580994E-1,-3.615880737E0,1.348246307E0,3.863661226E0
1.487430000E-1,2.348616028E-1,-1.634301453E0,1.383872223E0,2.154345269E0
1.587450000E-1,8.280780029E-1,1.472637634E0,1.552571411E0,2.294526698E0
1.687480000E-1,2.623444519E0,7.865992584E0,1.755100250E0,8.475652032E0
1.787500000E-1,4.162094879E0,9.723030853E0,1.840572510E0,1.073536538E1
1.887520000E-1,3.295247498E0,5.450316010E0,1.532513123E0,6.550816525E0
1.987550000E-1,2.608176270E0,4.152664490E0,1.341210938E0,5.083901317E0
2.087570000E-1,2.493664398E0,4.434977417E0,1.208736420E0,5.229572693E0
2.187600000E-1,2.100432129E0,4.107009430E0,1.023870850E0,4.725214609E0
2.287620000E-1,1.586550751E0,3.479065247E0,8.201445007E-1,3.910712886E0
2.387650000E-1,1.088985443E0,3.029250641E0,6.035449219E-1,3.275135908E0
2.487670000E-1,6.448590088E-1,2.597847748E0,4.279600525E-1,2.710683653E0
2.587690000E-1,2.043251038E-1,2.119442596E0,4.050576782E-1,2.167454126E0
2.687720000E-1,-2.080673218E-1,1.548529816E0,4.589456177E-1,1.628455612E0
2.787740000E-1,-5.658233643E-1,8.617579651E-1,5.465135193E-1,1.166816137E0
2.887770000E-1,-8.372090149E-1,2.243833923E-1,6.396199036E-1,1.077209572E0
2.987790000E-1,-9.897418213E-1,-3.249742126E-1,7.509883118E-1,1.284204250E0
3.087820000E-1,-1.146166534E0,-8.328680420E-1,7.696994019E-1,1.612390793E0
3.187840000E-1,-1.306782532E0,-1.265618134E0,5.885760498E-1,1.912038601E0
3.287860000E-1,-1.252744904E0,-1.190773773E0,3.147953796E-1,1.756817607E0
3.387890000E-1,-1.149609375E0,-9.262738037E-1,2.014810181E-1,1.490026669E0
3.487910000E-1,-1.044976959E0,-5.337899780E-1,2.203417969E-1,1.193925916E0
3.587940000E-1,-9.496252441E-1,2.859054565E-2,3.225791931E-1,1.003325899E0
3.687960000E-1,-8.903485107E-1,6.821315002E-1,3.595523071E-1,1.177837729E0
3.787990000E-1,-8.860075378E-1,1.233584747E0,2.579136658E-1,1.540538914E0
3.888010000E-1,-8.126600647E-1,1.628912659E0,1.758842468E-1,1.828854313E0
3.988030000E-1,-6.864724731E-1,1.864822083E0,2.222877502E-1,1.999554375E0
4.088060000E-1,-5.019062805E-1,2.019151154E0,3.218307495E-1,2.105339955E0
4.188080000E-1,-3.315605164E-1,2.145937500E0,3.323089600E-1,2.196681446E0
4.288110000E-1,-6.945556641E-2,2.059866486E0,3.020718384E-1,2.083055787E0
4.388130000E-1,3.296145630E-1,1.806293793E0,2.300715637E-1,1.850479924E0
4.488160000E-1,7.496411133E-1,1.476379852E0,1.806742859E-1,1.665623746E0
4.588180000E-1,1.064586182E0,1.165775757E0,1.805245972E-1,1.589014155E0
4.688200000E-1,1.265019379E0,9.692344666E-1,2.224374390E-1,1.609089150E0
4.788230000E-1,1.357227631E0,7.563771057E-1,1.413061523E-1,1.560173258E0
4.888250000E-1,1.301244049E0,3.784130859E-1,5.089416504E-3,1.355159932E0
4.988280000E-1,1.167871399E0,-1.055305481E-1,-6.810836792E-2,1.174605913E0
5.088300000E-1,1.195863190E0,-5.086422729E-1,4.565505981E-2,1.300342307E0
5.188320000E-1,1.247655487E0,-1.090332642E0,2.031275940E-1,1.669350264E0
5.288350000E-1,1.153950348E0,-2.076332245E0,4.369413757E-1,2.415300139E0
5.388370000E-1,1.295555878E0,-3.906725922E0,8.753796387E-1,4.207999759E0
5.488400000E-1,1.817969513E0,-8.411907349E0,2.490820312E0,8.959318290E0
5.588420000E-1,2.478845215E0,-1.801907913E1,6.395749969E0,1.928049543E1
5.688450000E-1,1.352437592E0,-3.394461182E1,1.300076477E1,3.637424423E1
5.788470000E-1,-1.410965881E0,-4.900569214E1,2.017070480E1,5.301326267E1
5.888500000E-1,-3.443888397E0,-5.052952332E1,2.125340332E1,5.492540620E1
5.988520000E-1,-3.523822174E0,-3.990596512E1,1.541344757E1,4.292409278E1
6.088540000E-1,-3.562292175E0,-3.322251343E1,1.071007828E1,3.508747783E1
6.188570000E-1,-4.800217896E0,-3.128419418E1,8.726403351E0,3.283128101E1
6.288590000E-1,-7.114704895E0,-3.212095413E1,8.806935883E0,3.405784549E1
6.388620000E-1,-9.684111786E0,-3.345123779E1,9.861792297E0,3.619422990E1
6.488640000E-1,-1.056413177E1,-3.295771408E1,9.693392487E0,3.594125284E1
6.588670000E-1,-1.069735474E1,-3.131892197E1,8.680299225E0,3.421484862E1
6.688690000E-1,-1.041339523E1,-2.890219757E1,7.493267670E0,3.162158891E1
6.788710000E-1,-9.452094269E0,-2.634057449E1,6.764283600E0,2.879103130E1
6.888740000E-1,-8.545130310E0,-2.450314545E1,6.482569427E0,2.674784281E1
6.988760000E-1,-7.892637177E0,-2.360501312E1,6.537954254E0,2.573393114E1
7.088790000E-1,-7.111860809E0,-2.311792603E1,7.099436646E0,2.520752008E1
7.188810000E-1,-6.309229889E0,-2.240016861E1,7.363487549E0,2.440890994E1
7.288840000E-1,-5.601202240E0,-2.147868484E1,7.347171478E0,2.338136647E1
7.388860000E-1,-4.556374969E0,-2.032772827E1,6.524931335E0,2.183006685E1
7.488880000E-1,-3.364403687E0,-1.879656235E1,4.652624817E0,1.965392800E1
7.588910000E-1,-2.651136932E0,-1.671214691E1,3.064427490E0,1.719636872E1
7.688930000E-1,-2.047442322E0,-1.414064438E1,2.142494659E0,1.444784160E1
7.788960000E-1,-1.587299194E0,-1.129715744E1,2.182012482E0,1.161492417E1
7.888980000E-1,-1.231339417E0,-8.656199341E0,2.420017548E0,9.072070806E0
7.989010000E-1,-1.046773224E0,-6.364015961E0,2.271676025E0,6.837905037E0
8.089030000E-1,-9.210346985E-1,-4.360282745E0,1.920955353E0,4.852879558E0
8.189050000E-1,-7.421566772E-1,-2.738704834E0,1.454974365E0,3.188769528E0
8.289080000E-1,-4.587959290E-1,-1.506018219E0,1.003064117E0,1.866741065E0
8.389100000E-1,-3.001258850E-1,-6.798861694E-1,6.240522766E-1,9.704442252E-1
8.489130000E-1,-9.849517822E-2,-1.272354126E-1,4.502636719E-1,4.781501067E-1
8.589150000E-1,1.282832336E-1,1.672023010E-1,2.411485291E-1,3.202589742E-1
8.689180000E-1,2.171983337E-1,2.228865051E-1,5.149291992E-2,3.154441807E-1
8.789200000E-1,8.376580811E-1,1.861977997E0,1.267863464E-1,2.045655860E0
8.889220000E-1,5.869294739E0,1.728335907E1,-3.872447205E-1,1.825686391E1
8.989250000E-1,5.929768982E0,2.055360855E1,-1.805695038E0,2.146796495E1
9.089270000E-1,4.102967834E0,9.846524048E0,-5.369334412E-1,1.068066844E1
9.189300000E-1,2.387385406E0,5.080884247E0,4.734654236E-1,5.633752153E0
9.289320000E-1,1.154848480E0,2.015558624E0,7.975415039E-1,2.456058637E0
9.389350000E-1,5.096900940E-1,1.513352966E-1,8.939410400E-1,1.040104296E0
9.489370000E-1,2.853067017E-1,-4.546046448E-1,7.116201782E-1,8.913296669E-1
9.589390000E-1,2.137554932E-1,-7.794291687E-1,7.153623962E-1,1.079325992E0
9.689420000E-1,2.356100464E-1,-1.081351318E0,6.373745728E-1,1.277137077E0
9.789440000E-1,2.989283752E-1,-1.524429932E0,7.875123596E-1,1.741671756E0
9.889470000E-1,2.362088013E-1,-1.915566559E0,1.068478088E0,2.206090493E0
9.989490000E-1,2.183958435E-1,-2.231858826E0,1.152453461E0,2.521317025E0
1.008952000E0,1.490899658E-1,-2.420167236E0,1.229543152E0,2.718678656E0
1.018954000E0,-4.340972900E-2,-2.378553772E0,1.208886108E0,2.668484228E0
1.028956000E0,-2.122586060E-1,-2.099533997E0,1.051712952E0,2.357794913E0
1.038959000E0,-2.553689575E-1,-1.595831451E0,8.381071472E-1,1.820526000E0
1.048961000E0,-1.999841309E-1,-1.026864624E0,6.294410706E-1,1.220917962E0
1.058964000E0,-1.266366577E-1,-6.017486572E-1,4.682263184E-1,7.728998478E-1
1.068966000E0,-9.879455566E-2,-2.900967407E-1,3.320095825E-1,4.518261237E-1
1.078969000E0,-1.172062683E-1,-4.894821167E-2,2.706372070E-1,2.989610921E-1
1.088971000E0,-8.487350464E-2,1.167572021E-1,2.124082947E-1,2.568132389E-1
1.098973000E0,-7.214996338E-2,1.950444031E-1,2.194436646E-1,3.023300486E-1
1.108976000E0,-3.532653809E-2,4.385879517E-1,2.820135498E-1,5.226270161E-1
1.118978000E0,4.722679138E-1,1.749412079E0,3.363505554E-1,1.842989772E0
1.128981000E0,1.592089233E0,4.601431274E0,3.890409851E-1,4.884595253E0
1.138983000E0,1.887724457E0,5.605842590E0,4.730163574E-1,5.934030607E0
1.148986250E0,1.274150391E0,4.120182037E0,5.218148804E-1,4.344151241E0
1.158988250E0,7.511380005E-1,1.752256165E0,6.005511475E-1,1.998817561E0
1.168991250E0,3.935316467E-1,2.083666992E-1,7.815248108E-1,8.994803323E-1
1.178993250E0,1.965412903E-1,-4.487667847E-1,9.783654785E-1,1.094175084E0
1.188995250E0,1.336720276E-1,-7.053332520E-1,1.130598907E0,1.339259906E0
1.198998250E0,1.468446350E-1,-1.266366577E0,1.365909576E0,1.868410187E0
1.209000250E0,1.069675598E0,-4.171225891E0,1.486408997E0,4.555517866E0
1.219003250E0,1.303639069E0,-1.390009460E1,4.719984741E0,1.473737971E1
1.229005250E0,-2.311193848E-1,-3.915213272E1,1.393137955E1,4.155750533E1
1.239008250E0,-4.822371826E0,-7.081384186E1,2.485236923E1,7.520303003E1
1.249010250E0,-9.156159668E0,-7.580281723E1,2.621184219E1,8.072770919E1
1.259012250E0,-6.233637085E0,-4.990322571E1,1.599603607E1,5.277369930E1
1.269015250E0,-4.242627411E0,-3.299618408E1,8.205336914E0,3.426478666E1
1.279017250E0,-6.167474670E0,-2.821901825E1,2.965483246E0,2.903695621E1
1.289020250E0,-1.631681900E1,-3.595523071E1,-3.716830811E1,5.422638035E1
1.299022250E0,-1.647608780E1,-4.052522736E1,-2.702510101E1,5.142092576E1
1.309025250E0,-8.328530731E0,-3.765045547E1,1.272922943E1,4.060732081E1
1.319027250E0,-5.949527893E0,-3.648602692E1,1.031115784E1,3.837899189E1
1.329030250E0,-5.822891235E0,-3.351425674E1,1.272428970E1,3.631830139E1
1.339032250E0,-6.186634827E0,-3.006692551E1,1.144175674E1,3.275985741E1
1.349034250E0,-7.338339844E0,-2.745111511E1,1.015533188E1,3.017525009E1
1.359037250E0,-8.230933685E0,-2.542178513E1,9.266929321E0,2.828235152E1
1.369039250E0,-7.659272461E0,-2.267903870E1,7.962242432E0,2.522698070E1
1.379042250E0,-6.249504089E0,-1.959230759E1,6.485114136E0,2.156319835E1
1.389044250E0,-4.473297729E0,-1.636307281E1,4.715494080E0,1.760671545E1
1.399047250E0,-2.609523468E0,-1.291634033E1,2.567460938E0,1.342510022E1
1.409049250E0,-1.276844788E0,-9.545350342E0,1.351689148E0,9.724767828E0
1.419051250E0,-7.948471069E-1,-6.494245148E0,1.104104004E0,6.635212703E0
1.429054250E0,-6.420149231E-1,-4.006268921E0,1.017883301E0,4.183116092E0
1.439056250E0,-3.674858093E-1,-2.171234894E0,7.548802185E-1,2.327906984E0
1.449059250E0,-2.101629639E-1,-8.509803772E-1,4.216731262E-1,9.726994907E-1
1.459061250E0,-5.228627014E-1,7.858657837E-1,-6.194119263E-1,1.129000252E0
1.469064250E0,-2.586621094E-1,6.434968414E0,-1.618883514E0,6.640520191E0
1.479066250E0,5.660628662E0,2.192281128E1,-5.071453857E-1,2.264750688E1
1.489068250E0,6.132148132E0,1.610171631E1,6.908134460E-1,1.724371573E1
1.499071250E0,3.070265350E0,6.229146423E0,4.164340210E-1,6.957169811E0
1.509073250E0,2.509531403E0,3.792962494E0,6.447093201E-1,4.593469544E0
1.519076250E0,2.564916229E0,2.837948456E0,7.572752380E-1,3.899514391E0
1.529078250E0,2.080673218E0,1.873354340E0,7.226971436E-1,2.891530509E0
1.539081250E0,1.475332031E0,7.566764832E-1,9.337582397E-1,1.902910495E0
1.549083250E0,1.076710968E0,-2.751278687E-1,1.140777740E0,1.592600297E0
1.559085250E0,8.310717773E-1,-1.113235016E0,1.236578522E0,1.859865302E0
1.569088250E0,7.387138367E-1,-1.644330597E0,1.268462219E0,2.204204538E0
1.579090250E0,6.298901367E-1,-1.969454498E0,1.239721985E0,2.410896764E0
1.589093250E0,5.617817688E-1,-2.031425629E0,1.234033813E0,2.442361213E0
1.599095250E0,4.448748779E-1,-1.881138153E0,1.313967590E0,2.337328654E0
1.609098250E0,2.989283752E-1,-1.653162231E0,1.409618683E0,2.193018096E0
1.619100250E0,2.860551453E-1,-1.161285095E0,1.243314514E0,1.725178715E0
1.629102250E0,3.194357300E-1,-6.237528992E-1,9.482780457E-1,1.179125997E0
1.639105250E0,3.086581421E-1,-2.701881409E-1,7.084767151E-1,8.186639945E-1
1.649107250E0,3.046165466E-1,-3.577560425E-2,5.044509888E-1,5.903744019E-1
1.659110250E0,3.373983765E-1,1.625619507E-1,3.511697388E-1,5.134045556E-1
1.669112250E0,3.640429688E-1,2.868035889E-1,2.266287231E-1,5.158916164E-1
1.679115250E0,3.582051086E-1,3.698808289E-1,1.483415222E-1,5.358431997E-1
1.689117250E0,3.845503235E-1,4.580474854E-1,1.320254517E-1,6.124680971E-1
1.699120250E0,4.358935547E-1,5.782475281E-1,1.805245972E-1,7.462992194E-1
1.709122250E0,5.400769043E-1,8.439450073E-1,2.935395813E-1,1.044074578E0
1.719124250E0,6.312373352E-1,1.123563538E0,3.992198181E-1,1.349159761E0
1.729127250E0,5.519023132E-1,1.312470703E0,4.646337891E-1,1.497684903E0
1.739129250E0,1.944456482E-1,1.425036621E0,5.658233643E-1,1.545540217E0
1.749132250E0,-2.240840149E-1,1.657203827E0,8.204438782E-1,1.862704036E0
1.759134250E0,-4.567002869E-1,1.904788971E0,7.927514648E-1,2.113114067E0
1.769137250E0,-4.029620361E-1,1.882635040E0,3.243754578E-1,1.952411979E0
1.779139250E0,-8.262817383E-2,1.515598297E0,-6.586303711E-3,1.517863298E0
1.789141250E0,3.552113342E-1,8.924441528E-1,-1.619631958E-1,9.740963683E-1
1.799144250E0,3.405418396E-1,1.505868530E-1,9.520202637E-2,3.843287273E-1
1.809146250E0,2.406994629E-1,-2.776725769E-1,3.282673645E-1,4.927451207E-1
1.819149250E0,2.332150269E-1,-4.010160828E-1,5.168751526E-1,6.945236286E-1
1.829151250E0,1.365161133E-1,-6.242019653E-1,9.937834167E-1,1.181469518E0
1.839154250E0,1.377136230E-2,-1.657952271E0,1.795815582E0,2.444166317E0
1.849156250E0,5.057981873E-1,-1.012748978E1,3.921245728E0,1.087189262E1
1.859158250E0,-2.533780975E0,-3.930062393E1,1.616578308E1,4.257101866E1
1.869161250E0,-7.722590790E0,-7.822687637E1,3.113300858E1,8.454789659E1
1.879163250E0,-1.112815887E1,-7.356751556E1,2.733495667E1,7.926673402E1
1.889166250E0,-1.001073257E1,-4.240846115E1,1.290735901E1,4.544548669E1
1.899168250E0,-8.493038635E0,-2.861404678E1,5.752238159E0,3.039709891E1
1.909171250E0,-1.003094055E1,-2.544169373E1,3.972289581E0,2.763473598E1
1.919173250E0,-1.658895309E1,-3.230357437E1,3.229833527E0,3.645745612E1
1.929175250E0,-2.579944977E1,-4.135614944E1,-4.383185120E0,4.894032097E1
1.939178250E0,-2.519096512E1,-4.131453598E1,-4.739893341E0,4.862038868E1
1.949180250E0,-1.531135986E1,-3.478526367E1,4.771926727E0,3.830435477E1
1.959183250E0,-1.108310257E1,-3.184717346E1,7.886949005E0,3.463064517E1
1.969185250E0,-1.069256470E1,-3.090952332E1,1.091006241E1,3.447838501E1
1.979188250E0,-9.260492706E0,-2.776800613E1,1.091530151E1,3.124040168E1
1.989190250E0,-6.789730682E0,-2.423819641E1,9.673483887E0,2.696603231E1
1.999193250E0,-4.899012451E0,-2.092214218E1,8.863667908E0,2.324437492E1
2.009195250E0,-2.925067291E0,-1.726404922E1,7.358398132E0,1.899340510E1
2.019197250E0,-2.120789795E0,-1.419228699E1,5.696254578E0,1.543910864E1
2.029200250E0,-1.245709534E0,-1.146555725E1,4.430935822E0,1.235491755E1
2.039202250E0,-3.776646423E-1,-8.623716888E0,3.506308594E0,9.316937453E0
2.049205250E0,1.956431580E-1,-5.872138824E0,2.721340942E0,6.475027965E0
2.059207250E0,4.376898193E-1,-3.655248871E0,1.979932709E0,4.180017968E0
2.069210250E0,-7.783813477E-3,-1.142873383E0,2.671943665E-1,1.173717592E0
2.079212250E0,-3.268902283E0,7.430248718E0,-4.877906342E0,9.470390088E0
2.089214250E0,-1.986519012E0,6.735693054E0,-4.161346436E-2,7.022645541E0
2.099217250E0,8.677455139E-1,4.860243073E0,3.894451447E0,6.288218911E0
2.109219250E0,1.409768372E0,7.662266235E0,3.057841187E0,8.369478087E0
2.119222250E0,2.082319794E0,8.462651825E0,1.818268890E0,8.902731794E0
2.129224250E0,2.830464020E0,6.985972595E0,1.109043732E0,7.618747776E0
2.139227250E0,3.720662842E0,4.752167816E0,1.116827545E0,6.137893344E0
2.149229375E0,4.471501465E0,2.921025696E0,1.143771515E0,5.462136006E0
2.159231375E0,5.079387360E0,1.671424255E0,1.406624908E0,5.529234000E0
2.169234375E0,5.358556824E0,4.432283020E-1,1.771715698E0,5.661233000E0
2.179236375E0,4.819078674E0,-8.375083923E-1,2.054777069E0,5.305379193E0
2.189239375E0,3.655847626E0,-2.036964111E0,2.345472565E0,4.797466645E0
2.199241375E0,2.116299133E0,-2.777174835E0,2.363435211E0,4.216307399E0
2.209244375E0,9.319619751E-1,-2.804717560E0,2.165546722E0,3.663957740E0
2.219246375E0,2.877017212E-1,-2.415676575E0,1.791474609E0,3.021199575E0
2.229248375E0,1.097218323E-1,-1.315015411E0,1.339863739E0,1.880568864E0
2.239251375E0,-1.110690308E-1,5.269042969E-2,8.946894836E-1,9.030957220E-1
2.249253375E0,-4.625381470E-1,8.086184692E-1,4.819976807E-1,1.048869453E0
2.259256375E0,-6.882687378E-1,8.128097534E-1,1.977388000E-1,1.083270134E0
2.269258375E0,-6.728507996E-1,5.674699402E-1,2.544708252E-3,8.802027079E-1
2.279261375E0,-4.938230896E-1,5.978567505E-1,-2.125579834E-1,8.040365876E-1
2.289263375E0,-2.532733154E-1,8.604107666E-1,-4.700225830E-1,1.012608161E0
2.299265375E0,-6.451583862E-2,1.263223114E0,-6.626719666E-1,1.427945750E0
2.309268375E0,1.288819885E-1,1.393302612E0,-7.499404907E-1,1.587549519E0
2.319270375E0,3.990701294E-1,8.990304565E-1,-7.782316589E-1,1.254255654E0
2.329273375E0,7.276368713E-1,2.874023438E-1,-9.262738037E-1,1.212451518E0
2.339275375E0,9.958790588E-1,2.454895020E-2,-1.081201630E0,1.470161459E0
2.349278375E0,1.071322174E0,-4.370910645E-2,-1.071621552E0,1.515920327E0
2.359280375E0,9.488768005E-1,-3.083587646E-2,-9.755213928E-1,1.361234742E0
2.369282375E0,8.045768738E-1,2.739303589E-2,-8.217910767E-1,1.150406406E0
2.379285375E0,7.017407227E-1,1.143621826E-1,-6.327342224E-1,9.517727391E-1
2.389287375E0,6.578819275E-1,2.031275940E-1,-4.836442566E-1,8.414161972E-1
2.399290375E0,6.201603699E-1,2.510279846E-1,-3.183879089E-1,7.409350808E-1
2.409292375E0,6.146218872E-1,2.418969727E-1,-1.419049072E-1,6.755821285E-1
2.419295375E0,5.354365540E-1,1.698966980E-1,2.035766602E-2,5.621135347E-1
2.429297375E0,3.864962769E-1,-1.407073975E-2,1.598675537E-1,4.184913290E-1
2.439299375E0,2.543211365E-1,-2.321672058E-1,2.667453003E-1,4.355845580E-1
2.449302375E0,2.209405518E-1,-6.155200195E-1,3.628454590E-1,7.478879923E-1
2.459304375E0,3.176394653E-1,-1.404978333E0,5.536985779E-1,1.543191842E0
2.469307375E0,5.610333252E-1,-3.262765045E0,1.059796143E0,3.476141826E0
2.479309375E0,5.704637146E-1,-9.064550171E0,2.532583466E0,9.428970127E0
2.489312375E0,-1.275198212E0,-2.530667450E1,7.727530518E0,2.649091604E1
2.499314375E0,-6.454877014E0,-5.236829956E1,1.846979187E1,5.590382320E1
2.509317375E0,-9.727970581E0,-6.753940109E1,2.411006287E1,7.237056890E1
2.519319375E0,-8.546926575E0,-5.344366333E1,1.662712372E1,5.661922242E1
2.529321375E0,-6.189628601E0,-3.607752640E1,9.249415741E0,3.775514673E1
2.539324375E0,-6.591393127E0,-2.996708313E1,6.803352356E0,3.142861973E1
2.549326375E0,-9.511221313E0,-3.222962814E1,6.948400726E0,3.431461108E1
2.559329375E0,-1.380489258E1,-3.938564713E1,9.644743652E0,4.283486125E1
2.569331375E0,-1.615964584E1,-4.165852066E1,1.077758789E1,4.596436553E1
2.579334375E0,-1.552975571E1,-3.715483612E1,9.527088318E0,4.138140369E1
2.589336375E0,-1.369008133E1,-3.111789001E1,8.261021118E0,3.498550951E1
2.599338375E0,-1.233599716E1,-2.698004471E1,7.366780701E0,3.056745158E1
2.609341375E0,-1.140643021E1,-2.428355209E1,6.090384979E0,2.751164011E1
2.619343375E0,-1.073447754E1,-2.319217163E1,3.964805145E0,2.586166106E1
2.629346375E0,-9.164242859E0,-2.224089981E1,2.656525726E0,2.420120039E1
2.639348375E0,-7.321874084E0,-2.034164932E1,3.274590454E0,2.186585191E1
2.649351375E0,-6.151308289E0,-1.794094162E1,4.065395966E0,1.939699524E1
2.659353375E0,-4.880750427E0,-1.514760040E1,3.910019073E0,1.638779338E1
2.669355375E0,-3.668421478E0,-1.215068253E1,3.276237030E0,1.310839926E1
2.679358375E0,-2.639760590E0,-9.156608734E0,2.650238800E0,9.891187248E0
2.689360375E0,-1.675465851E0,-6.350543976E0,2.153122559E0,6.911767600E0
2.699363375E0,-8.063731384E-1,-3.910617828E0,1.772464142E0,4.368615178E0
2.709365375E0,-1.035845947E-1,-1.977088623E0,1.423090668E0,2.438195283E0
2.719368375E0,3.234773254E-1,-6.273454285E-1,1.092727661E0,1.300866484E0
2.729370375E0,5.502557373E-1,1.209484863E-1,9.229806519E-1,1.081343237E0
2.739372375E0,-2.392175446E0,6.777456207E0,-1.440753937E0,7.330224274E0
2.749375375E0,-5.817801819E0,1.854134308E1,-1.647623749E0,1.950238153E1
2.759377375E0,8.894503784E-1,1.281380356E1,3.305576019E0,1.326316389E1
2.769380375E0,4.306843872E0,8.384214935E0,2.583627319E0,9.773387046E0
2.779382375E0,4.833598480E0,5.411696320E0,1.669328613E0,7.445588583E0
2.789385375E0,5.555247803E0,2.580633545E0,1.307081909E0,6.263298712E0
2.799387375E0,5.654790802E0,1.531764679E0,1.056203613E0,5.953026803E0
2.809389375E0,4.908293152E0,3.104544067E-1,1.070124664E0,5.033178956E0
2.819392375E0,3.672912140E0,-1.255139923E0,1.141825562E0,4.045914659E0
2.829394375E0,2.693349152E0,-2.241588593E0,1.267264709E0,3.726232536E0
2.839397375E0,1.911075897E0,-2.624342651E0,1.368454285E0,3.523074306E0
2.849399375E0,1.270857239E0,-2.586022339E0,1.473236389E0,3.236203813E0
2.859402375E0,6.502478027E-1,-2.327210541E0,1.336121521E0,2.761150453E0
2.869404375E0,1.543290710E-1,-1.971849518E0,1.090781708E0,2.258719265E0
2.879406375E0,-8.173004150E-2,-1.464704132E0,8.271798706E-1,1.684121294E0
2.889409375E0,-2.378553772E-1,-8.346643066E-1,6.182144165E-1,1.065564991E0
2.899411375E0,-4.593946838E-1,2.643502808E-1,6.698570251E-1,8.541855657E-1
2.909414375E0,-8.411009216E-1,2.176174622E0,6.435118103E-1,2.420184744E0
2.919416375E0,-1.143322449E0,3.480711823E0,3.990701294E-1,3.685349099E0
2.929419375E0,-1.015937347E0,3.311264191E0,1.583706665E-1,3.467229514E0
2.939421375E0,-4.924758911E-1,2.274071045E0,1.224453735E-1,2.330005255E0
2.949423375E0,-6.167175293E-2,1.215023346E0,1.529818726E-1,1.226168255E0
2.959426375E0,2.225871277E-1,5.225633240E-1,1.959425354E-1,6.008418545E-1
2.969428375E0,5.384303284E-1,2.374063110E-1,3.085084534E-1,6.644143593E-1
2.979431375E0,9.117539978E-1,7.738906860E-2,4.914280701E-1,1.038646219E0
2.989433375E0,1.251547394E0,-1.019380188E-1,6.041436768E-1,1.393467553E0
2.999436375E0,1.484762421E0,-1.907034302E-1,5.965095520E-1,1.611431317E0
3.009438375E0,1.536255341E0,-7.319778442E-2,5.167254639E-1,1.622480691E0
3.019441375E0,1.518143005E0,2.451901245E-1,3.891906738E-1,1.586299392E0
3.029443375E0,1.509760437E0,5.577401733E-1,2.183958435E-1,1.624237490E0
3.039445375E0,1.535357208E0,6.975494385E-1,1.092727661E-1,1.689922339E0
3.049448375E0,1.549278259E0,5.800437927E-1,5.643264771E-2,1.655263897E0
3.059450375E0,1.439855804E0,9.849517822E-2,4.745132446E-2,1.444000577E0
3.069453375E0,1.086440735E0,-6.620732117E-1,5.927673340E-2,1.273659350E0
3.079455375E0,6.655160522E-1,-1.393452301E0,8.681945801E-2,1.546660451E0
3.089458375E0,5.519023132E-1,-2.081421661E0,4.114942932E-1,2.192313812E0
3.099460375E0,5.789959717E-1,-3.454965363E0,1.025517426E0,3.650165473E0
3.109462375E0,4.132905579E-1,-7.109765167E0,2.226020966E0,7.461550721E0
3.119465375E0,-1.837578735E0,-1.847937195E1,5.275030518E0,1.930517625E1
3.129467375E0,-1.107472000E1,-4.585205017E1,1.268716690E1,4.884694598E1
3.139470375E0,-1.885703659E1,-6.847360840E1,2.076047836E1,7.399473183E1
3.149471375E0,-1.631292709E1,-5.491974380E1,1.781699936E1,5.999779426E1
3.159474375E0,-1.161584473E1,-3.293361420E1,1.002315674E1,3.633200330E1
3.169476375E0,-1.024499542E1,-2.466525833E1,5.834866333E0,2.733826192E1
3.179478375E0,-1.319071976E1,-2.580873047E1,3.797303467E0,2.923192039E1
3.189481375E0,-1.782747757E1,-3.327535355E1,4.483626251E0,3.801540496E1
3.199483375E0,-1.994677048E1,-3.822121857E1,6.672225037E0,4.362629698E1
3.209486375E0,-1.912423096E1,-3.769386520E1,8.062683563E0,4.302987973E1
3.219488375E0,-1.617386627E1,-3.418381439E1,8.129893799E0,3.868103269E1
3.229491375E0,-1.319341415E1,-3.104394379E1,7.931855621E0,3.465121869E1
3.239493375E0,-1.057520874E1,-2.959405884E1,7.404352570E0,3.228726987E1
3.249495375E0,-8.133186951E0,-2.841526016E1,5.986201630E0,3.015643132E1
3.259498375E0,-6.056854706E0,-2.658037582E1,4.317771149E0,2.760154009E1
3.269500375E0,-4.762047272E0,-2.379347122E1,3.489244080E0,2.451491773E1
3.279503375E0,-4.698579254E0,-2.045990341E1,3.461851044E0,2.127601249E1
3.289505375E0,-4.664749603E0,-1.717199066E1,3.377576294E0,1.811201739E1
3.299508375E0,-3.941304016E0,-1.393182861E1,3.052602081E0,1.479689512E1
3.309510375E0,-2.837349701E0,-1.051144135E1,2.712958374E0,1.122056574E1
3.319512375E0,-1.724863129E0,-7.284302216E0,2.460882568E0,7.879857524E0
3.329515375E0,-9.057664490E-1,-4.576283569E0,2.137854309E0,5.131588956E0
3.339517375E0,-2.782713318E-1,-2.436034241E0,1.810784454E0,3.048054805E0
3.349520375E0,2.300715637E-1,-9.213340759E-1,1.461261292E0,1.742720278E0
3.359522375E0,4.754113770E-1,-5.987548828E-4,1.247356110E0,1.334883366E0
3.369525375E0,7.635621643E-1,6.143225098E-1,1.041384430E0,1.430000299E0
3.379527375E0,1.055604858E0,9.220825195E-1,7.560777283E-1,1.592542408E0
3.389529375E0,1.669029236E0,2.852019196E0,6.173162842E-1,3.361659036E0
3.399532375E0,5.656587067E0,2.350846390E1,1.019529877E0,2.420091513E1
3.409534375E0,3.498824158E0,2.121717865E1,1.123114471E0,2.153304034E1
3.419537375E0,1.889670410E0,5.963748322E0,4.884342957E-1,6.275007280E0
3.429539375E0,2.313738556E0,3.507955170E0,1.179996185E0,4.364805445E0
3.439542375E0,2.773582306E0,4.410727844E0,1.868713989E0,5.535284175E0
3.449544375E0,2.609972534E0,3.594475250E0,1.705104218E0,4.758107749E0
3.459546375E0,2.016905823E0,1.855990448E0,1.406624908E0,3.080779654E0
3.469549375E0,1.716779938E0,1.158291321E0,1.453926544E0,2.530390194E0
3.479551375E0,1.619631958E0,1.206940155E0,1.407972107E0,2.462173363E0
3.489554375E0,1.303938446E0,8.922944641E-1,1.237626343E0,2.007028611E0
3.499556375E0,8.804690552E-1,1.540296936E-1,1.116977234E0,1.430590453E0
3.509559375E0,4.981640625E-1,-5.598358154E-1,1.080153809E0,1.314654260E0
3.519561375E0,1.811233521E-1,-1.083596649E0,1.043480072E0,1.515202306E0
3.529563375E0,-1.478924561E-1,-1.430126038E0,1.085692291E0,1.801627157E0
3.539566375E0,-3.900888062E-1,-1.489253082E0,1.119821320E0,1.903692151E0
3.549568375E0,-5.682183838E-1,-1.329834595E0,1.132095795E0,1.836565564E0
3.559571375E0,-7.183561707E-1,-1.034648438E0,1.015338593E0,1.617852105E0
3.569573375E0,-6.625222778E-1,-6.331832886E-1,9.051676941E-1,1.288093708E0
3.579576375E0,-4.465214539E-1,3.284170532E-1,8.080197144E-1,9.798648011E-1
3.589578375E0,5.120851135E-1,3.240910492E0,7.887098694E-1,3.374580750E0
3.599580375E0,6.774911499E-1,4.002377014E0,6.703060913E-1,4.114283203E0
3.609583375E0,-4.058061218E-1,1.462907867E0,4.101470947E-1,1.572577081E0
3.619585375E0,-8.789721680E-1,3.210823059E-1,3.050656128E-1,9.842514655E-1
3.629588375E0,-1.056502991E0,-1.125659180E-1,3.059637451E-1,1.105659744E0
3.639590375E0,-1.087787933E0,-3.333567810E-1,5.339396667E-1,1.256781962E0
3.649593375E0,-1.052910461E0,-5.025050354E-1,1.051862640E0,1.570842693E0
3.659595375E0,-8.026309204E-1,-5.153782654E-1,1.244362335E0,1.567886722E0
3.669597375E0,-4.869374084E-1,-4.373904419E-1,1.182690582E0,1.351730540E0
3.679600375E0,-1.284329224E-1,-4.185296631E-1,1.271905060E0,1.345141099E0
3.689602375E0,4.486170959E-1,-5.786965942E-1,1.347048798E0,1.533195196E0
3.699605375E0,9.128018188E-1,-1.113384705E0,1.551373901E0,2.116505054E0
3.709607375E0,1.063089294E0,-1.917662201E0,2.005230103E0,2.971285064E0
3.719610375E0,1.035546570E0,-2.910996552E0,2.404150543E0,3.914868766E0
3.729612375E0,9.970765686E-1,-4.726421356E0,2.908751221E0,5.638621656E0
3.739615375E0,7.047344971E-1,-1.014215927E1,4.327800293E0,1.104942988E1
3.749617375E0,-5.983058167E-1,-2.442111603E1,7.757767639E0,2.563068155E1
3.759619375E0,-3.145558777E0,-4.700285706E1,1.435754333E1,4.924735690E1
3.769622375E0,-6.017336884E0,-6.306670212E1,1.922227707E1,6.620508436E1
3.779624375E0,-6.950196991E0,-5.605483337E1,1.676109512E1,5.891845121E1
3.789627375E0,-6.213578796E0,-3.942875748E1,9.673932953E0,4.107091984E1
3.799629375E0,-7.982749786E0,-3.328972366E1,-1.786519913E1,3.861470362E1
3.809632375E0,-9.659562836E0,-3.411735260E1,-1.956910583E1,4.050000995E1
3.819634375E0,-1.060574524E1,-3.853541519E1,1.106079895E1,4.147048745E1
3.829636375E0,-9.971364441E0,-3.854110336E1,1.152692963E1,4.144532379E1
3.839639375E0,-9.532477112E0,-3.466102203E1,1.036579422E1,3.741262164E1
3.849641375E0,-9.846673737E0,-3.077914444E1,8.996441803E0,3.354472658E1
3.859644375E0,-1.046174469E1,-2.866928192E1,7.754923553E0,3.148832589E1
3.869646375E0,-1.115689911E1,-2.724454468E1,6.750063171E0,3.020438652E1
3.879649375E0,-1.151600235E1,-2.567266342E1,5.318589935E0,2.863549120E1
3.889651375E0,-1.089733887E1,-2.346894608E1,4.123475189E0,2.620203183E1
3.899653375E0,-9.265432434E0,-2.050615723E1,3.387156372E0,2.275573665E1
3.909656375E0,-7.206913147E0,-1.724533813E1,3.000510406E0,1.892998540E1
3.919658375E0,-5.213658142E0,-1.395952103E1,2.622696075E0,1.513039964E1
3.929661375E0,-3.444936218E0,-1.067969147E1,2.407892761E0,1.147699189E1
3.939663375E0,-2.032922516E0,-7.671247559E0,2.233056335E0,8.244231538E0
3.949666375E0,-1.151106262E0,-4.867278442E0,1.657203827E0,5.268943878E0
3.959668375E0,-8.524772644E-1,-2.424059143E0,6.554869080E-1,2.651875431E0
3.969670375E0,-4.938230896E-1,-8.235873413E-1,4.261637878E-1,1.050605981E0
3.979673375E0,-1.285826111E-1,-7.484436035E-4,7.101232910E-1,7.216710722E-1
3.989675375E0,-7.743397522E-1,2.136357422E0,6.388714600E-1,2.360462206E0
3.999678375E0,-3.144510956E0,9.953551483E0,6.740483093E-1,1.046018534E1
4.009680375E0,1.284329224E0,1.629691040E1,2.385140076E0,1.652052310E1
4.019683375E0,6.361620941E0,1.038240967E1,1.351240082E0,1.225114286E1
4.029685375E0,4.214186554E0,3.383863220E0,9.388476562E-1,5.485556811E0
4.039687375E0,2.716550903E0,1.173409882E0,1.550475769E0,3.340735648E0
4.049690375E0,3.067870331E0,5.264552307E-1,1.721719666E0,3.557148027E0
4.059692375E0,3.228336639E0,-3.004252625E-1,1.952839050E0,3.784969373E0
4.069695375E0,3.182531891E0,-1.201251984E0,2.140548706E0,4.019137262E0
4.079697375E0,3.003653870E0,-1.754202118E0,2.291285248E0,4.165231053E0
4.089700375E0,2.455194397E0,-1.859433289E0,2.202070770E0,3.786104510E0
4.099702375E0,1.659748535E0,-1.550326080E0,1.930685120E0,2.980909456E0
4.109705375E0,1.143322449E0,-1.065334625E0,1.514849854E0,2.176440710E0
4.119707375E0,8.463400269E-1,-6.562353516E-1,1.022972717E0,1.481016360E0
4.129709375E0,6.111790466E-1,-3.153941345E-1,6.402186584E-1,9.396239768E-1
4.139712375E0,5.022056580E-1,-0.000000000E0,3.411405945E-1,6.071140157E-1
4.149714625E0,4.839436340E-1,2.694396973E-1,1.386117554E-1,5.709749645E-1
4.159717625E0,4.888833618E-1,5.291496277E-1,2.694396973E-3,7.204259363E-1
4.169719625E0,6.291416931E-1,1.083446960E0,-3.667373657E-2,1.253403985E0
4.179721625E0,1.047970734E0,2.414628754E0,5.074447632E-2,2.632726662E0
4.189724625E0,1.493743744E0,3.848347321E0,9.639953613E-2,4.129205776E0
4.199726625E0,9.704319763E-1,2.825374603E0,-2.112107849E-1,2.994843880E0
4.209729625E0,2.381547546E-1,1.076860657E0,-3.951782227E-1,1.171542739E0
4.219731625E0,3.143463135E-3,5.352868652E-1,-3.529660034E-1,6.411917880E-1
4.229734625E0,-2.227368164E-1,1.841171265E-1,-3.665876770E-1,4.667947414E-1
4.239736625E0,-4.587959290E-1,-2.047741699E-1,-4.456233215E-1,6.715700334E-1
4.249738625E0,-5.210664368E-1,-2.948867798E-1,-5.204676819E-1,7.933190104E-1
4.259741625E0,-5.662724304E-1,-2.773731995E-1,-5.556445312E-1,8.404410761E-1
4.269743625E0,-4.927752686E-1,-1.215472412E-1,-5.984555054E-1,7.846975144E-1
4.279746625E0,-3.016227722E-1,1.956431580E-1,-6.698570251E-1,7.602374472E-1
4.289748625E0,-2.155517578E-1,6.023474121E-1,-6.694079590E-1,9.259546321E-1
4.299751625E0,-2.559677124E-2,1.110540619E0,-4.207749939E-1,1.187858264E0
4.309753625E0,4.198768616E-1,1.275347900E0,-2.303709412E-1,1.362306726E0
4.319755625E0,8.505313110E-1,5.051994324E-1,-5.643264771E-2,9.908655919E-1
4.329758625E0,7.771838379E-1,-4.179309082E-1,2.171983337E-1,9.087662395E-1
4.339760625E0,9.060658264E-1,-1.030756531E0,4.071533203E-1,1.431498562E0
4.349763625E0,1.529070282E0,-2.958896942E0,9.942324829E-1,3.475863241E0
4.359765625E0,1.897903290E0,-9.379345551E0,3.081492004E0,1.005334536E1
4.369768625E0,-7.870632935E-1,-3.010255142E1,1.103460342E1,3.207094547E1
4.379770625E0,-6.236630859E0,-6.321324738E1,2.472258911E1,6.816169467E1
4.389773625E0,-8.823850708E0,-7.288343811E1,2.743659531E1,7.837488535E1
4.399775625E0,-6.307134247E0,-4.657040634E1,1.443463303E1,4.916239742E1
4.409777625E0,-4.197571106E0,-2.872960648E1,6.365812225E0,2.972429069E1
4.419780625E0,-5.124892731E0,-2.479608627E1,5.145250397E0,2.583764737E1
4.429782625E0,-8.620124359E0,-2.976635056E1,7.298971710E0,3.183735475E1
4.439785625E0,-1.245604752E1,-3.788082642E1,1.010743149E1,4.113721309E1
4.449787625E0,-1.510149628E1,-4.072371460E1,1.032088760E1,4.464299320E1
4.459790625E0,-1.735985001E1,-3.767455536E1,4.820575562E0,4.176092028E1
4.469792625E0,-1.712438965E1,-3.285532700E1,1.720073090E0,3.709010494E1
4.479794625E0,-1.309821213E1,-2.928285599E1,5.888454895E0,3.261476225E1
4.489797625E0,-1.018856277E1,-2.753733582E1,7.080725555E0,3.020344930E1
4.499799625E0,-8.090525665E0,-2.614433258E1,6.704258423E0,2.817676015E1
4.509802625E0,-6.313421173E0,-2.320863739E1,5.655988312E0,2.470810272E1
4.519804625E0,-4.590054932E0,-1.984947281E1,4.326153717E0,2.082752460E1
4.529807625E0,-3.198249207E0,-1.653805893E1,3.061134338E0,1.712036024E1
4.539809625E0,-2.110311584E0,-1.324760147E1,2.327360229E0,1.361502719E1
4.549811625E0,-1.440753937E0,-1.018257523E1,2.246827698E0,1.052657802E1
4.559814625E0,-1.110241241E0,-7.485932922E0,2.240989838E0,7.892646121E0
4.569816625E0,-5.513035583E-1,-5.024301910E0,2.004781036E0,5.437526304E0
4.579819625E0,-4.296066284E-2,-2.952310638E0,1.514700165E0,3.318478614E0
4.589821625E0,1.710942078E-1,-1.385818176E0,1.057850189E0,1.751802577E0
4.599824625E0,1.733395386E-1,-4.222718811E-1,8.074209595E-1,9.275175163E-1
4.609826625E0,2.294728088E-1,1.053808594E-1,6.357279968E-1,6.840416519E-1
4.619829625E0,3.523672485E-1,2.676434326E-1,2.978805542E-1,5.334121384E-1
4.629831625E0,3.812571716E-1,2.185455322E-1,1.215472412E-1,4.559527524E-1
4.639833625E0,1.529818726E-1,2.038011932E0,8.592132568E-2,2.045550919E0
4.649836625E0,9.500743103E-1,2.865371429E1,-3.689826965E-1,2.867183517E1
4.659838625E0,2.844085693E0,2.336012238E1,5.388793945E-3,2.353261927E1
4.669841625E0,3.312761078E0,6.726112976E0,2.405497742E-1,7.501522907E0
4.679843625E0,2.426454163E0,1.297950897E0,1.517843628E0,3.142643094E0
4.689845625E0,1.400038605E0,-6.155200195E-1,1.687890015E0,2.277706235E0
4.699848625E0,1.181792450E0,-9.616003418E-1,1.554068298E0,2.176335656E0
4.709850625E0,1.264420624E0,-9.557624817E-1,1.774260406E0,2.379126189E0
4.719853625E0,1.256936188E0,-1.124611359E0,1.952539673E0,2.580126055E0
4.729855625E0,1.324146423E0,-1.237626343E0,2.050436096E0,2.736671500E0
4.739858625E0,1.269210663E0,-1.204694824E0,1.900447998E0,2.583386909E0
4.749860625E0,1.027912445E0,-1.088686066E0,1.603016510E0,2.193513911E0
4.759862625E0,7.439529419E-1,-9.361532593E-1,1.234782257E0,1.718876414E0
4.769865625E0,4.314028931E-1,-7.899073792E-1,9.217831421E-1,1.288311408E0
4.779867625E0,1.604663086E-1,-6.194119263E-1,6.475534058E-1,9.103548670E-1
4.789870625E0,-1.901046753E-2,-4.278103638E-1,4.224215698E-1,6.015173213E-1
4.799872625E0,-4.475692749E-2,-1.803749084E-1,2.609074402E-1,3.203294905E-1
4.809875625E0,1.811233521E-2,8.981323242E-4,1.031355286E-1,1.047177186E-1
4.819877625E0,3.727249146E-2,8.307723999E-2,-1.676513672E-2,9.258583171E-2
4.829879625E0,2.844085693E-2,1.287322998E-1,-7.679031372E-2,1.525701138E-1
4.839882625E0,1.362167358E-2,1.505868530E-1,-9.385482788E-2,1.779625776E-1
4.849884625E0,1.017883301E-2,1.839674377E-1,-7.095245361E-2,1.974382877E-1
4.859887625E0,-1.437011719E-2,7.167095947E-1,4.730163574E-2,7.184125473E-1
4.869889625E0,-2.829116821E-1,2.305206299E0,9.385482788E-2,2.324397520E0
4.879892625E0,-6.267466736E-1,3.920646973E0,-1.646575928E-3,3.970426525E0
4.889894625E0,-3.683839417E-1,3.866309967E0,4.400848389E-2,3.884069546E0
4.899896625E0,1.643582153E-1,2.737507324E0,9.684860229E-2,2.744146429E0
4.909899625E0,5.734574890E-1,1.804347839E0,8.936416626E-2,1.895391931E0
4.919901625E0,9.345066833E-1,1.408421173E0,1.369651794E-1,1.695792559E0
4.929904625E0,1.295106812E0,1.263372803E0,2.992277527E-1,1.833834709E0
4.939906625E0,1.656754761E0,7.903564453E-1,6.096821594E-1,1.934221286E0
4.949909625E0,1.407972107E0,-2.168989563E-1,9.521699524E-1,1.713492991E0
4.959911625E0,1.189127197E0,-9.616003418E-1,1.375040588E0,2.056559099E0
4.969913625E0,1.220412140E0,-1.393302612E0,1.854792938E0,2.621250618E0
4.979916625E0,1.167871399E0,-2.086511078E0,2.424508209E0,3.405244799E0
4.989918625E0,1.537752228E0,-6.183491364E0,3.085533600E0,7.079602033E0
4.999921625E0,-1.413660278E0,-2.366653519E1,9.102122040E0,2.539590417E1
5.009923625E0,-1.033016830E1,-6.343643326E1,2.540726532E1,6.911166741E1
5.019926625E0,-1.536509811E1,-8.356971588E1,3.462389923E1,9.175400836E1
5.029928625E0,-1.131167725E1,-5.538871857E1,2.164753372E1,6.053494778E1
5.039931625E0,-6.114335175E0,-3.180391342E1,8.684939575E0,3.353061555E1
5.049933625E0,-6.083050232E0,-2.516671555E1,5.743556213E0,2.652085047E1
5.059935625E0,-8.790919189E0,-2.613759659E1,5.561983795E0,2.813165262E1
5.069938625E0,-1.203886505E1,-3.110441803E1,6.246809692E0,3.393290032E1
5.079940625E0,-1.739727219E1,-3.565989487E1,1.127754822E0,3.969338751E1
5.089943625E0,-1.992641281E1,-3.655772781E1,-3.648063812E0,4.179518824E1
5.099945625E0,-1.359263397E1,-3.318883347E1,6.159990234E0,3.638961177E1
5.109948625E0,-1.037522461E1,-3.125829803E1,9.380243683E0,3.424493325E1
5.119950625E0,-9.273066559E0,-2.979688705E1,9.483229523E0,3.261557732E1
5.129952625E0,-8.037685547E0,-2.714545074E1,9.020841064E0,2.971288371E1
5.139955625E0,-6.902146912E0,-2.416065765E1,7.638765106E0,2.626266823E1
5.149957375E0,-6.018833771E0,-2.130280060E1,6.052663422E0,2.294930081E1
5.159960375E0,-5.006488953E0,-1.827863937E1,4.676275635E0,1.952027517E1
5.169962375E0,-3.931574249E0,-1.514625320E1,3.917054443E0,1.613101292E1
5.179965375E0,-3.015628967E0,-1.217178864E1,3.450774078E0,1.300593320E1
5.189967375E0,-2.125430145E0,-9.331145782E0,2.901266785E0,1.000025419E1
5.199969375E0,-1.311273193E0,-6.777905273E0,2.321971436E0,7.283610961E0
5.209972375E0,-6.381230164E-1,-4.613855438E0,1.676363983E0,4.950258498E0
5.219974375E0,-1.938468933E-1,-2.784509583E0,1.142124939E0,3.015877917E0
5.229977375E0,1.248403931E-1,-1.329535217E0,7.277865601E-1,1.520829476E0
5.239979375E0,-1.014889526E-1,4.944218445E-1,-7.499404907E-2,5.102715701E-1
5.249982375E0,-5.719606018E-1,2.404150543E0,-7.958949280E-1,2.596252588E0
5.259984375E0,1.440005493E-1,2.768792267E0,-3.857478333E-1,2.799240641E0
5.269986375E0,1.976789246E0,2.478845215E0,5.225633240E-1,3.213322540E0
5.279989375E0,4.467908936E0,2.505938873E0,1.616488495E0,5.371682692E0
5.289991375E0,6.190676422E0,4.371509399E0,2.410587158E0,7.952703907E0
5.299994375E0,9.010961609E0,1.972642868E1,4.705764313E0,2.219174701E1
5.309996375E0,8.008795624E0,1.846784592E1,6.113736420E0,2.103758335E1
5.319999375E0,3.263363800E0,3.539838867E0,3.091521149E0,5.721669818E0
5.330001375E0,1.288819885E0,6.316864014E-2,1.067280579E0,1.674555107E0
5.340003375E0,2.642005920E-1,-6.794371033E-1,9.207353210E-1,1.174389314E0
5.350006375E0,1.197509766E-2,-4.950205994E-1,9.232800293E-1,1.047680681E0
5.360008375E0,-1.329235840E-1,-3.875440979E-1,7.385641479E-1,8.445922730E-1
5.370011375E0,-2.484832764E-1,-2.838098145E-1,5.032534790E-1,6.289324396E-1
5.380013375E0,-3.484753418E-1,-1.481918335E-1,2.468367004E-1,4.520223889E-1
5.390016375E0,-4.818479919E-1,-6.481521606E-2,-6.436614990E-3,4.862303257E-1
5.400018375E0,-6.203100586E-1,-1.122665405E-2,-5.957611084E-2,6.232655289E-1
5.410020375E0,-7.848179626E-1,2.993774414E-4,-2.948867798E-2,7.853718267E-1
5.420023375E0,-8.399034119E-1,3.158432007E-2,3.712280273E-2,8.413164761E-1
5.430025375E0,-8.857081604E-1,1.676513672E-2,4.909790039E-2,8.872263629E-1
5.440028375E0,-9.199868774E-1,4.101470947E-2,2.469863892E-2,9.212318296E-1
5.450030375E0,-8.897497559E-1,1.995350647E-1,7.439529419E-2,9.148789701E-1
5.460033375E0,-7.818241882E-1,6.057902527E-1,2.906954956E-1,1.030890277E0
5.470035375E0,-6.963519287E-1,1.310375061E0,5.245092773E-1,1.573880171E0
5.480037375E0,-6.435118103E-1,1.921853485E0,6.072871399E-1,2.115756588E0
5.490040375E0,-6.381230164E-1,1.937271423E0,3.941304016E-1,2.077392675E0
5.500042375E0,-5.611830139E-1,1.302441559E0,1.829196167E-1,1.429944046E0
5.510045375E0,-3.760180664E-1,6.059399414E-1,1.902543640E-1,7.380714883E-1
5.520047375E0,-2.257305908E-1,3.086581421E-1,2.980302429E-1,4.848156083E-1
5.530050375E0,-1.796264648E-2,3.436853027E-1,3.671864319E-1,5.032575084E-1
5.540052375E0,1.652563477E-1,3.773652649E-1,3.547622681E-1,5.436639315E-1
5.550054375E0,5.110372925E-1,3.269201660E-1,2.380050659E-1,6.516765460E-1
5.560057375E0,8.705895996E-1,2.752775574E-1,2.192939758E-1,9.390387811E-1
5.570059375E0,1.234931946E0,1.892065430E-1,4.206253052E-1,1.318249473E0
5.580062375E0,1.560953979E0,-1.206491089E-1,1.103355560E0,1.915339924E0
5.590064375E0,1.874252472E0,-9.110055542E-1,2.468666382E0,3.230645006E0
5.600067375E0,1.542392578E0,-1.589843903E0,2.518063660E0,3.353687984E0
5.610069375E0,1.012644196E0,-1.879641266E0,2.023342438E0,2.941498627E0
5.620071375E0,1.088087311E0,-3.450325012E0,2.122586060E0,4.194525988E0
5.630074375E0,9.517208862E-1,-9.034612427E0,4.107608185E0,9.970077199E0
5.640076375E0,-2.021246796E0,-2.640419220E1,1.046054718E1,2.847261582E1
5.650079375E0,-7.748037872E0,-5.502257996E1,2.109278732E1,5.943418270E1
5.660081375E0,-1.010458740E1,-6.678242523E1,2.464939133E1,7.189984353E1
5.670084375E0,-7.359595642E0,-4.689657806E1,1.561732361E1,4.997352778E1
5.680086375E0,-4.702920227E0,-3.077330658E1,7.425608368E0,3.200396094E1
5.690089375E0,-5.372627563E0,-2.811094299E1,5.115162964E0,2.907327183E1
5.700091375E0,-8.386460266E0,-3.386737244E1,6.865473175E0,3.555933567E1
5.710093375E0,-1.057041870E1,-3.937232483E1,-1.946402435E0,4.081301504E1
5.720096375E0,-1.192989166E1,-3.971511200E1,-2.179587524E1,4.684733305E1
5.730098375E0,-1.009770172E1,-3.483930130E1,3.615731049E0,3.645290120E1
5.740101375E0,-7.117848358E0,-2.927851501E1,9.031768341E0,3.145581101E1
5.750103375E0,-4.743785248E0,-2.657334045E1,7.840844879E0,2.810915811E1
5.760106375E0,-3.847898254E0,-2.625570099E1,8.870553589E0,2.797954389E1
5.770108375E0,-4.678520966E0,-2.737178009E1,8.960217133E0,2.917856053E1
5.780110375E0,-5.397625580E0,-2.764047134E1,8.657097473E0,2.946311855E1
5.790113375E0,-5.734574890E0,-2.603281448E1,7.421267395E0,2.767070633E1
5.800115375E0,-6.029910736E0,-2.334545288E1,6.127657471E0,2.487806624E1
5.810118375E0,-6.103258209E0,-2.048594925E1,5.048102417E0,2.196377052E1
5.820120375E0,-5.635031891E0,-1.757779678E1,4.182452545E0,1.892684426E1
5.830123375E0,-4.839436340E0,-1.462847992E1,3.529510345E0,1.580727719E1
5.840125375E0,-4.038901062E0,-1.170251450E1,2.942431183E0,1.272475810E1
5.850127375E0,-3.331771545E0,-8.948840790E0,2.323767700E0,9.827631934E0
5.860130375E0,-2.711012421E0,-6.573131104E0,1.783690796E0,7.330565715E0
5.870132375E0,-2.149979095E0,-4.658612366E0,1.364412689E0,5.309114924E0
5.880135375E0,-1.505868530E0,-3.121309204E0,1.039737854E0,3.618185454E0
5.890137375E0,-8.981323242E-1,-1.928290100E0,8.003855896E-1,2.272787160E0
5.900140375E0,-5.074447632E-1,-1.020278320E0,6.378236389E-1,1.305866392E0
5.910142375E0,-2.192939758E-1,-3.950285339E-1,4.912783813E-1,6.674517499E-1
5.920144375E0,1.359173584E-1,5.493576050E-2,4.293072510E-1,4.536476406E-1
5.930147375E0,3.987707520E-1,2.516267395E-1,2.957849121E-1,5.566173218E-1
5.940149375E0,6.732998657E-1,3.067121887E-1,1.636097717E-1,7.577421945E-1
5.950152375E0,9.978250122E-1,4.424798584E-1,2.995271301E-1,1.131883246E0
5.960154375E0,8.723858643E-1,6.700067139E0,-2.664459229E-2,6.756675713E0
5.970157375E0,3.273842010E0,2.568628510E1,4.492158508E-1,2.589797441E1
5.980159375E0,6.807094574E0,1.416564240E1,2.891986084E0,1.598016097E1
5.990161375E0,5.391937408E0,4.721930695E0,2.371668091E0,7.549465414E0
6.000164375E0,3.194357300E0,1.008153534E0,2.981050873E0,4.484078101E0
6.010166375E0,2.411485291E0,-9.479786682E-1,3.337759094E0,4.225465730E0
6.020169375E0,1.912572784E0,-1.297651520E0,2.721790009E0,3.570710710E0
6.030171375E0,1.528321838E0,-1.299597473E0,2.160906372E0,2.948599258E0
6.040174375E0,1.115929413E0,-1.113684082E0,1.823507996E0,2.410554314E0
6.050176375E0,6.932084656E-1,-9.777667236E-1,1.498234406E0,1.918664139E0
6.060178375E0,3.082090759E-1,-8.246351624E-1,1.192270660E0,1.482067918E0
6.070181375E0,-1.287322998E-2,-6.664141846E-1,9.556127930E-1,1.165104886E0
6.080183375E0,-2.152523804E-1,-5.462141418E-1,7.906558228E-1,9.847944486E-1
6.090186375E0,-3.116519165E-1,-4.842430115E-1,6.685098267E-1,8.823398436E-1
6.100188375E0,-3.487747192E-1,-4.004173279E-1,5.173242188E-1,7.413515958E-1
6.110190375E0,-3.682342529E-1,-2.227368164E-1,4.323010254E-1,6.099937139E-1
6.120193375E0,-2.586621094E-1,1.038839722E-1,4.318519592E-1,5.139981334E-1
6.130195375E0,-1.302291870E-1,6.328839111E-1,4.312532043E-1,7.768404034E-1
6.140198375E0,-6.032455444E-2,1.708846436E0,4.974156189E-1,1.780791254E0
6.150200750E0,-1.514849854E-1,3.645968170E0,4.980143738E-1,3.682940390E0
6.160203750E0,-4.679269409E-1,4.543801117E0,6.002517700E-2,4.568225830E0
6.170205750E0,-5.222639465E-1,3.541485443E0,-1.924996948E-1,3.584959540E0
6.180207750E0,-3.673361206E-1,1.924248505E0,1.392105103E-2,1.959046178E0
6.190210750E0,-4.281097412E-2,8.626560974E-1,4.216731262E-1,9.611537584E-1
6.200212750E0,3.815565491E-1,4.584965515E-1,6.373745728E-1,8.729552302E-1
6.210215750E0,6.747967529E-1,3.385958862E-1,5.457650757E-1,9.315886162E-1
6.220217750E0,9.316625977E-1,1.845661926E-1,4.857398987E-1,1.066772293E0
6.230220750E0,1.182540894E0,8.382568359E-3,5.439688110E-1,1.301681720E0
6.240222750E0,1.187779999E0,-3.725752258E-1,6.731501770E-1,1.415190724E0
6.250224750E0,9.169931030E-1,-8.048762512E-1,7.536827087E-1,1.434133800E0
6.260227750E0,5.444178772E-1,-1.054706726E0,8.325686646E-1,1.449816431E0
6.270229750E0,2.773731995E-1,-1.208586731E0,1.074315948E0,1.640662225E0
6.280232750E0,1.916015625E-2,-1.617835693E0,1.634750519E0,2.300036674E0
6.290234750E0,2.031275940E-1,-4.406386871E0,2.351909180E0,4.998898165E0
6.300237750E0,-1.182540894E-1,-1.809871353E1,6.768325195E0,1.932324097E1
6.310239750E0,-6.838978271E0,-5.689443741E1,2.187550964E1,6.133748083E1
6.320241750E0,-1.316781738E1,-9.205586884E1,3.509062866E1,9.939329264E1
6.330244750E0,-1.143322449E1,-7.295738434E1,2.569391922E1,7.818999959E1
6.340246750E0,-5.560187531E0,-4.283028397E1,1.180834442E1,4.477483566E1
6.350249750E0,-4.605173492E0,-3.414863754E1,5.935756531E0,3.496527241E1
6.360251750E0,-7.767497406E0,-3.551439743E1,5.382956085E0,3.675027424E1
6.370254750E0,-1.251951553E1,-4.022480209E1,5.826783142E0,4.252910032E1
6.380256750E0,-1.866633316E1,-4.446458542E1,-2.462005234E1,5.414497509E1
6.390259750E0,-1.397763336E1,-4.262281540E1,-1.899400177E1,4.871191569E1
6.400261750E0,-6.281537476E0,-3.591062347E1,8.080646210E0,3.734069408E1
6.410263750E0,-4.458478546E0,-3.304198883E1,8.158783722E0,3.432516291E1
6.420266750E0,-3.885470123E0,-2.954570938E1,8.518485718E0,3.099371581E1
6.430268750E0,-3.984863434E0,-2.571337875E1,7.093748474E0,2.696995089E1
6.440271750E0,-4.264781342E0,-2.105371857E1,5.723348236E0,2.223070265E1
6.450273750E0,-3.825894012E0,-1.667786819E1,4.337080994E0,1.765216769E1
6.460276750E0,-3.305276642E0,-1.360610596E1,3.433859253E0,1.441673896E1
6.470278750E0,-2.877316589E0,-1.079824493E1,2.827769623E0,1.152724275E1
6.480280750E0,-2.222278748E0,-8.044421539E0,2.193239136E0,8.629109956E0
6.490283750E0,-1.503024445E0,-5.441634064E0,1.577868805E0,5.861751763E0
6.500285750E0,-8.888516235E-1,-3.266806641E0,1.260379028E0,3.612566696E0
6.510288750E0,-3.153941345E-1,-1.573527832E0,1.072669373E0,1.930306422E0
6.520290750E0,3.787124634E-2,-4.354444885E-1,8.173004150E-1,9.268366104E-1
6.530292750E0,3.680845642E-1,1.640588379E-1,6.251000977E-1,7.437416761E-1
6.540295750E0,6.204597473E-1,3.620970154E-1,4.029620361E-1,8.236886239E-1
6.550297750E0,6.382727051E-1,2.851570129E-1,1.706451416E-1,7.196015095E-1
6.560300750E0,6.830296326E-1,2.664459229E-1,2.751278687E-1,7.830825326E-1
6.570302750E0,8.973838806E-1,5.062472534E-1,2.670446777E-1,1.064376329E0
6.580305750E0,2.090253296E0,2.109233826E1,-2.035167847E0,2.129313974E1
6.590307750E0,3.701352997E0,3.697401215E1,-1.621128845E0,3.719416146E1
6.600309750E0,2.700534210E0,9.520801392E0,1.281634827E0,9.979034622E0
6.610312750E0,2.620301056E0,3.360960846E0,1.472487946E0,4.508908535E0
6.620314750E0,1.980232086E0,8.939410400E-1,1.786534882E0,2.812855592E0
6.630317750E0,1.001716919E0,-6.468049622E-1,1.249751129E0,1.727330695E0
6.640319750E0,9.089099121E-1,-9.042695618E-1,1.379082184E0,1.882999824E0
6.650322750E0,9.117539978E-1,-1.056353302E0,1.672322388E0,2.178035771E0
6.660324750E0,8.954379272E-1,-1.171014862E0,1.802551575E0,2.328578336E0
6.670326750E0,9.087602234E-1,-1.261277161E0,1.858235779E0,2.422747496E0
6.680329750E0,9.056167603E-1,-1.297052765E0,1.792073364E0,2.390400497E0
6.690331750E0,8.722361755E-1,-1.329086151E0,1.524579620E0,2.202636820E0
6.700334750E0,8.464897156E-1,-1.300345917E0,1.369801483E0,2.069734390E0
6.710336750E0,9.226812744E-1,-1.394350433E0,1.703906708E0,2.387226829E0
6.720339750E0,1.019230499E0,-1.518891449E0,2.528092804E0,3.120435109E0
6.730341750E0,1.004111938E0,-1.476230164E0,2.138003998E0,2.785418707E0
6.740343750E0,8.351133728E-1,-1.301543427E0,1.466500397E0,2.131209293E0
6.750346750E0,3.088078308E-1,-1.080602875E0,1.111438751E0,1.580620431E0
6.760348750E0,1.383123779E-1,-8.277786255E-1,7.119195557E-1,1.100534970E0
6.770351750E0,1.713935852E-1,-6.306385803E-1,3.951782227E-1,7.637058385E-1
6.780353750E0,7.035369873E-2,-4.472698975E-1,2.784210205E-1,5.315244762E-1
6.790356750E0,-1.871109009E-2,-2.550695801E-1,2.692900085E-1,3.713861929E-1
6.800358750E0,-1.826202393E-2,-1.122665405E-1,2.983296204E-1,3.192770584E-1
6.810360750E0,8.981323242E-3,4.041595459E-2,2.791694641E-1,2.822227901E-1
6.820363750E0,3.457809448E-2,1.474433899E-1,2.550695801E-1,2.966406724E-1
6.830365750E0,5.718109131E-2,1.826202393E-1,1.646575928E-1,2.524518803E-1
6.840368750E0,1.697470093E-1,2.125579834E-1,2.469863892E-2,2.731390969E-1
6.850370750E0,2.787203979E-1,2.401007080E-1,-4.281097412E-2,3.703595412E-1
6.860372750E0,4.158352661E-1,2.636018372E-1,-3.592529297E-2,4.936552681E-1
6.870375750E0,5.846841431E-1,2.636018372E-1,1.317260742E-2,6.414943439E-1
6.880377750E0,6.530918884E-1,9.385482788E-2,1.293310547E-1,6.723572452E-1
6.890380750E0,4.833448792E-1,-3.254232788E-1,3.023712158E-1,6.564685329E-1
6.900382750E0,3.357518005E-1,-7.167095947E-1,4.983137512E-1,9.352638715E-1
6.910385750E0,2.815644836E-1,-1.403032379E0,7.200027466E-1,1.601930826E0
6.920387750E0,5.520520020E-1,-3.799249420E0,1.106648712E0,3.995463545E0
6.930389750E0,5.872288513E-1,-1.248808090E1,3.607198792E0,1.301187479E1
6.940392750E0,-3.356470184E0,-3.879632263E1,1.209454926E1,4.077620217E1
6.950394750E0,-1.016895355E1,-7.478673019E1,2.285372543E1,7.885908569E1
6.960397750E0,-1.337393875E1,-7.841862762E1,2.295925598E1,8.279777069E1
6.970399750E0,-9.470056915E0,-4.838493301E1,1.248972748E1,5.086036780E1
6.980402750E0,-5.676645355E0,-3.262675232E1,5.660928040E0,3.359725250E1
6.990404750E0,-6.461463318E0,-3.205389359E1,2.549797668E0,3.279792784E1
7.000406750E0,-1.504790771E1,-4.183605148E1,-3.829052444E1,5.867588084E1
7.010409750E0,-1.612910934E1,-4.567302246E1,-1.739667343E1,5.146666295E1
7.020411750E0,-9.038354645E0,-3.898208633E1,1.382929184E1,4.233844851E1
7.030414750E0,-6.223907318E0,-3.507985107E1,6.818171539E0,3.627423930E1
7.040416750E0,-5.941145325E0,-3.253738815E1,7.986791382E0,3.402598525E1
7.050419750E0,-6.493796082E0,-2.897344940E1,6.863826599E0,3.047527315E1
7.060421750E0,-7.516918488E0,-2.610137192E1,5.796096954E0,2.777373614E1
7.070423750E0,-8.994795227E0,-2.420751022E1,5.473068695E0,2.639818883E1
7.080426750E0,-8.954079895E0,-2.143916702E1,4.673132172E0,2.369918973E1
7.090428750E0,-8.039032745E0,-1.826277237E1,3.811074829E0,2.031450697E1
7.100431750E0,-6.520740051E0,-1.506212814E1,3.093916168E0,1.670209784E1
7.110433750E0,-4.868625641E0,-1.195114746E1,2.415227509E0,1.312885239E1
7.120436750E0,-3.398832092E0,-8.886719971E0,1.676214294E0,9.661032336E0
7.130438750E0,-2.074835358E0,-6.068231049E0,1.276695099E0,6.538984646E0
7.140440750E0,-1.067280579E0,-3.711531830E0,8.910969543E-1,3.963408904E0
7.150443917E0,-4.053570557E-1,-1.841320953E0,5.575904846E-1,1.966134366E0
7.160445917E0,2.978805542E-2,-6.167175293E-1,4.122427368E-1,7.424095320E-1
7.170448917E0,3.701802063E-1,7.200027466E-2,3.032693481E-1,4.839315264E-1
7.180450917E0,7.340734863E-1,3.335064697E-1,1.381626892E-1,8.180338485E-1
7.190453917E0,7.613168335E-1,2.592608643E-1,-1.058299255E-1,8.111840049E-1
7.200455917E0,5.134323120E-1,8.851094055E-1,-2.070195007E-1,1.043977238E0
7.210457917E0,-4.069287872E0,1.920012314E1,-4.088148651E0,2.004786252E1
7.220460917E0,1.907333679E0,3.537009750E1,-1.588047638E0,3.545706720E1
7.230462917E0,8.400381317E0,1.384156631E1,2.134710846E0,1.633133046E1
7.240465917E0,4.674329681E0,3.723207550E0,6.575825500E-1,6.011991953E0
7.250467917E0,2.671045532E0,2.180964661E-1,1.146016846E0,2.914687790E0
7.260469917E0,2.238445129E0,-1.187630310E0,9.940827942E-1,2.722003481E0
7.270472917E0,2.113604736E0,-1.292262726E0,6.861730957E-1,2.570622775E0
7.280474917E0,1.984123993E0,-1.305435333E0,7.089257812E-1,2.478605493E0
7.290477917E0,1.721569977E0,-1.284329224E0,8.171507263E-1,2.298051359E0
7.300479917E0,1.401984558E0,-1.235979767E0,9.234297180E-1,2.084689216E0
7.310482917E0,1.080602875E0,-1.165027313E0,9.339079285E-1,1.843142760E0
7.320484917E0,7.912545776E-1,-1.053958282E0,8.379574585E-1,1.561756886E0
7.330486917E0,6.231541443E-1,-9.738748169E-1,8.107141113E-1,1.412094408E0
7.340489917E0,4.812492371E-1,-9.394464111E-1,8.442443848E-1,1.351631965E0
7.350491917E0,3.427871704E-1,-8.655001831E-1,7.457492065E-1,1.192784763E0
7.360494917E0,1.567240906E-1,-7.905061340E-1,6.475534058E-1,1.033821939E0
7.370496917E0,1.571731567E-2,-6.803352356E-1,5.942642212E-1,9.034672276E-1
7.380499917E0,-3.637435913E-2,-5.894741821E-1,5.210664368E-1,7.875996044E-1
7.390501917E0,-4.760101318E-2,-5.135820007E-1,4.150868225E-1,6.620644970E-1
7.400503917E0,1.242416382E-2,-3.981719971E-1,3.324586487E-1,5.188680489E-1
7.410506917E0,2.377056885E-1,-9.385482788E-2,3.141966248E-1,4.050089407E-1
7.420508917E0,4.899311829E-1,2.336640930E-1,3.852987671E-1,6.656475135E-1
7.430511917E0,6.078858948E-1,4.079017639E-1,3.465293884E-1,8.099331621E-1
7.440513917E0,6.060896301E-1,4.659809875E-1,3.347039795E-1,8.345715514E-1
7.450515917E0,5.604345703E-1,4.725672913E-1,3.668870544E-1,8.197639069E-1
7.460518917E0,4.534071350E-1,4.177812195E-1,3.981719971E-1,7.339346815E-1
7.470520917E0,3.692820740E-1,3.791615295E-1,4.023632813E-1,6.648525594E-1
7.480523917E0,4.402345276E-1,3.448828125E-1,4.041595459E-1,6.899967624E-1
7.490525917E0,4.989125061E-1,2.550695801E-1,4.095483398E-1,6.940490055E-1
7.500528917E0,4.511618042E-1,-5.792953491E-2,4.337979126E-1,6.285566272E-1
7.510530917E0,3.781137085E-1,-3.546125793E-1,5.792953491E-1,7.773693842E-1
7.520532917E0,3.224295044E-1,-5.834866333E-1,6.268963623E-1,9.151046310E-1
7.530535917E0,2.784210205E-1,-8.605604553E-1,7.228468323E-1,1.157838549E0
7.540537917E0,2.603086853E-1,-1.783391418E0,9.595046997E-1,2.041787166E0
7.550540917E0,4.164340210E-1,-6.164331207E0,1.909579010E0,6.466752548E0
7.560542917E0,-1.675615540E0,-2.430046692E1,6.722370758E0,2.526876824E1
7.570545917E0,-1.222627533E1,-6.895964767E1,1.934891373E1,7.265875913E1
7.580547917E0,-2.086511078E1,-9.166143906E1,2.482407806E1,9.722863318E1
7.590549917E0,-1.580742828E1,-5.728976532E1,1.382749557E1,6.101796156E1
7.600552917E0,-9.222920837E0,-3.348282211E1,6.011948090E0,3.524634967E1
7.610554917E0,-1.023541534E1,-3.001034317E1,2.879711609E0,3.183829712E1
7.620557917E0,-2.337898315E1,-3.928086502E1,-2.640733566E1,5.279119801E1
7.630559917E0,-2.775633041E1,-4.553785355E1,-3.596795425E1,6.432576247E1
7.640562917E0,-1.529414566E1,-4.030069427E1,6.376290436E0,4.357423471E1
7.650564917E0,-1.340357712E1,-3.644351532E1,5.206622772E0,3.917773104E1
7.660566917E0,-1.280841476E1,-3.221735367E1,6.983278198E0,3.536636171E1
7.670569917E0,-1.188288940E1,-2.728945129E1,8.290210419E0,3.089732677E1
7.680571917E0,-1.037282959E1,-2.363285522E1,6.458768921E0,2.660494570E1
7.690574917E0,-8.175848236E0,-2.076526840E1,4.557871857E0,2.277751220E1
7.700576917E0,-6.155050507E0,-1.788705368E1,2.986589355E0,1.915074547E1
7.710578917E0,-4.050127716E0,-1.482232681E1,1.746717682E0,1.546466713E1
7.720581917E0,-2.725232849E0,-1.194725555E1,6.343807983E-1,1.227054393E1
7.730583917E0,-2.019300842E0,-8.932225342E0,5.254074097E-2,9.157782809E0
7.740586917E0,-1.124910736E0,-5.901777191E0,-2.002835083E-1,6.011365208E0
7.750588917E0,-2.378553772E-1,-3.302282867E0,-2.294728088E-1,3.318780663E0
7.760591917E0,2.658471680E-1,-1.412612457E0,-2.245330811E-2,1.437585762E0
7.770593917E0,4.849914551E-1,-3.025209045E-1,1.501377869E-1,5.909965856E-1
7.780595917E0,5.789959717E-1,3.424877930E-1,2.823129272E-1,7.295442498E-1
7.790598917E0,7.027885437E-1,5.797444153E-1,2.113604736E-1,9.352478677E-1
7.800600917E0,-2.275268555E0,6.414610748E0,-2.048789520E0,7.107855974E0
7.810603917E0,-9.753267975E0,2.633668259E1,-2.980452118E0,2.824234729E1
7.820605917E0,-2.159708862E0,2.104129440E1,3.896098022E0,2.150767287E1
7.830608917E0,3.742816772E0,7.414531403E0,2.781515808E0,8.759040102E0
7.840610917E0,3.283122711E0,5.508544922E-2,9.231303406E-1,3.410879471E0
7.850612917E0,3.024310913E0,-7.024891663E-1,1.377435608E0,3.396656648E0
7.860615917E0,3.239413605E0,-1.281934204E0,1.709145813E0,3.880507082E0
7.870617917E0,3.562441864E0,-2.015408936E0,2.101929016E0,4.601192324E0
7.880620917E0,3.504512329E0,-2.346221008E0,2.233505402E0,4.772306158E0
7.890622917E0,3.229234772E0,-2.471510468E0,2.328857117E0,4.686138781E0
7.900624917E0,2.839145966E0,-2.411784668E0,2.215393066E0,4.334215216E0
7.910627917E0,2.319726105E0,-2.287692719E0,2.249671783E0,3.959253757E0
7.920629917E0,2.296524353E0,-1.399888916E0,1.989512787E0,3.345425864E0
7.930632917E0,2.747536469E0,9.954299927E-2,1.326840820E0,3.052764651E0
7.940634917E0,2.684218140E0,8.412506104E-1,8.508306885E-1,2.938816509E0
7.950637917E0,2.422113190E0,1.091380463E0,5.530998230E-1,2.713607015E0
7.960639917E0,2.115101624E0,1.146166534E0,3.468287659E-1,2.430564296E0
7.970641917E0,1.770967255E0,1.113833771E0,2.552192688E-1,2.107626049E0
7.980644917E0,1.420995026E0,9.901908875E-1,1.856140137E-1,1.741883296E0
7.990646917E0,1.034798126E0,7.554789734E-1,4.056564331E-2,1.281874102E0
8.000649917E0,6.119274902E-1,4.306544495E-1,-2.395019531E-2,7.486602167E-1
8.010651917E0,3.218307495E-1,1.948947144E-1,-4.685256958E-2,3.791492375E-1
8.020654917E0,1.658551025E-1,7.604187012E-2,-6.271957397E-2,1.929352897E-1
8.030656917E0,8.726852417E-2,1.975891113E-2,-1.225950623E-1,1.517753576E-1
8.040658917E0,2.963836670E-2,-7.484436035E-4,-1.288819885E-1,1.322480999E-1
8.050661917E0,2.724334717E-2,-1.826202393E-2,-1.148112488E-1,1.194040382E-1
8.060663917E0,2.544708252E-2,-1.916015625E-2,-7.229965210E-2,7.900572948E-2
8.070666917E0,5.403762817E-2,5.688171387E-3,1.945953369E-3,5.437101514E-2
8.080668917E0,1.143621826E-1,6.571334839E-2,9.190887451E-2,1.607612957E-1
8.090670917E0,2.074685669E-1,1.538800049E-1,2.023791504E-1,3.281456729E-1
8.100673917E0,3.070115662E-1,2.646496582E-1,4.102967834E-1,5.767486401E-1
8.110675917E0,4.471202087E-1,3.104544067E-1,6.584806824E-1,8.543390596E-1
8.120678917E0,5.483097839E-1,2.769241333E-2,9.458830261E-1,1.093665940E0
8.130680917E0,6.147715759E-1,-3.168910217E-1,1.217867432E0,1.400558850E0
8.140683917E0,7.089257812E-1,-7.213499451E-1,1.462309113E0,1.777995908E0
8.150685667E0,8.196954346E-1,-1.229992218E0,1.823358307E0,2.347214728E0
8.160687667E0,1.001567230E0,-2.270179138E0,2.401605835E0,3.453195741E0
8.170690667E0,1.422491913E0,-7.866291962E0,3.345991974E0,8.665892612E0
8.180692667E0,-4.113146667E0,-3.186034607E1,1.105496109E1,3.397369264E1
8.190695667E0,-1.697260529E1,-7.916722092E1,2.739183838E1,8.547415403E1
8.200697667E0,-2.143213165E1,-8.556746155E1,2.950918533E1,9.301569094E1
8.210700667E0,-1.250559448E1,-4.819063705E1,1.533201691E1,5.209412765E1
8.220702667E0,-8.582851868E0,-3.123285095E1,6.847061462E0,3.310647332E1
8.230704667E0,-9.496102753E0,-2.944377136E1,2.083966370E0,3.100733067E1
8.240707667E0,-1.993090347E1,-3.893508408E1,-1.935056030E1,4.782913201E1
8.250709667E0,-2.510459473E1,-4.360896469E1,-1.947105972E1,5.395465359E1
8.260712667E0,-1.499776199E1,-3.748939041E1,1.072714279E1,4.177868895E1
8.270714667E0,-1.280781601E1,-3.554687988E1,8.719517670E0,3.877693656E1
8.280717667E0,-1.183349213E1,-3.339660141E1,7.463180237E0,3.620861197E1
8.290719667E0,-9.676926727E0,-2.907179489E1,6.029761047E0,3.122771505E1
8.300721667E0,-7.902067566E0,-2.488679764E1,5.384752350E0,2.666066253E1
8.310724667E0,-7.221432953E0,-2.147314636E1,5.248834991E0,2.325500758E1
8.320726667E0,-6.512357483E0,-1.853505615E1,3.760929108E0,2.000259219E1
8.330729667E0,-4.872816925E0,-1.582838470E1,3.310964813E0,1.688918575E1
8.340731667E0,-4.133204956E0,-1.353156097E1,3.221750336E0,1.451089938E1
8.350734667E0,-3.891158295E0,-1.134176468E1,2.252665558E0,1.220046069E1
8.360736667E0,-2.775977325E0,-8.841513977E0,1.607207794E0,9.405399322E0
8.370738667E0,-1.622925110E0,-6.292315063E0,1.074615326E0,6.586494733E0
8.380741667E0,-7.180567932E-1,-3.909270630E0,5.782475281E-1,4.016512495E0
8.390743667E0,-8.607101440E-2,-1.924847260E0,3.495231628E-1,1.958216442E0
8.400746667E0,2.755769348E-1,-5.695655823E-1,2.808160400E-1,6.922465225E-1
8.410748667E0,4.637356567E-1,1.830693054E-1,1.073268127E-1,5.099844847E-1
8.420750667E0,7.081773376E-1,4.815486145E-1,-4.281097412E-2,8.574596137E-1
8.430753667E0,7.533833313E-1,4.626878357E-1,-2.543211365E-1,9.199704982E-1
8.440755667E0,-1.669029236E-1,1.950294342E0,-5.616320801E-1,2.036402514E0
8.450758667E0,-1.040456360E1,2.349873413E1,-3.501219177E0,2.593653765E1
8.460760667E0,-6.080056458E0,2.372296783E1,1.518292694E0,2.453673780E1
8.470763667E0,3.678001556E0,1.050934570E1,3.142265625E0,1.156926427E1
8.480765667E0,4.544399872E0,2.712509308E0,1.590442657E0,5.526190803E0
8.490767667E0,3.595373383E0,-4.748126221E-1,1.492546234E0,3.921715319E0
8.500770667E0,3.224744110E0,-8.267308044E-1,1.840273132E0,3.803822236E0
8.510772667E0,2.742297363E0,-1.420995026E0,1.938019867E0,3.646277924E0
8.520775667E0,2.339035950E0,-1.871857452E0,2.014959869E0,3.610402024E0
8.530777667E0,2.013013916E0,-2.042652283E0,2.030826874E0,3.514101758E0
8.540780667E0,1.574575653E0,-1.647024994E0,1.913919983E0,2.975746884E0
8.550782667E0,1.017134857E0,-8.095166016E-1,1.935774536E0,2.331759743E0
8.560784667E0,8.735833740E-1,-5.569917297E-1,2.169139252E0,2.403862058E0
8.570787667E0,5.764512634E-1,1.661544800E-2,2.384840698E0,2.453576428E0
8.580789667E0,-5.538482666E-3,1.745669861E0,2.454745331E0,3.012170078E0
8.590792667E0,-9.235794067E-2,3.034489746E0,2.160307617E0,3.726068573E0
8.600794667E0,3.887416077E-1,2.262994080E0,1.706750793E0,2.860989429E0
8.610796667E0,8.833131409E-1,6.936575317E-1,1.244961090E0,1.676702416E0
8.620799667E0,1.098266144E0,-2.653981018E-1,9.669891357E-1,1.487176070E0
8.630801667E0,1.220112762E0,-4.929249573E-1,7.795788574E-1,1.529507555E0
8.640804667E0,1.332678680E0,-4.029620361E-1,4.986131287E-1,1.478859669E0
8.650806667E0,1.347647552E0,-3.492237854E-1,2.817141724E-1,1.420378137E0
8.660809667E0,1.304237823E0,-3.263214111E-1,4.730163574E-2,1.345272987E0
8.670811667E0,1.157243500E0,-2.597099304E-1,-7.664062500E-2,1.188501389E0
8.680813667E0,1.005608826E0,-1.517843628E-1,-1.547781372E-1,1.028709811E0
8.690816667E0,8.729846191E-1,-1.901046753E-2,-2.270777893E-1,9.022349281E-1
8.700818667E0,7.387138367E-1,6.915618896E-2,-2.945874023E-1,7.982871968E-1
8.710821667E0,6.351292419E-1,4.101470947E-2,-3.070115662E-1,7.066310651E-1
8.720823667E0,5.541476440E-1,-2.013313293E-1,-2.727328491E-1,6.496130560E-1
8.730825667E0,4.962181091E-1,-4.918771362E-1,-1.612147522E-1,7.170535024E-1
8.740828667E0,5.096900940E-1,-6.533912659E-1,2.305206299E-2,8.289967044E-1
8.750830667E0,4.688250732E-1,-7.720944214E-1,2.459385681E-1,9.361690681E-1
8.760833667E0,4.796026611E-1,-9.848020935E-1,5.092410278E-1,1.207965356E0
8.770835667E0,5.144801331E-1,-1.263223114E0,7.644602966E-1,1.563592654E0
8.780838667E0,5.176235962E-1,-1.733245697E0,1.009650421E0,2.071586061E0
8.790840667E0,5.183720398E-1,-4.244573364E0,1.107247467E0,4.417138165E0
8.800842667E0,-5.830375671E-1,-1.476020599E1,4.706961823E0,1.550351906E1
8.810845667E0,-5.958209839E0,-4.351106827E1,1.732152969E1,4.720962526E1
8.820847667E0,-1.493055176E1,-7.604875580E1,3.061942657E1,8.332997011E1
8.830850667E0,-1.740790009E1,-6.723074295E1,2.642484924E1,7.430531906E1
8.840852667E0,-1.110256210E1,-3.741559387E1,1.252116211E1,4.098747431E1
8.850855667E0,-8.607700195E0,-2.620884842E1,6.942562866E0,2.844636035E1
8.860857667E0,-1.028780640E1,-2.516192551E1,5.622907104E0,2.775929646E1
8.870859667E0,-1.434062851E1,-3.072106522E1,6.114035797E0,3.445023814E1
8.880862667E0,-1.977373032E1,-3.646462143E1,3.650458832E0,4.164126411E1
8.890864667E0,-2.495655258E1,-3.842733994E1,-1.175759995E1,4.730466285E1
8.900867667E0,-1.720492218E1,-3.409819244E1,-1.951192474E0,3.824268855E1
8.910869667E0,-1.245679596E1,-3.135469757E1,7.728428650E0,3.461238846E1
8.920872667E0,-1.117905304E1,-3.048306015E1,7.962392120E0,3.343034357E1
8.930874667E0,-8.591234436E0,-2.855252472E1,7.174131317E0,3.066796598E1
8.940876667E0,-6.004613342E0,-2.564931198E1,5.708529053E0,2.695421842E1
8.950879667E0,-4.282145233E0,-2.223790604E1,4.315076752E0,2.305387430E1
8.960881667E0,-3.458707581E0,-1.895074173E1,3.679947510E0,1.961212084E1
8.970884667E0,-3.074456635E0,-1.578617249E1,3.536246338E0,1.646695368E1
8.980886667E0,-2.791095886E0,-1.281425262E1,3.368894348E0,1.354048506E1
8.990888667E0,-2.429597626E0,-9.884395294E0,2.985092468E0,1.060730842E1
9.000891667E0,-1.862127686E0,-7.128925323E0,2.258653107E0,7.706530324E0
9.010893667E0,-1.313368835E0,-4.799469452E0,1.523681488E0,5.203984050E0
9.020896667E0,-8.777746582E-1,-2.841840363E0,9.252259827E-1,3.114897770E0
9.030898667E0,-5.291496277E-1,-1.398092651E0,6.224057007E-1,1.619274914E0
9.040901667E0,-1.763333130E-1,-4.070036316E-1,5.213658142E-1,6.845200549E-1
9.050903667E0,1.017883301E-2,5.611830139E-1,2.441423035E-1,6.120747079E-1
9.060905667E0,-3.526666260E-1,2.183060303E0,-7.243437195E-1,2.326972251E0
9.070908667E0,-1.588496704E0,4.808600464E0,-1.296004944E0,5.227388355E0
9.080910667E0,-2.859503632E0,9.370513916E0,4.558021545E-1,9.807703486E0
9.090913667E0,-2.297871552E0,1.385578674E1,3.102598114E0,1.438364192E1
9.100915667E0,2.048041077E0,1.209439957E1,2.911445618E0,1.260735851E1
9.110918667E0,5.847440186E0,6.465355225E0,1.498533783E0,8.845280007E0
9.120920667E0,6.413263550E0,1.997745667E0,1.311273193E0,6.844002812E0
9.130922667E0,5.831722870E0,-2.661465454E-1,1.502725067E0,6.028101545E0
9.140925667E0,4.860692139E0,-9.372010803E-1,2.145189056E0,5.395044951E0
9.150928125E0,3.498375092E0,-1.311422882E0,2.649490356E0,4.580202769E0
9.160931125E0,2.532433777E0,-1.332978058E0,2.459086304E0,3.773215709E0
9.170933125E0,1.786385193E0,-1.161883850E0,2.054328003E0,2.959967852E0
9.180935125E0,1.225202179E0,-9.252259827E-1,1.583856354E0,2.205847784E0
9.190938125E0,9.063652039E-1,-5.809419250E-1,1.168619843E0,1.588919047E0
9.200940125E0,6.881190491E-1,-2.549198914E-1,7.976911926E-1,1.083883396E0
9.210943125E0,5.090913391E-1,-1.901046753E-2,5.683680725E-1,7.632677481E-1
9.220945125E0,4.064048767E-1,1.426533508E-1,4.082011414E-1,5.934164424E-1
9.230948125E0,3.450325012E-1,2.374063110E-1,2.751278687E-1,5.011033102E-1
9.240950125E0,2.562670898E-1,5.011578369E-1,2.535726929E-1,6.173581695E-1
9.250952125E0,1.387614441E-1,1.373094635E0,5.258564758E-1,1.476878007E0
9.260955125E0,-2.993774414E-2,2.850073242E0,8.355624390E-1,2.970181534E0
9.270957125E0,-1.384620667E-1,3.745810547E0,4.599934387E-1,3.776488099E0
9.280960125E0,-1.655557251E-1,2.800376587E0,-1.329235840E-1,2.808413503E0
9.290962125E0,-3.173400879E-2,1.240470428E0,-1.770817566E-1,1.253447996E0
9.300964125E0,2.013313293E-1,1.401086426E-1,2.514770508E-2,2.465707667E-1
9.310967125E0,4.083508301E-1,-3.014730835E-1,1.818717957E-1,5.391787928E-1
9.320969125E0,5.025050354E-1,-3.896397400E-1,3.671864319E-1,7.342726424E-1
9.330972125E0,5.863307190E-1,-4.354444885E-1,6.128256226E-1,9.533891432E-1
9.340974125E0,6.225553894E-1,-4.643344116E-1,7.924520874E-1,1.109577383E0
9.350977125E0,6.526428223E-1,-4.162843323E-1,9.285191345E-1,1.208876785E0
9.360979125E0,7.439529419E-1,-3.553610229E-1,1.092278595E0,1.368510126E0
9.370981125E0,8.243357849E-1,-4.556524658E-1,1.284927979E0,1.593169346E0
9.380984125E0,8.382568359E-1,-7.366181946E-1,1.467099152E0,1.843274480E0
9.390986125E0,7.487429810E-1,-1.059197388E0,1.662442932E0,2.108608940E0
9.400989125E0,5.927673340E-1,-1.319506073E0,1.941911774E0,2.421464583E0
9.410991125E0,4.586462402E-1,-1.678459625E0,2.529290314E0,3.069998791E0
9.420993125E0,4.345463562E-1,-3.609444122E0,3.310964813E0,4.917255881E0
9.430996125E0,-3.020718384E-1,-1.421009995E1,6.398294678E0,1.558705754E1
9.440998125E0,-9.330247650E0,-5.162928635E1,1.799797302E1,5.546678071E1
9.451001125E0,-2.329261276E1,-9.480729721E1,3.179687805E1,1.026742951E2
9.461003125E0,-2.214929031E1,-7.255112915E1,2.350217697E1,7.941416577E1
9.471006125E0,-1.255484207E1,-3.723836243E1,1.026729904E1,4.061695613E1
9.481008125E0,-1.099149307E1,-2.767115753E1,1.005010071E0,2.979120549E1
9.491010125E0,-1.988539810E1,-3.178071167E1,-5.222070648E1,6.428409506E1
9.501013125E0,-1.780277893E1,-3.637525726E1,-6.399941254E0,4.100070154E1
9.511015125E0,-1.353500381E1,-3.771107941E1,1.542632080E1,4.293359072E1
9.521018125E0,-1.178484329E1,-3.717773849E1,9.617051239E0,4.016907325E1
9.531020125E0,-1.126841721E1,-3.366678955E1,9.212143250E0,3.667824325E1
9.541023125E0,-1.140583145E1,-2.937072327E1,7.181615753E0,3.231575438E1
9.551025125E0,-1.040231827E1,-2.583357880E1,6.105204163E0,2.851062147E1
9.561027125E0,-8.827293549E0,-2.253339157E1,4.965923309E0,2.470496390E1
9.571030125E0,-7.175029449E0,-1.973076965E1,3.327131195E0,2.125686056E1
9.581032125E0,-5.232518921E0,-1.744502289E1,1.479373627E0,1.827283843E1
9.591035125E0,-3.557202759E0,-1.489687180E1,6.626719666E-1,1.533002332E1
9.601037125E0,-2.536175995E0,-1.194276489E1,7.408094788E-1,1.223154204E1
9.611039125E0,-1.840273132E0,-8.926088104E0,8.026309204E-1,9.149091236E0
9.621042125E0,-1.307381287E0,-6.006259918E0,6.182144165E-1,6.177911710E0
9.631044125E0,-7.129673767E-1,-3.418591003E0,2.918930054E-1,3.504324251E0
9.641047125E0,-6.391708374E-2,-1.502874756E0,-3.053649902E-2,1.504543254E0
9.651049125E0,5.066963196E-1,-2.106120300E-1,-8.816665649E-2,5.557624913E-1
9.661052125E0,8.343649292E-1,4.912783813E-1,-4.805007935E-2,9.694473133E-1
9.671054125E0,6.637197876E-1,1.000220032E0,-4.197271729E-1,1.271666217E0
9.681056125E0,-3.481609955E0,7.816146240E0,-3.071013794E0,9.090922706E0
9.691059125E0,-7.998916168E0,2.011966095E1,-7.435038757E-1,2.166416891E1
9.701061125E0,-8.521778870E-1,1.705044342E1,3.640130310E0,1.745549703E1
9.711064125E0,4.159999237E0,5.920188904E0,7.861651611E-1,7.278206233E0
9.721066125E0,4.223766632E0,9.273216248E-1,-2.249821472E-1,4.330213265E0
9.731068125E0,4.320166168E0,5.294490051E-1,-1.691482544E-2,4.352520888E0
9.741071125E0,3.737128601E0,-1.276844788E-1,7.454498291E-2,3.740052200E0
9.751073125E0,3.205733643E0,-6.171665955E-1,5.209167480E-1,3.305900339E0
9.761076125E0,3.013533325E0,-8.713380432E-1,1.156495056E0,3.343365655E0
9.771078125E0,2.837948456E0,-1.101259918E0,1.885928192E0,3.580984500E0
9.781081125E0,2.812501373E0,-1.113684082E0,2.230661316E0,3.758497854E0
9.791083125E0,2.765499115E0,-8.226892090E-1,2.446063385E0,3.782595534E0
9.801085125E0,2.702629852E0,-2.555186462E-1,2.674338684E0,3.810719787E0
9.811088125E0,2.578837280E0,3.385958862E-1,2.649490356E0,3.712795179E0
9.821090125E0,2.283950500E0,7.351213074E-1,2.333946533E0,3.347258527E0
9.831093125E0,1.870510254E0,9.247769165E-1,1.855242004E0,2.792121747E0
9.841095125E0,1.412313080E0,8.776249695E-1,1.444945221E0,2.202889129E0
9.851098125E0,1.064885559E0,9.321116638E-1,1.143621826E0,1.819528590E0
9.861100125E0,7.722441101E-1,1.121168518E0,9.984237671E-1,1.688262370E0
9.871102125E0,6.159690857E-1,1.300944672E0,8.259823608E-1,1.659554703E0
9.881105125E0,5.294490051E-1,1.467248840E0,6.870712280E-1,1.704465394E0
9.891107125E0,4.556524658E-1,1.529219971E0,5.132826233E-1,1.676183743E0
9.901110125E0,2.969824219E-1,1.209933929E0,1.779798889E-1,1.258497324E0
9.911112125E0,1.463955688E-1,7.719447327E-1,7.484436035E-3,7.857393650E-1
9.921114125E0,1.190025330E-1,5.046006775E-1,2.978805542E-2,5.192983486E-1
9.931117125E0,1.627116394E-1,3.730242920E-1,1.152603149E-1,4.229741602E-1
9.941119125E0,2.118095398E-1,2.978805542E-1,2.285746765E-1,4.310945238E-1
9.951122125E0,2.644999695E-1,2.201921082E-1,3.049159241E-1,4.598026958E-1
9.961124125E0,3.499722290E-1,8.487350464E-2,4.508624268E-1,5.770277296E-1
9.971127125E0,5.364843750E-1,-1.426533508E-1,7.114704895E-1,9.024166003E-1
9.981129125E0,7.608677673E-1,-5.249583435E-1,1.093775482E0,1.432077452E0
9.991131125E0,9.394464111E-1,-9.294172668E-1,1.569486237E0,2.051746344E0
1.000113412E1,1.007105713E0,-1.258133698E0,1.980381775E0,2.553247793E0
1.001113613E1,8.502319336E-1,-1.584305420E0,2.458936615E0,3.046192259E0
1.002113912E1,7.095245361E-1,-1.940265198E0,2.839295654E0,3.511360693E0
1.003114113E1,8.023315430E-1,-4.111949158E0,2.849175110E0,5.066523521E0
1.004114313E1,-7.060816956E-1,-1.623389145E1,5.957012329E0,1.730675529E1
1.005114612E1,-9.326655121E0,-5.375935684E1,2.060165863E1,5.832223660E1
1.006114813E1,-1.908965286E1,-9.212951569E1,3.412154388E1,1.000826771E2
1.007115112E1,-1.630199982E1,-7.007991806E1,2.432726120E1,7.595239134E1
1.008115313E1,-9.548493805E0,-3.700230331E1,1.045291306E1,3.961827326E1
1.009115613E1,-9.489366760E0,-2.960229172E1,6.093528442E0,3.167767108E1
1.010115812E1,-1.430126038E1,-3.283541840E1,-1.618135071E-1,3.581503781E1
1.011116013E1,-2.673305832E1,-4.368291092E1,-3.718701920E1,6.329081695E1
1.012116312E1,-1.718815704E1,-4.011103867E1,6.694079590E-1,4.364374265E1
1.013116512E1,-1.115734818E1,-3.543431396E1,1.173020691E1,3.895734563E1
1.014116813E1,-1.114806747E1,-3.307028000E1,8.858129425E0,3.600540632E1
1.015116912E1,-1.047536636E1,-2.905203598E1,9.054221649E0,3.218280635E1
1.016117213E1,-9.412726135E0,-2.525263687E1,7.654781799E0,2.801590203E1
1.017117413E1,-8.081244965E0,-2.209809677E1,6.522835693E0,2.441679313E1
1.018117612E1,-6.587052155E0,-1.905881699E1,5.182672577E0,2.082037118E1
1.019117913E1,-5.037025452E0,-1.596280518E1,4.191134491E0,1.725538707E1
1.020118112E1,-3.715723114E0,-1.285781204E1,3.415746918E0,1.381293799E1
1.021118413E1,-2.298769684E0,-9.538913727E0,2.762954407E0,1.019358299E1
1.022118613E1,-1.013542328E0,-6.374494171E0,2.189945984E0,6.815959756E0
1.023118812E1,-3.062631226E-1,-3.819158020E0,1.535057831E0,4.127489264E0
1.024119113E1,3.427871704E-2,-1.929487610E0,9.125024414E-1,2.134656453E0
1.025119312E1,2.983296204E-1,-6.761439514E-1,4.860392761E-1,8.845368185E-1
1.026119613E1,5.049000549E-1,7.963439941E-2,2.263293457E-1,5.590086545E-1
1.027119813E1,6.233038330E-1,7.896080017E-1,-9.056167603E-2,1.010044495E0
1.028120112E1,-2.109563141E0,5.143454132E0,-3.867657166E0,6.772307510E0
1.029120313E1,-6.418652344E0,1.461321167E1,-4.283791809E0,1.652561422E1
1.030120512E1,-1.905088348E0,1.843805786E1,4.209396515E0,1.900816557E1
1.031120813E1,3.916455688E0,1.301169205E1,2.636168060E0,1.384168115E1
1.032121013E1,5.881269836E0,5.893694000E0,2.251318359E-1,8.329204536E0
1.033121312E1,6.686894531E0,2.365081787E0,1.240919495E-1,7.093910709E0
1.034121513E1,5.541326752E0,-7.484436035E-2,1.438508606E-1,5.543698848E0
1.035121713E1,4.518503723E0,-1.341660004E0,7.970924377E-1,4.780406240E0
1.036122012E1,3.854185181E0,-1.760938110E0,1.675465851E0,4.556625095E0
1.037122213E1,3.072959747E0,-1.870210876E0,1.907183990E0,4.071623890E0
1.038122512E1,2.412982178E0,-1.653311920E0,1.737586670E0,3.402224380E0
1.039122713E1,1.806443481E0,-1.311123505E0,1.427581329E0,2.649579466E0
1.040123013E1,1.393901367E0,-9.205856323E-1,1.055155792E0,1.975801780E0
1.041123212E1,1.142873383E0,-5.310955811E-1,7.318281555E-1,1.457324444E0
1.042123413E1,9.098080444E-1,-2.466870117E-1,5.963598633E-1,1.115459657E0
1.043123712E1,7.059320068E-1,-7.110214233E-2,5.510041809E-1,8.983324108E-1
1.044123913E1,6.087840271E-1,8.936416626E-2,5.022056580E-1,7.942382947E-1
1.045124213E1,5.510041809E-1,3.571572876E-1,4.881349182E-1,8.181947408E-1
1.046124412E1,3.523672485E-1,1.521885223E0,7.240443420E-1,1.721783238E0
1.047124613E1,-4.819976807E-2,3.894301758E0,1.123264160E0,4.053348217E0
1.048124912E1,-1.246907043E-1,4.853507080E0,8.280780029E-1,4.925219988E0
1.049125113E1,5.239105225E-3,3.560196533E0,3.474275208E-1,3.577112339E0
1.050125413E1,1.887574768E-1,1.636846161E0,3.869453430E-1,1.692519258E0
1.051125612E1,4.944218445E-1,2.811154175E-1,6.042933655E-1,8.298489681E-1
1.052125913E1,6.379733276E-1,-3.849993896E-1,7.137158203E-1,1.031806556E0
1.053126112E1,6.346801758E-1,-5.893244934E-1,7.903564453E-1,1.172512514E0
1.054126313E1,6.292913818E-1,-5.179229736E-1,9.300160217E-1,1.236600845E0
1.055126613E1,6.888674927E-1,-2.064207458E-1,1.014290771E0,1.243355828E0
1.056126812E1,8.535250854E-1,2.263293457E-1,1.057401123E0,1.377616485E0
1.057127113E1,9.134005737E-1,5.355862427E-1,1.270108795E0,1.653580837E0
1.058127312E1,7.860154724E-1,2.622546387E-1,1.586251373E0,1.789634387E0
1.059127512E1,6.965016174E-1,-5.607339478E-1,1.458866272E0,1.711089671E0
1.060127813E1,5.542973328E-1,-1.116228790E0,1.499431915E0,1.949745705E0
1.061128012E1,4.065545654E-1,-1.269060974E0,1.687740326E0,2.150411537E0
1.062128313E1,3.760180664E-1,-1.587299194E0,1.980980530E0,2.566162929E0
1.063128513E1,5.245092773E-1,-3.320095825E0,2.126627655E0,3.977523281E0
1.064128812E1,2.143542480E-1,-1.092338470E1,3.965254211E0,1.162280182E1
1.065129013E1,-4.491859131E0,-3.610686539E1,1.250020569E1,3.847255735E1
1.066129212E1,-1.505973312E1,-7.407481064E1,2.524919403E1,7.969563935E1
1.067129513E1,-2.068293961E1,-7.775221344E1,2.670746155E1,8.477310415E1
1.068129713E1,-1.555969345E1,-5.019466965E1,1.622775421E1,5.499953571E1
1.069130012E1,-1.102412521E1,-3.443603989E1,8.277337189E0,3.709294395E1
1.070130213E1,-1.394260620E1,-3.204625946E1,-5.419779510E0,3.536570405E1
1.071130512E1,-2.473770767E1,-3.906561264E1,-4.219380753E1,6.259707394E1
1.072130713E1,-1.885494095E1,-3.815625366E1,5.799539795E0,4.295396552E1
1.073130913E1,-1.447370178E1,-3.539524521E1,1.382989059E1,4.066420171E1
1.074131212E1,-1.303489380E1,-3.265968384E1,8.738677826E0,3.623434689E1
1.075131413E1,-1.198288147E1,-2.903751617E1,8.341104584E0,3.250139719E1
1.076131712E1,-1.156090897E1,-2.586246872E1,6.628216553E0,2.909390244E1
1.077131913E1,-1.045201492E1,-2.402533905E1,6.037095795E0,2.688694959E1
1.078132113E1,-9.419162750E0,-2.290432022E1,5.741759949E0,2.542235864E1
1.079132412E1,-8.186027069E0,-2.135384445E1,5.387895813E0,2.349525768E1
1.080132613E1,-6.748865662E0,-1.898382294E1,5.022655334E0,2.076438749E1
1.081132912E1,-5.112318878E0,-1.589394836E1,4.136348419E0,1.720066211E1
1.082133113E1,-3.576662292E0,-1.261636414E1,3.216361542E0,1.350222718E1
1.083133413E1,-2.305505676E0,-9.427096252E0,2.369871826E0,9.990084717E0
1.084133612E1,-1.344055023E0,-6.602170715E0,1.655407562E0,6.937976381E0
1.085133813E1,-6.218069458E-1,-4.243974609E0,1.088536377E0,4.425254321E0
1.086134112E1,-1.883084106E-1,-2.339634705E0,6.252497864E-1,2.429050824E0
1.087134312E1,-4.007167053E-1,4.198768616E-1,-1.044228516E0,1.194689771E0
1.088134613E1,-2.060016174E0,5.266198883E0,-4.160298615E0,7.020299273E0
1.089134812E1,-6.602769470E-1,5.766308899E0,-1.018631744E0,5.892698414E0
1.090135013E1,1.376238098E0,2.900967407E0,9.771679688E-1,3.356262868E0
1.091135313E1,2.227667542E0,6.074368286E-1,3.430865479E-1,2.334350136E0
1.092135512E1,2.586172028E0,2.115101624E-1,4.984634399E-1,2.642250576E0
1.093135813E1,2.735112305E0,5.680686951E-1,5.613327026E-1,2.849321983E0
1.094136012E1,2.244881744E0,8.014034729E0,2.081271973E0,8.578807592E0
1.095136313E1,3.899241486E0,1.804991501E1,3.755989380E0,1.884438835E1
1.096136513E1,5.049599304E0,9.802515564E0,1.550475769E0,1.113515782E1
1.097136712E1,2.991978149E0,4.493655396E-1,2.908451843E-1,3.039482449E0
1.098137013E1,2.204016724E0,-5.439688110E-1,6.192622375E-1,2.353099553E0
1.099137212E1,2.105820923E0,-8.024812317E-1,7.957452393E-1,2.389909700E0
1.100137513E1,2.048190765E0,-1.036594391E0,9.913883972E-1,2.500492811E0
1.101137713E1,2.196232910E0,-1.061742096E0,1.345402222E0,2.785828855E0
1.102137912E1,2.103575592E0,-1.109193420E0,1.556313629E0,2.842085929E0
1.103138213E1,1.829196167E0,-1.105900269E0,1.400038605E0,2.555206864E0
1.104138412E1,1.550026703E0,-1.004111938E0,1.098116455E0,2.148646856E0
1.105138713E1,1.130449219E0,-7.195536804E-1,9.081614685E-1,1.618774286E0
1.106138913E1,8.240364075E-1,-1.757345581E-1,7.478448486E-1,1.126583576E0
1.107139212E1,5.917195129E-1,1.290316772E0,5.426216125E-1,1.519699829E0
1.108139413E1,1.026864624E-1,4.052223358E0,2.574645996E-1,4.061692587E0
1.109139612E1,1.721420288E-2,3.926035767E0,9.114546204E-1,4.030484176E0
1.110139913E1,3.031196594E-1,1.879491577E0,1.771266632E0,2.600337593E0
1.111140113E1,5.465135193E-1,4.379891968E-1,1.838626556E0,1.967500744E0
1.112140412E1,6.626719666E-1,-1.282832336E-1,1.544338531E0,1.685399722E0
1.113140613E1,7.117698669E-1,-1.755848694E-1,1.417402496E0,1.595768225E0
1.114140813E1,6.852749634E-1,4.805007935E-2,1.328038330E0,1.495191089E0
1.115141112E1,4.764591980E-1,4.308041382E-1,1.114582214E0,1.286428811E0
1.116141392E1,2.254312134E-1,7.999365234E-1,8.511300659E-1,1.189596597E0
1.117141692E1,9.460327148E-2,9.469308472E-1,6.804849243E-1,1.169909202E0
1.118141892E1,5.688171387E-3,7.987390137E-1,5.319937134E-1,9.597049955E-1
1.119142192E1,-6.586303711E-3,5.381309509E-1,4.390370178E-1,6.945371140E-1
1.120142392E1,2.065704346E-2,1.630110168E-1,4.126918030E-1,4.442002131E-1
1.121142592E1,5.179229736E-2,-3.338058472E-1,4.158352661E-1,5.357497123E-1
1.122142892E1,1.513352966E-1,-6.252497864E-1,5.643264771E-1,8.557476498E-1
1.123143092E1,1.860630798E-1,-6.893165588E-1,6.756948853E-1,9.830261268E-1
1.124143392E1,2.104623413E-1,-7.996371460E-1,8.253836060E-1,1.168320187E0
1.125143592E1,2.005828857E-1,-1.041683807E0,1.021625519E0,1.472771995E0
1.126143792E1,3.240760803E-1,-2.140548706E0,1.154848480E0,2.453701099E0
1.127144092E1,5.864804077E-1,-6.781198425E0,2.275418243E0,7.176777796E0
1.128144292E1,-1.625320129E0,-2.269460632E1,7.875422974E0,2.407714910E1
1.129144592E1,-1.064945435E1,-5.670044083E1,1.954276062E1,6.091198864E1
1.130144792E1,-2.124472137E1,-7.642522293E1,2.734154297E1,8.390299672E1
1.131145092E1,-1.870615036E1,-5.278877518E1,1.931553314E1,5.924242286E1
1.132145292E1,-9.948162689E0,-2.909963699E1,8.826844482E0,3.199481204E1
1.133145492E1,-8.287965088E0,-2.202669525E1,3.969445496E0,2.386675861E1
1.134145792E1,-1.385369110E1,-2.513932251E1,-5.694458313E0,2.926323886E1
1.135145992E1,-2.569032669E1,-3.724255371E1,-2.792173645E1,5.316600473E1
1.136146292E1,-1.890269165E1,-3.857852554E1,4.351900177E0,4.318047498E1
1.137146492E1,-1.417627029E1,-3.558055984E1,1.106499023E1,3.986698994E1
1.138146692E1,-1.259914993E1,-3.303824661E1,9.336085510E0,3.657084646E1
1.139146992E1,-1.097547638E1,-3.136577454E1,9.980196075E0,3.469693369E1
1.140147192E1,-1.054152878E1,-3.016961197E1,9.472152557E0,3.333243150E1
1.141147492E1,-9.573641510E0,-2.847887787E1,9.071735229E0,3.138466945E1
1.142147692E1,-8.304879913E0,-2.604254425E1,8.352031860E0,2.858218987E1
1.143147992E1,-7.124734039E0,-2.320100327E1,7.281907196E0,2.533919020E1
1.144148192E1,-6.164630585E0,-2.034613998E1,6.226452026E0,2.215257970E1
1.145148392E1,-5.348827057E0,-1.748214569E1,5.267845459E0,1.902591823E1
1.146148692E1,-4.655319214E0,-1.471200623E1,4.256099396E0,1.600717046E1
1.147148892E1,-3.777993622E0,-1.207808350E1,3.227887573E0,1.306034436E1
1.148149192E1,-2.794688416E0,-9.351054382E0,2.309696960E0,1.002931710E1
1.149149392E1,-2.012265472E0,-6.798412628E0,1.794318695E0,7.313494799E0
1.150149692E1,-1.419198761E0,-4.577032013E0,1.443298645E0,5.004643659E0
1.151149892E1,-9.364526367E-1,-2.765499115E0,1.015637970E0,3.091350737E0
1.152150092E1,-5.164260864E-1,-1.316961365E0,6.644682312E-1,1.562882327E0
1.153150392E1,-1.552272034E-1,-2.893482971E-1,4.023632813E-1,5.193400926E-1
1.154150592E1,1.169068909E-1,2.559677124E-1,2.067201233E-1,3.491703027E-1
1.155150892E1,2.418969727E-1,9.502239990E-1,-5.224136353E-2,9.819210527E-1
1.156151092E1,-2.767744446E-1,2.421065369E0,-5.480104065E-1,2.497694340E0
1.157151292E1,-2.371967468E0,7.645052032E0,-1.407073975E-1,8.005800948E0
1.158151592E1,-3.551364899E0,1.621682693E1,1.962269440E0,1.671670332E1
1.159151792E1,9.187893677E-1,1.299537598E1,2.151176605E0,1.320422400E1
1.160152092E1,3.385509796E0,6.359974365E0,7.297325134E-1,7.241785695E0
1.161152292E1,4.018992462E0,1.494791565E0,1.784289551E-1,4.291682552E0
1.162152592E1,3.951632538E0,3.757186890E-1,-2.558180237E-1,3.977688664E0
1.163152792E1,4.162394257E0,1.222956848E-1,2.342628479E-1,4.170774660E0
1.164152992E1,4.183949432E0,-5.634283447E-1,1.092577972E0,4.360803937E0
1.165153292E1,3.967649231E0,-1.124311981E0,1.719624023E0,4.468044833E0
1.166153492E1,3.408861237E0,-1.298250275E0,1.979783020E0,4.150340891E0
1.167153792E1,2.564766541E0,-1.153052216E0,1.834285583E0,3.357403822E0
1.168153992E1,1.796414337E0,-8.846603394E-1,1.506766663E0,2.506007614E0
1.169154192E1,1.228645020E0,-6.411167908E-1,1.120869141E0,1.782399213E0
1.170154492E1,8.375083923E-1,-3.785627747E-1,8.496331787E-1,1.251641570E0
1.171154692E1,6.027964783E-1,1.170565796E-1,7.426057434E-1,9.636021623E-1
1.172154992E1,4.155358887E-1,1.203497314E0,7.556286621E-1,1.480557508E0
1.173155192E1,4.924758911E-2,2.904859314E0,7.318281555E-1,2.996031610E0
1.174155392E1,-2.532733154E-1,3.497926025E0,6.459068298E-1,3.566066388E0
1.175155692E1,-1.916015625E-1,2.681074677E0,6.571334839E-1,2.767073724E0
1.176155892E1,7.813751221E-2,1.281036072E0,6.640191650E-1,1.445019149E0
1.177156192E1,3.263214111E-1,1.808239746E-1,6.756948853E-1,7.718461965E-1
1.178156392E1,4.549040222E-1,-2.847079468E-1,6.521937561E-1,8.446022614E-1
1.179156692E1,5.289999390E-1,-4.222718811E-1,6.327342224E-1,9.265565677E-1
1.180156892E1,5.456153870E-1,-3.113525391E-1,5.929170227E-1,8.638212488E-1
1.181157092E1,5.900729370E-1,-6.406677246E-2,4.737648010E-1,7.594364417E-1
1.182157392E1,5.542973328E-1,1.288819885E-1,2.511776733E-1,6.220500974E-1
1.183157592E1,5.062472534E-1,3.282673645E-1,3.742218018E-2,6.045214337E-1
1.184157892E1,4.568499756E-1,4.272116089E-1,-7.110214233E-2,6.295054993E-1
1.185158092E1,3.008743286E-1,3.083587646E-1,-4.161346436E-2,4.328304169E-1
1.186158292E1,1.667532349E-1,-8.726852417E-2,1.941462708E-1,2.703982454E-1
1.187158592E1,1.916015625E-1,-4.364923096E-1,4.156855774E-1,6.324801928E-1
1.188158792E1,2.412982178E-1,-5.957611084E-1,6.105802917E-1,8.865463444E-1
1.189159092E1,2.480342102E-1,-8.056246948E-1,8.722361755E-1,1.212991370E0
1.190159292E1,2.552192688E-1,-1.477427673E0,1.166224823E0,1.899476176E0
1.191159592E1,5.382806396E-1,-4.964127045E0,1.779499512E0,5.300841619E0
1.192159792E1,-5.804928589E-1,-1.671154816E1,5.916596375E0,1.773750057E1
1.193159992E1,-6.268514557E0,-4.757347046E1,1.784933212E1,5.119695326E1
1.194160292E1,-1.589140366E1,-7.763635437E1,3.008967819E1,8.476631975E1
1.195160492E1,-1.905687103E1,-6.876205856E1,2.748973480E1,7.646613990E1
1.196160792E1,-1.193902267E1,-4.129881866E1,1.355985214E1,4.507773592E1
1.197160992E1,-9.234895935E0,-3.067301514E1,5.081932068E0,3.243367377E1
1.198161292E1,-1.230635880E1,-3.164434525E1,4.345762939E0,3.423005563E1
1.199161492E1,-1.692156143E1,-3.775883011E1,1.808539124E0,4.141665494E1
1.200161692E1,-2.759451691E1,-4.413871307E1,-2.233340744E1,5.664330890E1
1.201161992E1,-2.044119232E1,-3.889466812E1,-2.891387329E0,4.403405128E1
1.202162192E1,-1.213346832E1,-3.275698151E1,1.158276352E1,3.680219153E1
1.203162492E1,-1.016012192E1,-3.090278732E1,9.241931305E0,3.381750487E1
1.204162692E1,-7.786507874E0,-2.755978912E1,8.579858093E0,2.989624803E1
1.205162892E1,-5.517526245E0,-2.338227631E1,7.213050385E0,2.508389996E1
1.206163192E1,-3.919898529E0,-1.908336594E1,5.093907166E0,2.013674130E1
1.207163392E1,-2.930306396E0,-1.561373108E1,3.830384674E0,1.634157705E1
1.208163692E1,-2.055675201E0,-1.249541565E1,2.916684723E0,1.299493219E1
1.209163892E1,-1.478325806E0,-9.391919403E0,2.211800537E0,9.761437337E0
1.210164192E1,-7.512876892E-1,-6.409371643E0,1.895807648E0,6.725961990E0
1.211164392E1,-1.110690308E-1,-3.941753082E0,1.333876190E0,4.162809073E0
1.212164592E1,1.908531189E-1,-2.099384308E0,7.535330200E-1,2.238671793E0
1.213164892E1,4.575984192E-1,-8.083190918E-1,4.489164734E-1,1.031650167E0
1.214165092E1,6.821315002E-1,4.505630493E-2,2.076182556E-1,7.144499943E-1
1.215165392E1,1.472937012E-1,1.924547882E0,-9.243278503E-1,2.140084568E0
1.216165612E1,-3.281775513E0,8.626860352E0,-5.536237335E0,1.076302438E1
1.217165813E1,-3.510050812E0,1.412133453E1,-7.948471069E-1,1.457272547E1
1.218166113E1,2.209405518E-1,1.430425415E1,3.482508087E0,1.472373472E1
1.219166312E1,2.655926971E0,9.180858307E0,1.390608215E0,9.657944840E0
1.220166613E1,3.410956879E0,4.662204895E0,8.774752808E-1,5.843008145E0
1.221166812E1,3.277584229E0,2.251767426E0,8.988807678E-1,4.076886257E0
1.222167113E1,2.853965149E0,5.517526245E-1,1.052611084E0,3.091526827E0
1.223167313E1,2.314037933E0,-5.643264771E-1,1.409169617E0,2.767488923E0
1.224167512E1,2.077529755E0,-1.075513458E0,1.888023834E0,3.006242352E0
1.225167813E1,1.838626556E0,-1.272054749E0,2.085463257E0,3.057421772E0
1.226168013E1,1.608854370E0,-1.308878174E0,2.003433838E0,2.883629935E0
1.227168312E1,1.457519073E0,-1.245260468E0,1.801204376E0,2.630470050E0
1.228168513E1,1.363963623E0,-1.108295288E0,1.641486511E0,2.404827058E0
1.229168712E1,1.289119263E0,-9.536668396E-1,1.467548218E0,2.173708050E0
1.230169013E1,1.203647003E0,-8.271798706E-1,1.197060699E0,1.888371511E0
1.231169213E1,1.078956299E0,-5.828878784E-1,8.725355530E-1,1.505065867E0
1.232169512E1,1.151405640E0,-2.233355713E-1,6.646179199E-1,1.348084086E0
1.233169713E1,1.258732452E0,1.167572021E-1,5.441184998E-1,1.376264718E0
1.234170012E1,1.234931946E0,3.354524231E-1,3.787124634E-1,1.334544255E0
1.235170213E1,1.136287079E0,4.528083801E-1,2.627037048E-1,1.251078331E0
1.236170413E1,1.068627777E0,5.200186157E-1,6.167175293E-2,1.190037013E0
1.237170712E1,9.737251282E-1,6.503974915E-1,-9.550140381E-2,1.174852348E0
1.238170913E1,7.222480774E-1,1.441951447E0,2.200424194E-2,1.612870251E0
1.239171212E1,2.402503967E-1,3.715124359E0,3.390449524E-1,3.738291152E0
1.240171413E1,1.019380188E-1,5.201084290E0,3.920347595E-1,5.216834327E0
1.241171613E1,2.073188782E-1,3.334915009E0,3.625460815E-1,3.360963983E0
1.242171912E1,3.122506714E-1,1.167871399E0,3.763174438E-1,1.266111727E0
1.243172113E1,4.993615723E-1,1.652563477E-1,4.195774841E-1,6.728424076E-1
1.244172412E1,6.062393188E-1,-3.126997375E-1,5.002597046E-1,8.459119396E-1
1.245172613E1,6.896159363E-1,-5.454656982E-1,7.168592834E-1,1.134455905E0
1.246172813E1,7.705975342E-1,-6.966513062E-1,1.020877075E0,1.456479868E0
1.247173112E1,8.211923218E-1,-8.583151245E-1,1.247805176E0,1.722811493E0
1.248173313E1,8.852590942E-1,-1.059347076E0,1.496288452E0,2.035873037E0
1.249173612E1,9.273216248E-1,-1.366807709E0,1.910327454E0,2.525359319E0
1.250173812E1,9.816586304E-1,-1.951342163E0,2.543061676E0,3.352395053E0
1.251174113E1,1.332379303E0,-4.748724976E0,3.168161774E0,5.861985374E0
1.252174312E1,-4.555027771E-1,-1.673759399E1,6.772815857E0,1.806171559E1
1.253174513E1,-7.481442261E0,-5.076872589E1,1.940280167E1,5.486259399E1
1.254174813E1,-1.278147079E1,-8.468953720E1,3.204895386E1,9.144845078E1
1.255175012E1,-9.649533691E0,-6.821883820E1,2.371683060E1,7.286570825E1
1.256175313E1,-4.498295746E0,-3.681115082E1,1.096424973E1,3.867182775E1
1.257175512E1,-4.599635010E0,-2.781051773E1,6.152954865E0,2.885204312E1
1.258175813E1,-6.733447723E0,-2.999941589E1,6.053561554E0,3.133607952E1
1.259176013E1,-1.343800552E1,-3.808410370E1,-4.274960175E0,4.061101121E1
1.260176212E1,-1.994018417E1,-4.325135834E1,-2.524440399E1,5.390334754E1
1.261176513E1,-1.074241104E1,-3.769566147E1,4.031566315E0,3.940324626E1
1.262176712E1,-7.691754913E0,-3.466760834E1,8.574469299E0,3.653118784E1
1.263177013E1,-7.195836182E0,-3.153417435E1,7.980504456E0,3.331475141E1
1.264177213E1,-6.274202728E0,-2.694292191E1,7.918233948E0,2.877473005E1
1.265177412E1,-5.803282013E0,-2.328752335E1,6.749165039E0,2.493066494E1
1.266177713E1,-5.494474182E0,-2.054986633E1,5.939648438E0,2.208541773E1
1.267177912E1,-5.023703156E0,-1.793001434E1,5.064418488E0,1.929692572E1
1.268178213E1,-4.057612152E0,-1.520163803E1,4.278253326E0,1.630513621E1
1.269178413E1,-2.962489471E0,-1.247371078E1,3.587140503E0,1.331305305E1
1.270178712E1,-2.016905823E0,-9.855505371E0,2.966980133E0,1.048817745E1
1.271178913E1,-1.287023621E0,-7.304809570E0,2.302960968E0,7.766614570E0
1.272179112E1,-6.730004883E-1,-5.040019226E0,1.713786163E0,5.365797841E0
1.273179413E1,-1.380130005E-1,-3.150049438E0,1.195863190E0,3.372231875E0
1.274179613E1,2.580633545E-1,-1.693578186E0,6.700067139E-1,1.839487093E0
1.275179912E1,5.613327026E-1,-6.634204102E-1,3.559597778E-1,9.391104339E-1
1.276180113E1,1.129850464E0,3.656895447E-1,2.571652222E-1,1.215082246E0
1.277180313E1,2.447859650E0,3.824995880E0,-3.478765869E-1,4.554517369E0
1.278180613E1,3.583547974E-1,8.124505005E0,-2.833906860E0,8.612028090E0
1.279180813E1,-7.259902954E-1,8.634793854E0,-4.505630493E-1,8.676965706E0
1.280181112E1,9.464817810E-1,6.705455933E0,1.412013702E0,6.917568194E0
1.281181313E1,2.466271362E0,4.184548187E0,1.512604523E0,5.087328415E0
1.282181613E1,3.441942444E0,3.129093018E0,1.354084167E0,4.844763651E0
1.283181812E1,4.147724762E0,3.432512054E0,1.401834869E0,5.563353369E0
1.284182013E1,4.061204681E0,3.757486267E0,1.683249664E0,5.783201185E0
1.285182312E1,3.177741852E0,2.177970886E0,1.728755035E0,4.222581489E0
1.286182513E1,2.403252411E0,1.056802368E0,1.620979156E0,3.085454071E0
1.287182813E1,1.613494720E0,3.607498169E-1,1.317560120E0,2.114112181E0
1.288183012E1,9.774673462E-1,-4.430786133E-2,1.115031281E0,1.483475769E0
1.289183213E1,6.330335999E-1,-1.350192261E-1,1.072819061E0,1.252957489E0
1.290183512E1,4.486170959E-1,-7.514373779E-2,1.044228516E0,1.138998276E0
1.291183713E1,3.655398560E-1,1.466949463E-1,1.049018555E0,1.120526091E0
1.292184013E1,3.614982605E-1,6.601272583E-1,1.051413574E0,1.293027259E0
1.293184212E1,3.335064697E-1,1.525627441E0,1.093625793E0,1.906510695E0
1.294184413E1,1.796264648E-1,2.448308716E0,1.084345093E0,2.683707420E0
1.295184712E1,-5.763015747E-2,2.859503632E0,1.031504974E0,3.040408651E0
1.296184913E1,-1.240919495E-1,2.615660706E0,9.383985901E-1,2.781667064E0
1.297185213E1,5.628295898E-2,2.117496643E0,8.912466431E-1,2.298103649E0
1.298185412E1,3.104544067E-1,1.481469269E0,1.043929138E0,1.838728142E0
1.299185713E1,3.734733582E-1,9.186396790E-1,1.300345917E0,1.635322816E0
1.300185912E1,5.734574890E-1,5.310955811E-1,1.428030396E0,1.627939439E0
1.301186112E1,8.768765259E-1,3.047662354E-1,1.464404755E0,1.733861640E0
1.302186413E1,9.451345825E-1,1.422042847E-1,1.588047638E0,1.853482327E0
1.303186612E1,9.623487854E-1,4.909790039E-2,1.691931610E0,1.947089716E0
1.304186913E1,9.467811584E-1,-2.799179077E-2,1.770368500E0,2.007830353E0
1.305187113E1,8.523275757E-1,-2.721340942E-1,1.752854919E0,1.967998890E0
1.306187312E1,6.978488159E-1,-7.385641479E-1,1.597178650E0,1.893000161E0
1.307187613E1,5.438191223E-1,-1.105151825E0,1.415905609E0,1.876669520E0
1.308187812E1,3.632945251E-1,-1.117575989E0,1.441203003E0,1.859576591E0
1.309188113E1,2.538720703E-1,-1.189276886E0,1.532662811E0,1.956498360E0
1.310188313E1,1.013392639E-1,-1.439257050E0,1.866468658E0,2.359117580E0
1.311188612E1,5.837860107E-3,-3.899241486E0,2.488425293E0,4.625621978E0
1.312188813E1,-6.698570251E-1,-1.554891586E1,5.665418701E0,1.656244131E1
1.313189012E1,-7.689659271E0,-5.172957779E1,1.638702301E1,5.480524246E1
1.314189313E1,-2.130684219E1,-9.465700974E1,2.827619934E1,1.010617359E2
1.315189513E1,-2.173225754E1,-7.733577942E1,2.236903336E1,8.338757371E1
1.316189787E1,-1.159518768E1,-4.200430161E1,8.991502075E0,4.449333479E1
1.317189988E1,-8.972641296E0,-3.304797638E1,-1.080213684E1,3.590770384E1
1.318190288E1,-1.169293442E1,-4.036700638E1,-7.282041916E1,8.407754377E1
1.319190487E1,-9.143286438E0,-4.209800674E1,2.813249817E0,4.317124313E1
1.320190688E1,-6.187682648E0,-3.846880371E1,1.285826111E1,4.103012496E1
1.321190987E1,-5.493725739E0,-3.614443726E1,8.148604889E0,3.745665667E1
1.322191187E1,-6.169270935E0,-3.334615631E1,9.291627960E0,3.516191682E1
1.323191488E1,-7.350614319E0,-2.954615845E1,6.661597137E0,3.116703204E1
1.324191687E1,-9.601932678E0,-2.640823380E1,5.276677094E0,2.859082448E1
1.325191888E1,-9.627529449E0,-2.368479721E1,3.892655182E0,2.586139413E1
1.326192188E1,-7.981851654E0,-2.086750580E1,2.471660156E0,2.247825300E1
1.327192387E1,-5.340594177E0,-1.755055344E1,9.852511597E-1,1.837157021E1
1.328192688E1,-2.928360443E0,-1.387599472E1,4.719685364E-1,1.418947774E1
1.329192887E1,-1.477277985E0,-1.027717850E1,6.872209167E-1,1.040552837E1
1.330193188E1,-8.635542297E-1,-7.165149994E0,8.737330627E-1,7.269698055E0
1.331193388E1,-4.596940613E-1,-4.451143799E0,8.581654358E-1,4.556363425E0
1.332193587E1,-1.451980591E-2,-2.149679718E0,6.559359741E-1,2.247573295E0
1.333193888E1,4.254153442E-1,-6.972500610E-1,4.653822327E-1,9.400619582E-1
1.334194087E1,7.982899475E-1,2.004331970E-1,3.912863159E-1,9.113425743E-1
1.335194388E1,6.682104492E-1,1.391955414E0,-2.921923828E-1,1.571439298E0
1.336194588E1,-2.719694366E0,8.033793640E0,-4.731211395E0,9.711999741E0
1.337194787E1,-3.818858643E0,1.773796371E1,-8.854087830E-1,1.816598433E1
1.338195088E1,2.087708588E0,1.885254593E1,5.177134094E0,1.966163097E1
1.339195287E1,6.468648376E0,1.147468826E1,3.060385895E0,1.352323350E1
1.340195588E1,6.350843353E0,3.835174713E0,1.112187195E0,7.501915538E0
1.341195788E1,5.053790588E0,7.885601807E-1,8.536747742E-1,5.185690609E0
1.342195987E1,3.589834900E0,-5.107379150E-1,9.560618591E-1,3.749909613E0
1.343196288E1,2.604134674E0,-1.372944946E0,1.403331757E0,3.261262830E0
1.344196487E1,2.313588867E0,-1.620230713E0,1.798659668E0,3.348584419E0
1.345196788E1,2.032024384E0,-1.760489044E0,1.754351807E0,3.210326312E0
1.346196988E1,1.523681488E0,-1.587149506E0,1.529968414E0,2.679823162E0
1.347197287E1,1.024918671E0,-1.325044556E0,1.163231049E0,2.039438116E0
1.348197488E1,6.259982300E-1,-1.130149841E0,8.544232178E-1,1.548919457E0
1.349197688E1,2.903961182E-1,-9.313632202E-1,6.382727051E-1,1.165829919E0
1.350197987E1,5.912704468E-2,-7.316784668E-1,4.486170959E-1,8.602945338E-1
1.351198188E1,-5.448669434E-2,-5.441184998E-1,3.008743286E-1,6.241467001E-1
1.352198487E1,-2.769241333E-2,-2.911445618E-1,1.793270874E-1,3.430600966E-1
1.353198688E1,1.670526123E-1,-2.050735474E-2,1.637594604E-1,2.348282090E-1
1.354198888E1,2.869532776E-1,9.220825195E-2,1.755848694E-1,3.488188521E-1
1.355199187E1,3.439846802E-1,1.567240906E-1,1.899549866E-1,4.230494034E-1
1.356199388E1,3.878434753E-1,2.468367004E-1,2.230361938E-1,5.109755981E-1
1.357199687E1,4.537065125E-1,2.929408264E-1,2.610571289E-1,5.998456066E-1
1.358199888E1,4.819976807E-1,3.336561584E-1,3.421884155E-1,6.787791305E-1
1.359200188E1,5.096900940E-1,3.844006348E-1,5.312452698E-1,8.305235557E-1
1.360200387E1,5.307962036E-1,4.469705200E-1,7.565267944E-1,1.026576858E0
1.361200588E1,4.707710266E-1,6.002517700E-1,8.274792480E-1,1.125455220E0
1.362200887E1,4.035607910E-1,8.616082764E-1,8.598120117E-1,1.282383262E0
1.363201088E1,4.287084961E-1,1.279389496E0,9.644444275E-1,1.658548013E0
1.364201388E1,4.703219604E-1,1.907333679E0,1.116228790E0,2.259444893E0
1.365201587E1,4.586462402E-1,2.466720428E0,1.323098602E0,2.836486552E0
1.366201788E1,3.707789612E-1,2.101180573E0,1.442999268E0,2.575787981E0
1.367202087E1,3.239263916E-1,7.664062500E-1,1.328188019E0,1.567287549E0
1.368202288E1,1.007405090E-1,-2.959346008E-1,1.141675873E0,1.183701709E0
1.369202588E1,-1.329235840E-1,-7.649093628E-1,1.087039490E0,1.335818051E0
1.370202787E1,-1.933978271E-1,-1.018781433E0,1.246907043E0,1.621756919E0
1.371202988E1,-4.299060059E-1,-1.723964996E0,2.158810730E0,2.795950330E0
1.372203287E1,-7.259902954E-1,-6.657256165E0,3.657045135E0,7.630209740E0
1.373203487E1,-3.389252014E0,-2.893902100E1,8.665929108E0,3.039822845E1
1.374203788E1,-1.817191132E1,-8.348274673E1,2.261197815E1,8.837923353E1
1.375203987E1,-2.675640976E1,-1.009135492E2,2.524170959E1,1.074085368E2
1.376204288E1,-1.531959274E1,-5.584556854E1,1.052162018E1,5.885679178E1
1.377204488E1,-7.328460388E0,-3.309827179E1,-2.966830444E-1,3.390117915E1
1.378204687E1,-6.225104828E0,-3.194072891E1,-6.662405457E1,7.414665697E1
1.379204988E1,-5.903723145E0,-3.579281845E1,-1.828462692E1,4.062397545E1
1.380205187E1,-7.303162994E0,-3.887535828E1,1.118683685E1,4.110687278E1
1.381205488E1,-5.906417542E0,-3.754178146E1,5.129682770E0,3.834820425E1
1.382205688E1,-6.691684570E0,-3.454576172E1,7.990084534E0,3.608364929E1
1.383205987E1,-1.051772827E1,-3.038216995E1,6.211782532E0,3.274576463E1
1.384206188E1,-1.369861359E1,-2.764915329E1,3.121758270E0,3.101407852E1
1.385206387E1,-1.218780533E1,-2.431094513E1,2.351460114E0,2.729641032E1
1.386206688E1,-9.161099396E0,-2.071063202E1,1.664089508E0,2.270738238E1
1.387206888E1,-6.053262177E0,-1.748214569E1,6.090834045E-1,1.851049388E1
1.388207187E1,-3.421884155E0,-1.424243271E1,4.400848389E-2,1.464780248E1
1.389207388E1,-1.800605621E0,-1.097727264E1,2.314187622E-1,1.112637632E1
1.390207587E1,-8.921447754E-1,-7.786657562E0,7.601193237E-1,7.874372336E0
1.391207888E1,-3.267704773E-1,-4.844974823E0,9.903405762E-1,4.955939309E0
1.392208088E1,1.362167358E-1,-2.399959259E0,9.201365662E-1,2.573909622E0
1.393208387E1,4.902305603E-1,-8.193960571E-1,7.940986633E-1,1.241905225E0
1.394208588E1,6.698570251E-1,1.288819885E-1,7.649093628E-1,1.024892840E0
1.395208887E1,9.270222473E-1,7.420069885E-1,6.786886597E-1,1.367685240E0
1.396209088E1,-5.301974487E-1,3.753893738E0,-1.373543701E0,4.032300811E0
1.397209288E1,-7.201374664E0,1.875449982E1,-3.547772369E0,2.040043503E1
1.398209587E1,-3.455264740E0,2.511133072E1,4.810845795E0,2.580042678E1
1.399209788E1,5.251230011E0,1.289164169E1,3.972439270E0,1.447584595E1
1.400210087E1,7.388485565E0,3.272794189E0,1.786684570E0,8.276058392E0
1.401210287E1,5.857619019E0,6.906637573E-1,1.411115570E0,6.064648724E0
1.402210488E1,4.399950256E0,-5.239105225E-1,1.229393463E0,4.598418509E0
1.403210787E1,3.445085907E0,-1.579216003E0,2.057022400E0,4.312062296E0
1.404210988E1,3.093616791E0,-2.242037659E0,2.654729462E0,4.652395751E0
1.405211288E1,2.892435150E0,-2.408641205E0,2.492317200E0,4.514352509E0
1.406211487E1,2.385888519E0,-2.306403809E0,2.100282440E0,3.927231707E0
1.407211788E1,1.715283051E0,-2.105371857E0,1.868564301E0,3.296410039E0
1.408211987E1,1.049916687E0,-1.801354065E0,1.571731567E0,2.611042251E0
1.409212188E1,5.322930908E-1,-1.443598022E0,1.198856964E0,1.950530493E0
1.410212488E1,2.188449097E-1,-1.003662872E0,8.015830994E-1,1.302984160E0
1.411212687E1,1.257385254E-1,-5.774990845E-1,4.728666687E-1,7.569136382E-1
1.412212988E1,1.565744019E-1,-2.357597351E-1,2.561174011E-1,3.816992523E-1
1.413213187E1,1.853146362E-1,-1.646575928E-3,9.849517822E-2,2.098702593E-1
1.414213388E1,1.396595764E-1,1.044827271E-1,5.987548828E-4,1.744184510E-1
1.415213688E1,6.152206421E-2,2.100132751E-1,-2.275268555E-2,2.200186920E-1
1.416213887E1,4.131408691E-2,2.547702026E-1,-8.173004150E-2,2.707295876E-1
1.417214188E1,2.544708252E-2,2.529739380E-1,-1.719923401E-1,3.069604736E-1
1.418214387E1,6.092330933E-2,2.547702026E-1,-1.754351807E-1,3.152729110E-1
1.419214588E1,1.050814819E-1,3.764671326E-1,-6.212081909E-2,3.957633332E-1
1.420214888E1,1.869612122E-1,9.997709656E-1,2.799179077E-2,1.017487110E0
1.421215087E1,4.281097412E-1,2.731819153E0,1.796264648E-2,2.765219067E0
1.422215388E1,6.735992432E-1,4.959935760E0,2.308200073E-1,5.010786023E0
1.423215587E1,5.578898621E-1,5.120851135E0,4.721182251E-1,5.172741349E0
1.424215888E1,3.198847961E-1,2.821183319E0,4.296066284E-1,2.871578566E0
1.425216088E1,2.622546387E-1,7.274871826E-1,7.125183105E-1,1.051521488E0
1.426216287E1,3.351530457E-1,-3.469784546E-1,1.306183777E0,1.392421513E0
1.427216588E1,3.995191956E-1,-8.842112732E-1,1.605261841E0,1.875716061E0
1.428216788E1,3.766168213E-1,-1.045575714E0,1.655557251E0,1.993975580E0
1.429217088E1,2.401007080E-1,-1.350341949E0,1.855990448E0,2.307763479E0
1.430217288E1,1.207987976E-1,-1.893562317E0,2.253563690E0,2.945966718E0
1.431217487E1,2.444416809E-1,-4.129313049E0,2.737806702E0,4.960500331E0
1.432217788E1,4.194277954E-1,-1.136346954E1,4.579876099E0,1.225885903E1
1.433217988E1,-2.603685608E0,-3.129886368E1,9.920919342E0,3.293664656E1
1.434218287E1,-1.053314621E1,-6.065282181E1,1.842323868E1,6.425828885E1
1.435218488E1,-1.540027496E1,-7.011883713E1,2.105192230E1,7.481312199E1
1.436218787E1,-1.379366592E1,-5.233147614E1,1.494731689E1,5.614508791E1
1.437218988E1,-9.307794342E0,-3.742382675E1,8.289312286E0,3.944477839E1
1.438219188E1,-8.537346497E0,-3.457016098E1,4.292324066E0,3.586650751E1
1.439219487E1,-1.700897964E1,-3.957515305E1,-3.364628220E1,5.465867207E1
1.440219688E1,-1.600801117E1,-3.935645782E1,-1.622505981E1,4.548010290E1
1.441219987E1,-8.923094330E0,-3.434173599E1,1.162871796E1,3.733903487E1
1.442220188E1,-7.098837891E0,-3.246254379E1,7.300169220E0,3.402209164E1
1.443220488E1,-6.325845337E0,-3.198668335E1,8.119415588E0,3.360192168E1
1.444220687E1,-7.344327393E0,-3.047093536E1,7.545509033E0,3.223897879E1
1.445220888E1,-8.483159180E0,-2.759002625E1,6.585555267E0,2.960647017E1
1.446221187E1,-8.947643280E0,-2.470447678E1,5.917943573E0,2.693313107E1
1.447221388E1,-8.497678986E0,-2.189721451E1,5.301824799E0,2.407920052E1
1.448221688E1,-7.603588257E0,-1.942929657E1,4.664450226E0,2.137917715E1
1.449221887E1,-6.800957336E0,-1.713816101E1,3.987258453E0,1.886445900E1
1.450222088E1,-5.898484039E0,-1.480975296E1,3.237916718E0,1.626668379E1
1.451222387E1,-4.814288635E0,-1.240979370E1,2.526595917E0,1.354858080E1
1.452222588E1,-3.663930817E0,-9.957593079E0,1.906435547E0,1.078019227E1
1.453222888E1,-2.620151367E0,-7.616162109E0,1.370400238E0,8.170013175E0
1.454223087E1,-1.843715973E0,-5.400619354E0,8.891510010E-1,5.775514479E0
1.455223288E1,-1.163530426E0,-3.502416687E0,4.812492371E-1,3.721871375E0
1.456223588E1,-5.846841431E-1,-1.987267456E0,2.383044434E-1,2.085156228E0
1.457223787E1,-4.505630493E-2,-8.731343079E-1,1.556762695E-1,8.880476851E-1
1.458224088E1,3.739224243E-1,-1.282832336E-1,1.014889526E-1,4.081354860E-1
1.459224287E1,5.797444153E-1,3.236270142E-1,8.981323242E-2,6.700033194E-1
1.460224588E1,6.791377258E-1,6.676116943E-1,-1.615141296E-1,9.659297278E-1
1.461224788E1,-1.046623535E0,3.603456573E0,-1.493594055E0,4.038705647E0
1.462224987E1,-5.856571198E0,1.403286850E1,-1.608255615E0,1.529075900E1
1.463225288E1,-3.169059906E0,1.758587997E1,2.517315216E0,1.804558093E1
1.464225487E1,2.380499725E0,9.688303070E0,9.924362183E-1,1.002571319E1
1.465225788E1,4.110003204E0,3.058290253E0,1.758842468E-1,5.126031689E0
1.466225988E1,4.541705475E0,1.448537750E0,8.434959412E-1,4.841160567E0
1.467226187E1,4.214635620E0,9.014254761E-1,1.056952057E0,4.437664808E0
1.468226488E1,3.656596069E0,3.260220337E-1,1.430874481E0,3.940099867E0
1.469226687E1,3.102448425E0,-4.330494690E-1,1.612895966E0,3.523372173E0
1.470226988E1,2.625689850E0,-1.044677582E0,1.761536865E0,3.329956541E0
1.471227188E1,2.122586060E0,-1.425485687E0,1.868564301E0,3.166845997E0
1.472227487E1,1.730700989E0,-1.491199036E0,1.564696198E0,2.768984411E0
1.473227688E1,1.313219147E0,-1.391955414E0,1.248553619E0,2.284944319E0
1.474227887E1,8.726852417E-1,-1.322050781E0,1.069825287E0,1.911523985E0
1.475228188E1,5.653742981E-1,-1.183139648E0,9.018745422E-1,1.591491506E0
1.476228388E1,3.802093506E-1,-1.009949799E0,8.029302979E-1,1.345085428E0
1.477228687E1,2.808160400E-1,-7.785310364E-1,6.647676086E-1,1.061548019E0
1.478228888E1,2.155517578E-1,-5.682183838E-1,5.309458923E-1,8.069933287E-1
1.479229088E1,2.332150269E-1,-3.179388428E-1,4.044589233E-1,5.648551825E-1
1.480229388E1,4.011657715E-1,2.335144043E-2,2.824626160E-1,4.911867215E-1
1.481229588E1,4.787045288E-1,2.299218750E-1,1.642085266E-1,5.558655725E-1
1.482229887E1,4.596940613E-1,2.929408264E-1,3.367996216E-2,5.461385333E-1
1.483230088E1,4.424798584E-1,3.107537842E-1,-4.745132446E-2,5.427780096E-1
1.484230387E1,4.812492371E-1,3.495231628E-1,-1.185534668E-1,6.064834656E-1
1.485230587E1,5.514532471E-1,4.219725037E-1,-1.191522217E-1,7.045273093E-1
1.486230788E1,5.745053101E-1,6.087840271E-1,-4.924758911E-2,8.385103863E-1
1.487231087E1,6.264472961E-1,8.360115051E-1,-1.020877075E-1,1.049653920E0
1.488231288E1,7.894583130E-1,8.446934509E-1,-1.664538574E-1,1.168100313E0
1.489231588E1,9.804611206E-1,5.487588501E-1,-7.499404907E-2,1.126083652E0
1.490231787E1,8.351133728E-1,4.640350342E-3,5.628295898E-2,8.370206985E-1
1.491232088E1,5.129832458E-1,-3.715274048E-1,1.116677856E-1,6.431594805E-1
1.492232287E1,4.219725037E-1,-4.073030090E-1,1.390608215E-1,6.027391203E-1
1.493232488E1,4.011657715E-1,-6.412664795E-1,3.634442139E-1,8.391950730E-1
1.494232788E1,7.298822021E-1,-2.546654205E0,3.248245239E-1,2.669023537E0
1.495232987E1,1.207987976E-1,-1.216250793E1,1.826501770E0,1.229948374E1
1.496233288E1,-6.607858887E0,-4.690570908E1,1.145642624E1,4.873457751E1
1.497233487E1,-1.987821304E1,-8.940563004E1,2.689112961E1,9.545492595E1
1.498233788E1,-2.247186951E1,-7.554146072E1,2.692735428E1,8.328613099E1
1.499233988E1,-1.302980438E1,-3.949536896E1,1.367885468E1,4.378094376E1
1.500234187E1,-8.357869720E0,-2.529320251E1,5.098697205E0,2.712188771E1
1.501234488E1,-1.514954636E1,-2.423415482E1,-9.307345276E0,3.005710715E1
1.502234687E1,-2.155592422E1,-2.925172073E1,-1.263208145E1,3.846934516E1
1.503234988E1,-1.600456833E1,-3.291026276E1,8.243058472E0,3.751239282E1
1.504235188E1,-1.360685440E1,-3.521172684E1,9.769134979E0,3.899292489E1
1.505235387E1,-1.247939896E1,-3.580359604E1,8.882828064E0,3.894274672E1
1.506235688E1,-1.033450928E1,-3.184911942E1,7.676786041E0,3.435260592E1
1.507235888E1,-7.788304138E0,-2.588207794E1,5.533842316E0,2.758918358E1
1.508236188E1,-6.071224823E0,-2.162178726E1,3.258424072E0,2.269314396E1
1.509236388E1,-4.887935486E0,-1.878219223E1,7.658074951E-1,1.942290193E1
1.510236687E1,-3.614683228E0,-1.633478165E1,1.111738129E0,1.676684192E1
1.511236888E1,-2.908152466E0,-1.415396667E1,2.231709137E0,1.462096608E1
1.512237088E1,-2.257006531E0,-1.191567123E1,2.460732880E0,1.237467194E1
1.513237387E1,-1.540446625E0,-9.475146332E0,2.226619720E0,9.854400499E0
1.514237588E1,-7.135661316E-1,-6.931785278E0,1.797761536E0,7.196580459E0
1.515237887E1,-3.757186890E-2,-4.639601898E0,1.263223114E0,4.808643265E0
1.516238062E1,3.827540588E-1,-2.748733978E0,8.746311951E-1,2.909814235E0
1.517238363E1,5.177732849E-1,-1.400936737E0,6.617738342E-1,1.633602621E0
1.518238562E1,6.176156616E-1,-4.890330505E-1,5.782475281E-1,9.772270124E-1
1.519238763E1,8.463400269E-1,2.900967407E-1,6.021977234E-1,1.078466345E0
1.520239063E1,1.873504028E0,2.810405731E0,5.566923523E-1,3.423200855E0
1.521239262E1,3.193459167E0,5.526357880E0,8.155041504E-1,6.434583117E0
1.522239563E1,1.940564575E0,2.652184753E0,1.056952057E0,3.452104067E0
1.523239762E1,9.123527527E-1,8.015830994E-1,1.171164551E0,1.687172017E0
1.524240063E1,7.740403748E-1,5.881269836E-1,1.286873932E0,1.612785282E0
1.525240263E1,7.179071045E-1,8.434360657E0,1.069076843E0,8.532101476E0
1.526240462E1,2.830314331E0,2.315205505E1,1.664688263E0,2.338374477E1
1.527240763E1,2.281106415E0,1.180011154E1,2.169887695E0,1.221288219E1
1.528240963E1,3.351530457E-1,4.410727844E0,1.676513672E0,4.730491071E0
1.529241262E1,3.921844482E-2,8.240364075E-1,2.123334503E0,2.277964771E0
1.530241463E1,-1.481918335E-2,-8.204438782E-1,1.995350647E0,2.157492056E0
1.531241662E1,-3.098556519E-2,-1.049766998E0,1.620380402E0,1.930959218E0
1.532241963E1,-6.271957397E-2,-1.189875641E0,1.565294952E0,1.967202601E0
1.533242163E1,-9.295669556E-2,-1.166673889E0,1.511257324E0,1.911456934E0
1.534242462E1,-1.112187195E-1,-1.014889526E0,1.292711792E0,1.647262618E0
1.535242663E1,-1.734892273E-1,-9.228309631E-1,1.026116180E0,1.390909743E0
1.536242962E1,-1.833686829E-1,-8.045768738E-1,8.797206116E-1,1.206182563E0
1.537243163E1,-1.923500061E-1,-6.632707214E-1,8.159532166E-1,1.068974381E0
1.538243363E1,-1.451980591E-1,-3.999682617E-1,7.613168335E-1,8.721584763E-1
1.539243662E1,3.727249146E-2,6.167175293E-2,6.812333679E-1,6.850339738E-1
1.540243863E1,7.948471069E-2,4.155358887E-1,5.622308350E-1,7.036273202E-1
1.541244162E1,5.194198608E-2,7.277865601E-1,4.969665527E-1,8.828063216E-1
1.542244363E1,6.301895142E-2,1.038540344E0,5.215155029E-1,1.163836696E0
1.543244663E1,7.349716187E-2,1.208586731E0,4.682263184E-1,1.298198600E0
1.544244862E1,1.423539734E-1,1.219214630E0,1.872605896E-1,1.241698634E0
1.545245063E1,3.311114502E-1,1.043180695E0,-6.286926270E-3,1.094486308E0
1.546245362E1,4.803511047E-1,8.255332947E-1,2.140548706E-2,9.553536514E-1
1.547245563E1,5.399272156E-1,5.572911072E-1,1.167572021E-1,7.846827515E-1
1.548245863E1,5.281018066E-1,9.879455566E-2,2.808160400E-1,6.062256434E-1
1.549246062E1,5.375321960E-1,-3.915856934E-1,5.718109131E-1,8.770678066E-1
1.550246263E1,5.152285767E-1,-7.469467163E-1,9.177415466E-1,1.290596540E0
1.551246562E1,4.915777588E-1,-1.099164276E0,1.365460510E0,1.820520037E0
1.552246762E1,5.059478760E-1,-1.438508606E0,1.985321503E0,2.503356094E0
1.553247063E1,3.773652649E-1,-1.883084106E0,2.748584290E0,3.353077078E0
1.554247262E1,2.296224976E-1,-3.516038361E0,3.429368591E0,4.916891414E0
1.555247563E1,-1.227297821E0,-1.482502121E1,5.785618744E0,1.596123109E1
1.556247763E1,-1.133188522E1,-5.331253601E1,1.834076019E1,5.750670920E1
1.557247962E1,-2.027264282E1,-9.266794601E1,2.957744339E1,9.936374300E1
1.558248263E1,-1.425545563E1,-7.065053146E1,1.789498718E1,7.426268361E1
1.559248462E1,-8.047265625E0,-3.595044067E1,6.575077057E0,3.742224348E1
1.560248763E1,-7.642657013E0,-2.614493134E1,3.579955444E0,2.747332746E1
1.561248963E1,-1.365819763E1,-2.917627762E1,-1.456171875E1,3.535314966E1
1.562249262E1,-2.085059097E1,-3.809143845E1,-3.859080002E1,5.809436008E1
1.563249463E1,-1.402179153E1,-3.840758102E1,9.673184509E0,4.201575200E1
1.564249662E1,-1.212957642E1,-3.780523361E1,1.023840912E1,4.100228449E1
1.565249963E1,-1.177571228E1,-3.516951462E1,7.854017487E0,3.791105048E1
1.566250163E1,-1.044183609E1,-3.024460602E1,6.891069946E0,3.273003176E1
1.567250462E1,-9.310937805E0,-2.564841385E1,5.158722382E0,2.776953569E1
1.568250663E1,-8.174201660E0,-2.199496124E1,4.403842163E0,2.387445745E1
1.569250962E1,-6.928492126E0,-1.893667099E1,3.843557281E0,2.052740714E1
1.570251163E1,-5.907914429E0,-1.632654877E1,3.546874237E0,1.772117277E1
1.571251363E1,-4.937482452E0,-1.383707565E1,3.100502472E0,1.501520933E1
1.572251662E1,-3.682492218E0,-1.106109833E1,2.544259186E0,1.193238869E1
1.573251863E1,-2.293081512E0,-8.270750885E0,1.833686829E0,8.776442925E0
1.574252162E1,-1.129102020E0,-5.490432587E0,1.171763306E0,5.726495491E0
1.575252363E1,-2.287243652E-1,-2.974913635E0,5.774990845E-1,3.039067483E0
1.576252663E1,2.707868958E-1,-1.217118988E0,8.786727905E-2,1.249969933E0
1.577252862E1,6.285429382E-1,6.586303711E-3,-1.728904724E-1,6.519207928E-1
1.578253063E1,3.356320496E0,6.478078766E0,-2.719844055E-1,7.300983994E0
1.579253362E1,7.201075287E0,1.481738708E1,-1.417552185E-1,1.647514916E1
1.580253563E1,5.843398590E0,1.097113541E1,6.960525513E-2,1.243044505E1
1.581253863E1,1.893113251E0,2.353406067E0,-9.310638428E-2,3.021765493E0
1.582254062E1,9.816586304E-1,4.610412598E-2,-1.317260742E-2,9.828289651E-1
1.583254263E1,1.368603973E0,6.126759338E-1,7.873626709E-2,1.501548546E0
1.584254563E1,1.524429932E0,7.315287781E-1,2.085163879E-1,1.703672519E0
1.585254762E1,1.703906708E0,1.216220856E0,5.740562439E-1,2.170721495E0
1.586255063E1,1.971250763E0,1.891017609E0,8.613088989E-1,2.864198000E0
1.587255262E1,2.799328766E0,3.635340271E0,1.095272369E0,4.717156134E0
1.588255563E1,3.369642792E0,5.338947601E0,1.003662872E0,6.392667143E0
1.589255763E1,2.465223541E0,4.749922485E0,7.870632935E-1,5.409118168E0
1.590255962E1,1.144969025E0,4.323159943E0,1.161434784E0,4.620562381E0
1.591256263E1,7.170089722E-2,3.678001556E0,1.778751068E0,4.086170803E0
1.592256462E1,-6.471043396E-1,2.377206573E0,2.294877777E0,3.366945074E0
1.593256763E1,-1.035995636E0,1.127305756E0,2.596201172E0,3.014028160E0
1.594256963E1,-1.161434784E0,1.407073975E-1,2.773282928E0,3.009954739E0
1.595257262E1,-1.130898285E0,-4.264631653E-1,2.981799316E0,3.217441363E0
1.596257463E1,-1.057101746E0,-7.298822021E-1,3.089575195E0,3.345992680E0
1.597257662E1,-9.777667236E-1,-1.078507233E0,2.876268768E0,3.223682311E0
1.598257963E1,-8.342152405E-1,-1.300196228E0,2.462678833E0,2.907096891E0
1.599258163E1,-6.845265198E-1,-1.219963074E0,2.021246796E0,2.458114128E0
1.600258462E1,-4.243675232E-1,-8.259823608E-1,1.576671295E0,1.829816119E0
1.601258663E1,-6.137237549E-3,-8.397537231E-2,1.202150116E0,1.205095195E0
1.602258862E1,3.632945251E-1,6.703060913E-1,8.565188599E-1,1.146698620E0
1.603259163E1,5.797444153E-1,1.193617859E0,4.891827393E-1,1.414258439E0
1.604259363E1,6.415658569E-1,1.396296387E0,3.073109436E-1,1.567064250E0
1.605259662E1,5.706134033E-1,1.223705292E0,2.658471680E-1,1.376128269E0
1.606259863E1,4.613406372E-1,7.417076111E-1,3.320095825E-1,9.344494244E-1
1.607260162E1,4.713697815E-1,2.308200073E-1,3.459306335E-1,6.285979239E-1
1.608260363E1,3.321592712E-1,-2.107617188E-1,2.559677124E-1,4.693290459E-1
1.609260563E1,8.292755127E-2,-6.038442993E-1,8.936416626E-2,6.160283036E-1
1.610260862E1,6.316864014E-2,-6.394702148E-1,-1.091230774E-1,6.517823861E-1
1.611261063E1,5.298980713E-2,-6.818321228E-1,-1.437011719E-1,6.988225742E-1
1.612261362E1,-6.301895142E-2,-8.873547363E-1,2.454895020E-2,8.899283495E-1
1.613261562E1,-2.995271301E-1,-1.429227905E0,5.733078003E-1,1.568786391E0
1.614261763E1,-4.903802490E-1,-3.993844757E0,1.285377045E0,4.224152327E0
1.615262062E1,-1.304237823E0,-1.641052414E1,4.222569122E0,1.699518840E1
1.616262237E1,-1.216669922E1,-5.568779663E1,1.449465820E1,5.881542638E1
1.617262538E1,-3.087838806E1,-9.899034851E1,2.802951233E1,1.074160952E2
1.618262737E1,-2.914154984E1,-7.967870728E1,2.287453217E1,8.787019143E1
1.619263038E1,-1.350147354E1,-4.028048630E1,8.652008057E0,4.335509898E1
1.620263238E1,-7.395520935E0,-2.813264786E1,-3.653078384E1,4.669729943E1
1.621263537E1,-6.023923187E0,-2.665013077E1,-2.885235123E1,3.973632207E1
1.622263738E1,-1.024858795E1,-3.079082016E1,1.319910233E1,3.503319088E1
1.623263937E1,-1.108729385E1,-3.495471130E1,1.076920532E1,3.821957235E1
1.624264238E1,-1.106753494E1,-3.694332596E1,9.401200104E0,3.969486397E1
1.625264438E1,-1.048689240E1,-3.609878220E1,7.136709137E0,3.826263981E1
1.626264737E1,-9.502539368E0,-3.112717072E1,4.580325165E0,3.286606745E1
1.627264938E1,-8.506360931E0,-2.591500946E1,2.832709351E0,2.742207384E1
1.628265237E1,-6.711593170E0,-2.205049576E1,6.213578796E-1,2.305766536E1
1.629265437E1,-4.381388855E0,-1.873563904E1,-2.521207123E0,1.940559774E1
1.630265638E1,-2.728376312E0,-1.546583862E1,-2.548899536E0,1.591015683E1
1.631265937E1,-2.245779877E0,-1.238374786E1,8.541238403E-1,1.261468454E1
1.632266138E1,-1.737586670E0,-9.365723877E0,2.235750732E0,9.784404556E0
1.633266438E1,-1.042881317E0,-6.319109344E0,2.216590576E0,6.777316440E0
1.634266637E1,-3.592529297E-1,-3.618575134E0,1.834584961E0,4.072941277E0
1.635266838E1,1.983375549E-1,-1.557660828E0,1.185235291E0,1.967340269E0
1.636267137E1,6.315367126E-1,-3.227288818E-1,7.857160950E-1,1.058462249E0
1.637267338E1,1.691482544E0,2.002386017E0,7.629634094E-1,2.729977311E0
1.638267638E1,6.253845062E0,1.232462082E1,1.046623535E0,1.386009658E1
1.639267837E1,6.769522705E0,1.280078064E1,7.140151978E-1,1.449814610E1
1.640268138E1,3.345991974E0,5.215753784E0,3.112028503E-1,6.204562599E0
1.641268337E1,1.130149841E0,4.806504822E-1,2.715353394E-1,1.257773823E0
1.642268538E1,1.571881256E0,1.253792725E0,8.900491333E-1,2.198862056E0
1.643268838E1,1.008303223E0,4.076921997E0,1.596130829E0,4.492838967E0
1.644269037E1,-3.409909058E-1,8.462951202E0,2.934647369E0,8.963814647E0
1.645269338E1,-8.550219727E-1,1.032133667E1,4.182901611E0,1.116949950E1
1.646269537E1,-7.635621643E-1,6.147117004E0,3.835623779E0,7.285745289E0
1.647269738E1,5.583389282E-2,1.571881256E0,2.973716125E0,3.364062381E0
1.648270038E1,5.682183838E-1,-6.792874146E-1,2.507136383E0,2.658953999E0
1.649270237E1,4.896318054E-1,-1.504221954E0,2.367027740E0,2.846970902E0
