"Time (s)","Acceleration x (m/s^2)","Acceleration y (m/s^2)","Acceleration z (m/s^2)","Absolute acceleration (m/s^2)"
9.221291664E-3,-4.917274475E-1,3.715872803E0,-1.466410583E1,1.513557090E1
1.916029165E-2,3.911366272E-1,3.584446106E0,-1.179247742E1,1.233141376E1
2.909929166E-2,1.697470093E-1,2.952759705E0,-8.400830383E0,8.906264933E0
3.903929165E-2,-8.770262146E-1,2.067201233E0,-5.719606018E0,6.144622765E0
4.897829166E-2,-2.171234894E0,1.084943848E0,-3.921395416E0,4.611800747E0
5.891729167E-2,-3.155438232E0,3.673361206E-1,-2.640808411E0,4.131052569E0
6.885629165E-2,-3.567082214E0,-1.231938171E-1,-9.740245056E-1,3.699726473E0
7.879529166E-2,-3.895798645E0,-3.064128113E-1,5.134323120E-2,3.908167348E0
8.873529165E-2,-4.169579315E0,-5.101391602E-1,1.682501221E-1,4.204038741E0
9.867429166E-2,-4.640350342E0,-8.375083923E-1,2.812651062E-1,4.723704231E0
1.086132916E-1,-4.921765137E0,-8.906478882E-1,2.444416809E-1,5.007671860E0
1.185522916E-1,-4.576582947E0,-6.661148071E-1,1.559756470E-1,4.627434366E0
1.284922916E-1,-3.831432495E0,-4.498146057E-1,3.766168213E-1,3.876086735E0
1.384312916E-1,-2.890489197E0,-2.784210205E-1,7.940986633E-1,3.010488125E0
1.483702917E-1,-1.930385742E0,-3.817062378E-2,1.317410431E0,2.337395207E0
1.583092916E-1,-1.098715210E0,2.174977112E-1,1.675615540E0,2.015482028E0
1.682482917E-1,-4.962181091E-1,3.725752258E-1,1.775757294E0,1.881052545E0
1.781882916E-1,5.239105225E-3,3.799099731E-1,1.649719391E0,1.692906703E0
1.881272917E-1,7.020401001E-1,1.366658020E-1,1.334774323E0,1.514318439E0
1.980662917E-1,1.703757019E0,-6.930587769E-1,8.946894836E-1,2.045382048E0
2.080052916E-1,3.269051971E0,-2.650837555E0,9.654922485E-2,4.209864878E0
2.179452917E-1,5.895789642E0,-5.835165710E0,-8.216413879E-1,8.335741655E0
2.278842916E-1,8.580606537E0,-1.013692017E1,-1.641636200E0,1.338203753E1
2.378232917E-1,1.150851791E1,-1.518397476E1,-2.881657562E0,1.926922480E1
2.477622917E-1,1.643851593E1,-1.918784866E1,-3.695515137E0,2.553537105E1
2.577012916E-1,2.175650711E1,-2.093561417E1,-3.726650391E0,3.042258150E1
2.676412917E-1,2.576741638E1,-2.079026642E1,-3.777993622E0,3.332368768E1
2.775802916E-1,3.019940002E1,-2.143437698E1,-4.793781281E0,3.734188824E1
2.875192917E-1,3.388518539E1,-2.349050125E1,-6.019881592E0,4.166831425E1
2.974582917E-1,3.412558548E1,-2.428340240E1,-6.433172150E0,4.237481470E1
3.073982917E-1,3.257076874E1,-2.426768509E1,-4.844226379E0,4.090528138E1
3.173372917E-1,2.959675323E1,-2.426274536E1,-6.695576477E-1,3.827658451E1
3.272762916E-1,2.524470337E1,-2.310834595E1,4.206552429E0,3.448167316E1
3.372152917E-1,2.027159500E1,-2.068338867E1,8.232879639E0,3.010847784E1
3.471542917E-1,1.587014786E1,-1.735041962E1,1.142753632E1,2.614358889E1
3.570942917E-1,1.293624893E1,-1.370430176E1,1.370370300E1,2.330119952E1
3.670332917E-1,1.086545517E1,-1.021580612E1,1.471335342E1,2.095002577E1
3.769722916E-1,9.669442291E0,-7.498207397E0,1.367840561E1,1.835265671E1
3.869112917E-1,9.275760956E0,-6.191275177E0,1.042641815E1,1.526701756E1
3.968512916E-1,8.716374207E0,-5.973178711E0,6.049519958E0,1.217582584E1
4.067902917E-1,7.328310699E0,-5.677393799E0,1.732946320E0,9.430802776E0
4.167292916E-1,5.003495178E0,-5.014123077E0,-2.534230042E0,7.523211823E0
4.266682916E-1,1.660646667E0,-4.122726746E0,-6.941964111E0,8.242905367E0
4.366072917E-1,-2.051932983E0,-2.670147400E0,-1.111588440E1,1.161477516E1
4.465472916E-1,-4.824317780E0,-4.969665527E-1,-1.506587036E1,1.582723815E1
4.564862917E-1,-5.876030731E0,1.682351532E0,-1.776101578E1,1.878328313E1
4.664252916E-1,-4.893923035E0,2.777923279E0,-1.685270462E1,1.776741381E1
4.763642917E-1,-3.243604889E0,3.318748627E0,-1.255873398E1,1.338868419E1
4.863032917E-1,-3.147355042E0,4.143832855E0,-8.210276642E0,9.720382555E0
4.962432917E-1,-4.310885468E0,5.159770203E0,-4.720433807E0,8.215196735E0
5.061822917E-1,-5.109474792E0,5.936055908E0,-2.907404022E0,8.354429397E0
5.161216666E-1,-5.272785187E0,5.874683533E0,-2.041754150E0,8.153706534E0
5.260606667E-1,-5.095553741E0,4.984634399E0,-1.217717743E0,7.231464895E0
5.360006666E-1,-4.624333649E0,3.771257629E0,-9.151968384E-1,6.036922316E0
5.459396667E-1,-4.299359436E0,2.503244476E0,-1.043629761E0,5.083294950E0
5.558786667E-1,-4.669090576E0,9.857002258E-1,-1.478176117E0,4.995699788E0
5.658176666E-1,-5.098098450E0,-1.585203552E-1,-2.099384308E0,5.515718537E0
5.757566667E-1,-4.514911194E0,-3.573069763E-1,-2.498604126E0,5.172534576E0
5.856966666E-1,-2.621648254E0,-2.848576355E-1,-2.510579224E0,3.641042636E0
5.956356667E-1,5.164260864E-2,-3.978726196E-1,-2.497556305E0,2.529576462E0
6.055746666E-1,3.000660095E0,-6.662644958E-1,-2.751128998E0,4.125115774E0
6.155136666E-1,5.590724030E0,-1.262175293E0,-3.036735077E0,6.486219359E0
6.254526667E-1,7.909552002E0,-2.347119141E0,-3.409160614E0,8.927057590E0
6.353926666E-1,1.000429596E1,-3.904630280E0,-3.836970978E0,1.140414054E1
6.453316667E-1,1.199770065E1,-5.881569214E0,-4.291126556E0,1.403393902E1
6.552706666E-1,1.436577621E1,-8.715925140E0,-4.702321472E0,1.744863045E1
6.652096667E-1,1.726913864E1,-1.282203644E1,-4.831053772E0,2.204465578E1
6.751496666E-1,2.056258987E1,-1.752301071E1,-4.438120880E0,2.737832945E1
6.850886667E-1,2.358779892E1,-2.102243362E1,-3.665727081E0,3.180824623E1
6.950276667E-1,2.525757660E1,-2.205663300E1,-2.778971100E0,3.364762867E1
7.049666666E-1,2.647783905E1,-2.232038452E1,-1.997146912E0,3.468809770E1
7.149056667E-1,2.898796921E1,-2.380559601E1,-1.542991333E0,3.754183776E1
7.248456666E-1,3.111280060E1,-2.536131088E1,-1.355431366E0,4.016266481E1
7.347846667E-1,3.084740250E1,-2.486060211E1,-1.559307404E0,3.964900021E1
7.447236667E-1,2.853441238E1,-2.263607803E1,-1.989512787E0,3.647688145E1
7.546626666E-1,2.573867615E1,-2.009421387E1,-2.029329987E0,3.271658694E1
7.646026667E-1,2.261167877E1,-1.755564285E1,-1.330882416E0,2.865763181E1
7.745416666E-1,1.925116699E1,-1.506871445E1,-4.423301697E-1,2.445136482E1
7.844806667E-1,1.597088837E1,-1.267623962E1,4.312532043E-1,2.039466365E1
7.944196667E-1,1.296903076E1,-1.038809784E1,1.042731628E0,1.664919292E1
8.043586666E-1,1.036953644E1,-8.122559052E0,1.201701050E0,1.322676593E1
8.142986667E-1,8.154442749E0,-5.971083069E0,8.972341919E-1,1.014661514E1
8.242376666E-1,6.246360626E0,-4.188739471E0,4.918771362E-1,7.536876180E0
8.341766667E-1,5.075196075E0,-2.878813477E0,-2.011816406E-1,5.838292241E0
8.441156667E-1,3.989204407E0,-1.915117493E0,-1.154848480E0,4.573303163E0
8.540546666E-1,2.661166077E0,-1.037193146E0,-2.281405792E0,3.655459875E0
8.639946667E-1,1.290466461E0,-6.601272583E-2,-3.555855560E0,3.783354349E0
8.739336666E-1,-3.438349915E-1,8.120613098E-1,-4.912933502E0,4.991450858E0
8.838726667E-1,-2.667303314E0,1.237027588E0,-6.195316772E0,6.857601194E0
8.938116666E-1,-5.365143127E0,1.233884125E0,-7.010222168E0,8.913497947E0
9.037516667E-1,-7.374714203E0,1.289268951E0,-7.180418243E0,1.037338084E1
9.136906666E-1,-8.503217468E0,1.476379852E0,-6.829996948E0,1.100605575E1
9.236296666E-1,-8.639733582E0,1.506467285E0,-6.248456268E0,1.076836319E1
9.335686667E-1,-8.071215820E0,1.429527283E0,-5.558690643E0,9.903893918E0
9.435076666E-1,-7.250023499E0,1.277443542E0,-4.916226654E0,8.852343602E0
9.534476667E-1,-6.379882965E0,1.122665405E0,-4.420008545E0,7.842178256E0
9.633866666E-1,-5.488636322E0,1.079105988E0,-4.015848999E0,6.885974266E0
9.733256667E-1,-4.472399597E0,1.074315948E0,-3.708538055E0,5.908448817E0
9.832646667E-1,-3.381468201E0,1.044677582E0,-3.359164581E0,4.879514845E0
9.932036666E-1,-2.282154236E0,9.719288635E-1,-3.052452393E0,3.933235218E0
1.003143667E0,-1.164129181E0,8.614585876E-1,-2.817291412E0,3.167718193E0
1.013082667E0,-1.173559570E-1,5.906716919E-1,-2.634671173E0,2.702620517E0
1.023021667E0,7.937992859E-1,3.345542908E-1,-2.443967743E0,2.591335989E0
1.032960667E0,1.610051880E0,2.302212524E-1,-1.923200684E0,2.518723834E0
1.042900667E0,2.359842682E0,1.724414062E-1,-1.297651520E0,2.698609455E0
1.052839667E0,3.311413879E0,-1.463955688E-1,-7.694000244E-1,3.402773860E0
1.062778667E0,4.565805359E0,-9.970765686E-1,-3.571572876E-1,4.687035480E0
1.072717667E0,6.296356659E0,-2.754721527E0,-1.948947144E-1,6.875360486E0
1.082656667E0,8.329279175E0,-5.517077179E0,-4.433779907E-1,1.000058079E1
1.092596667E0,1.036609360E1,-9.087901611E0,-9.644444275E-1,1.381940683E1
1.102535667E0,1.267983215E1,-1.349129471E1,-1.463806000E0,1.857245014E1
1.112474667E0,1.563034653E1,-1.892035492E1,-1.611848145E0,2.459442248E1
1.122413667E0,1.881512375E1,-2.455673401E1,-1.307530975E0,3.096371593E1
1.132353667E0,2.041065582E1,-2.751413406E1,-3.333567810E-1,3.425979526E1
1.142292667E0,2.043505508E1,-2.663052155E1,5.240602112E-1,3.357157716E1
1.152231667E0,2.197849548E1,-2.648831726E1,6.756948853E-1,3.442588820E1
1.162170667E0,2.390364212E1,-2.770139465E1,7.225474548E-1,3.659608513E1
1.172109667E0,2.457828918E1,-2.795796112E1,1.161135406E0,3.724363200E1
1.182049667E0,2.402429123E1,-2.680790268E1,2.972069550E0,3.612012476E1
1.191988667E0,2.241364059E1,-2.507780045E1,5.661975861E0,3.410755533E1
1.201927667E0,2.028536636E1,-2.286345520E1,8.457113342E0,3.171366327E1
1.211866667E0,1.810365326E1,-2.007056305E1,1.098281113E1,2.917519328E1
1.221805667E0,1.628209122E1,-1.683968170E1,1.271111710E1,2.665058859E1
1.231745667E0,1.423854080E1,-1.368723724E1,1.273581573E1,2.350058531E1
1.241684667E0,1.215696945E1,-1.097128510E1,1.077399536E1,1.960204017E1
1.251623667E0,1.034199371E1,-9.084458771E0,7.616461487E0,1.573196462E1
1.261562667E0,9.068591766E0,-7.396868134E0,4.019441528E0,1.237371913E1
1.271501667E0,7.685767365E0,-5.663622437E0,4.246669006E-1,9.556567431E0
1.281441667E0,5.894292755E0,-3.752097473E0,-3.147654419E0,7.663462068E0
1.291380667E0,3.824995880E0,-1.531914368E0,-7.102430420E0,8.211082327E0
1.301319667E0,2.002685394E0,8.099656677E-1,-1.091410400E1,1.112584646E1
1.311258667E0,9.530680847E-1,3.152145081E0,-1.291828629E1,1.333140945E1
1.321198667E0,3.183879089E-1,4.919968872E0,-1.231339417E1,1.326375288E1
1.331137667E0,-4.412823486E-1,5.793552246E0,-9.868528290E0,1.145197923E1
1.341076667E0,-1.124311981E0,5.834716644E0,-7.082372131E0,9.244889981E0
1.351015667E0,-1.674867096E0,5.482798462E0,-5.034031677E0,7.629399301E0
1.360954667E0,-2.359543304E0,4.907245331E0,-3.885619812E0,6.689285662E0
1.370894667E0,-2.843786316E0,4.087549896E0,-3.370391235E0,6.012879663E0
1.380833667E0,-2.852617950E0,3.246448975E0,-3.056344299E0,5.293212691E0
1.390772667E0,-2.628384247E0,2.572550354E0,-2.770438843E0,4.604535857E0
1.400711667E0,-2.658471680E0,1.957479401E0,-2.509681091E0,4.147010544E0
1.410650667E0,-2.971171417E0,1.421144714E0,-2.482288055E0,4.124229126E0
1.420590667E0,-3.062331848E0,1.252445526E0,-2.638263702E0,4.231658246E0
1.430529667E0,-2.704575806E0,1.178648987E0,-2.839894409E0,4.094990107E0
1.440468667E0,-1.949246521E0,9.886940002E-1,-2.929408264E0,3.654929630E0
1.450407667E0,-8.867559814E-1,9.521699524E-1,-2.796484680E0,3.084362228E0
1.460347667E0,1.402583313E-1,1.083446960E0,-2.330354004E0,2.573728715E0
1.470286667E0,1.044827271E0,1.097966766E0,-1.771865387E0,2.331673647E0
1.480225667E0,1.859133911E0,8.451425171E-1,-1.282682648E0,2.411621767E0
1.490164667E0,2.663112030E0,3.571572876E-1,-8.973838806E-1,2.832847479E0
1.500103667E0,3.734733582E0,-5.463638306E-1,-6.688092041E-1,3.833282420E0
1.510043167E0,5.100643158E0,-2.116448822E0,-6.746470642E-1,5.563368126E0
1.519982167E0,6.793173523E0,-4.429738312E0,-9.605525208E-1,8.166544506E0
1.529921167E0,9.263935547E0,-7.480693817E0,-1.253643036E0,1.197300725E1
1.539860167E0,1.215322723E1,-1.148262177E1,-1.588496704E0,1.679508430E1
1.549799167E0,1.535761368E1,-1.638597519E1,-2.076631622E0,2.255368883E1
1.559739167E0,1.949515961E1,-2.165905975E1,-2.317929840E0,2.923266865E1
1.569678167E0,2.139964920E1,-2.360636032E1,-1.968107300E0,3.192301176E1
1.579617167E0,2.171803711E1,-2.303380096E1,-1.831890564E0,3.171095940E1
1.589556167E0,2.423146042E1,-2.405722275E1,-1.731000366E0,3.418932586E1
1.599496167E0,2.690894257E1,-2.558255081E1,-1.281485138E0,3.715104709E1
1.609435167E0,2.801514221E1,-2.587818604E1,-8.955876160E-1,3.814879792E1
1.619374167E0,2.771815979E1,-2.508498550E1,-2.853067017E-1,3.738494724E1
1.629313167E0,2.672362793E1,-2.349439316E1,1.050665131E0,3.559835245E1
1.639252167E0,2.500849457E1,-2.101764359E1,2.669398956E0,3.277639140E1
1.649192167E0,2.276286438E1,-1.794722855E1,4.097579041E0,2.927526535E1
1.659131167E0,2.007789780E1,-1.476230164E1,5.184618530E0,2.545442592E1
1.669070167E0,1.682471283E1,-1.175221115E1,5.451214142E0,2.123443346E1
1.679009167E0,1.321616684E1,-9.070088654E0,4.497247925E0,1.664808737E1
1.688948167E0,9.632020111E0,-7.035519562E0,2.506986694E0,1.218849167E1
1.698888167E0,6.309828644E0,-5.480553131E0,1.032852173E-1,8.358293365E0
1.708827167E0,3.700454865E0,-3.610042877E0,-2.470762024E0,5.729785402E0
1.718766167E0,1.802401886E0,-1.629212036E0,-4.666994934E0,5.261542182E0
1.728705167E0,5.382806396E-1,-1.803749084E-1,-5.845344543E0,5.872847179E0
1.738644167E0,6.316864014E-2,1.113684082E0,-6.033203888E0,6.135456924E0
1.748584167E0,3.173400879E-2,2.412533112E0,-5.252726898E0,5.780351454E0
1.758523167E0,-4.954696655E-2,3.442092133E0,-3.999682617E0,5.277112296E0
1.768462167E0,-3.776646423E-1,4.105063477E0,-2.924169159E0,5.054200431E0
1.778401167E0,-8.297245789E-1,4.477938080E0,-2.268382874E0,5.087822047E0
1.788341167E0,-1.303190002E0,4.479434967E0,-2.081721039E0,5.108542286E0
1.798280167E0,-1.620829468E0,4.098776550E0,-2.325713654E0,4.983573153E0
1.808219167E0,-1.617087250E0,3.603606262E0,-2.725232849E0,4.798733515E0
1.818158167E0,-1.318308563E0,3.184627533E0,-2.949765930E0,4.536618679E0
1.828097167E0,-1.010847931E0,2.832709351E0,-2.929707642E0,4.198719170E0
1.838037167E0,-8.255332947E-1,2.559976501E0,-2.740201721E0,3.839751344E0
1.847976167E0,-6.960525513E-1,2.420017548E0,-2.511327667E0,3.556366227E0
1.857915167E0,-5.093907166E-1,2.356100464E0,-2.251018982E0,3.298147170E0
1.867854167E0,-1.236428833E-1,2.234403534E0,-1.972897339E0,2.983315375E0
1.877793167E0,4.531077576E-1,2.073787537E0,-1.603166199E0,2.660083316E0
1.887733167E0,1.065484314E0,1.936672668E0,-1.095871124E0,2.467162615E0
1.897672167E0,1.567540283E0,1.765428772E0,-5.526507568E-1,2.424735892E0
1.907611167E0,1.953138428E0,1.527124329E0,-7.499404907E-2,2.480419831E0
1.917550167E0,2.218087463E0,1.265169067E0,2.577639771E-1,2.566516517E0
1.927489167E0,2.340383148E0,7.994874573E-1,3.971241760E-1,2.504851510E0
1.937429167E0,2.614014130E0,1.646575928E-3,2.857557678E-1,2.629587219E0
1.947368167E0,3.520229645E0,-1.442400513E0,-9.295669556E-2,3.805414161E0
1.957307167E0,4.926854553E0,-4.184847565E0,-5.242098999E-1,6.485494657E0
1.967246167E0,6.698570251E0,-8.316256256E0,-9.626481628E-1,1.072183067E1
1.977186167E0,8.811276855E0,-1.386207367E1,-1.482816467E0,1.649225366E1
1.987125167E0,1.086470673E1,-2.016322037E1,-2.102527771E0,2.300038980E1
1.997064167E0,1.366882553E1,-2.582624405E1,-2.422562256E0,2.932064940E1
2.007003167E0,1.548904037E1,-2.819372086E1,-1.409768372E0,3.219912599E1
2.016942167E0,1.600112549E1,-2.731729340E1,1.402583313E-1,3.165896726E1
2.026882167E0,2.001023849E1,-2.755335251E1,8.442443848E-1,3.406331792E1
2.036821167E0,2.567625595E1,-2.863889511E1,7.220983887E-1,3.847048036E1
2.046760167E0,2.826976273E1,-2.720098526E1,2.453398132E-1,3.923178909E1
2.056699167E0,2.875729889E1,-2.472258911E1,-2.299218750E-1,3.792415478E1
2.066638167E0,2.747491562E1,-2.291644501E1,3.375480652E-1,3.577916124E1
2.076578167E0,2.402474030E1,-2.120520355E1,1.579216003E0,3.208337151E1
2.086517167E0,1.928514633E1,-1.930460587E1,2.265089722E0,2.738092964E1
2.096456167E0,1.506901382E1,-1.692530365E1,1.791175232E0,2.273212243E1
2.106395167E0,1.247401016E1,-1.374546616E1,8.484356689E-1,1.858113593E1
2.116334167E0,1.127036316E1,-1.031085846E1,-4.917274475E-1,1.528321575E1
2.126274167E0,1.070304291E1,-6.822961578E0,-2.368075562E0,1.291184394E1
2.136213167E0,9.856852570E0,-3.566633148E0,-4.289779358E0,1.132610355E1
2.146152167E0,8.331374817E0,-9.713301086E-1,-5.821244659E0,1.020990587E1
2.156091167E0,6.755302277E0,8.414002991E-1,-6.430328064E0,9.364357016E0
2.166030167E0,5.446873169E0,2.020648041E0,-6.015690308E0,8.363012358E0
2.175970167E0,4.013154602E0,2.729274445E0,-5.261857910E0,7.158316668E0
2.185909167E0,2.217937775E0,3.244503021E0,-4.936434631E0,6.309868041E0
2.195848167E0,3.137475586E-1,3.487747192E0,-5.020260315E0,6.120933886E0
2.205787167E0,-1.052461395E0,3.309467926E0,-5.222190399E0,6.271485112E0
2.215726167E0,-1.790277100E0,2.898871765E0,-5.237907715E0,6.248537976E0
2.225666167E0,-2.209255829E0,2.565514984E0,-4.875960388E0,5.936132424E0
2.235605167E0,-2.322121124E0,2.473606110E0,-4.263134766E0,5.448421031E0
2.245544167E0,-2.023941193E0,2.543061676E0,-3.524720306E0,4.794492035E0
2.255483167E0,-1.568288727E0,2.534529419E0,-2.730921021E0,4.042437201E0
2.265423167E0,-1.706002350E0,2.152074738E0,-2.144290924E0,3.484229220E0
2.275362167E0,-2.420316925E0,1.652264099E0,-2.063758392E0,3.584272503E0
2.285301167E0,-2.715952148E0,1.347797241E0,-2.290836182E0,3.800116299E0
2.295240167E0,-2.320474548E0,1.247805176E0,-2.299368439E0,3.496957978E0
2.305179167E0,-1.655557251E0,1.256936188E0,-1.889071655E0,2.808798695E0
2.315119167E0,-1.295855255E0,1.160985718E0,-1.413510590E0,2.241682597E0
2.325058167E0,-1.525328064E0,8.933422852E-1,-1.103954315E0,2.084082837E0
2.334997167E0,-1.728156281E0,6.706054688E-1,-1.079105988E0,2.144925536E0
2.344936167E0,-1.496288452E0,4.441264343E-1,-1.039288788E0,1.875166288E0
2.354875167E0,-1.012793884E0,2.324665833E-1,-8.490344238E-1,1.341883608E0
2.364815167E0,-1.815724182E-1,2.089654541E-1,-6.209088135E-1,6.798256090E-1
2.374754167E0,1.083746338E0,1.609153748E-1,-3.823049927E-1,1.160412422E0
2.384693167E0,2.710114288E0,-4.044589233E-1,-2.209405518E-1,2.749021863E0
2.394632167E0,4.588258667E0,-1.740879822E0,-3.390449524E-1,4.919118989E0
2.404571167E0,7.012617188E0,-3.836970978E0,-7.683522034E-1,8.030536172E0
2.414511167E0,1.057640625E1,-7.167545013E0,-1.486109619E0,1.286244893E1
2.424450167E0,1.414603317E1,-1.191013275E1,-2.368374939E0,1.864324855E1
2.434389167E0,1.757150986E1,-1.746253647E1,-3.483555908E0,2.501666046E1
2.444328167E0,2.162014069E1,-2.373733795E1,-4.235292664E0,3.238563571E1
2.454267167E0,2.476659760E1,-2.810645233E1,-3.792214050E0,3.765286054E1
2.464207167E0,2.475342499E1,-2.822051514E1,-2.296075287E0,3.760852942E1
2.474146167E0,2.484802826E1,-2.822111389E1,-5.852828979E-1,3.760582845E1
2.484085167E0,2.609463593E1,-2.919498871E1,1.047072601E0,3.917108309E1
2.494024167E0,2.628833313E1,-2.889411438E1,2.591111755E0,3.914920388E1
2.503963167E0,2.527568893E1,-2.719140518E1,3.882775726E0,3.732705338E1
2.513903333E0,2.307930634E1,-2.478994904E1,4.725822601E0,3.419838232E1
2.523842333E0,2.033491333E1,-2.196232910E1,4.781506805E0,3.031031849E1
2.533781333E0,1.778661255E1,-1.881811752E1,4.042493591E0,2.620738231E1
2.543720333E0,1.546568893E1,-1.535237457E1,2.938539276E0,2.198904164E1
2.553660333E0,1.357631790E1,-1.179681839E1,1.547182617E0,1.805201113E1
2.563599333E0,1.170311325E1,-8.567583618E0,-1.905537415E-1,1.450526317E1
2.573538333E0,9.675878906E0,-5.791905670E0,-2.478994904E0,1.154617771E1
2.583477333E0,7.194938049E0,-3.371888123E0,-5.185516663E0,9.488221440E0
2.593416333E0,4.660258942E0,-1.260229340E0,-7.544311523E0,8.956719698E0
2.603356333E0,2.972817993E0,5.159770203E-1,-8.982371063E0,9.475593334E0
2.613295333E0,1.794169006E0,2.127076721E0,-9.260492706E0,9.669551332E0
2.623234333E0,5.062472534E-1,3.350782013E0,-8.696615295E0,9.333549377E0
2.633173333E0,-7.228468323E-1,4.014950867E0,-7.680228882E0,8.696450637E0
2.643112333E0,-1.916015625E0,4.184548187E0,-6.482120361E0,7.949807783E0
2.653052333E0,-2.993924103E0,3.952530670E0,-5.273982697E0,7.238851685E0
2.662991333E0,-3.643722839E0,3.503165131E0,-3.922892303E0,6.398278369E0
2.672930333E0,-3.874243469E0,2.986888733E0,-2.823278961E0,5.648200674E0
2.682869333E0,-4.064797211E0,2.361489258E0,-2.381248169E0,5.269682222E0
2.692808333E0,-4.347259827E0,1.694476318E0,-2.483485565E0,5.285604842E0
2.702748333E0,-4.491709442E0,1.200952606E0,-2.787203979E0,5.420908309E0
2.712687333E0,-4.407135315E0,1.083446960E0,-2.974763947E0,5.426409452E0
2.722626333E0,-4.077221375E0,9.828561401E-1,-2.965483246E0,5.136519367E0
2.732565333E0,-3.430266724E0,8.475375366E-1,-2.683769073E0,4.437078556E0
2.742504333E0,-2.640059967E0,7.937992859E-1,-2.311193848E0,3.597450616E0
2.752444333E0,-1.790426788E0,8.056246948E-1,-1.922302551E0,2.747709288E0
2.762383333E0,-8.313711548E-1,7.604187012E-1,-1.467697906E0,1.850284233E0
2.772322333E0,3.607498169E-2,6.689588928E-1,-1.042731628E0,1.239393664E0
2.782261333E0,6.676116943E-1,6.195616150E-1,-7.821235657E-1,1.200532899E0
2.792200333E0,1.103954315E0,6.132746887E-1,-6.634204102E-1,1.426515901E0
2.802140333E0,1.486708374E0,4.683760071E-1,-6.526428223E-1,1.689858138E0
2.812079333E0,1.904489594E0,-3.412902832E-2,-7.653584290E-1,2.052807572E0
2.822018333E0,2.533032532E0,-8.140072632E-1,-1.119372253E0,2.886495431E0
2.831957333E0,3.911815338E0,-2.344125366E0,-1.584754486E0,4.827905317E0
2.841896333E0,6.106551361E0,-5.209766235E0,-1.897454224E0,8.248149264E0
2.851836333E0,9.088200989E0,-9.167236633E0,-2.113155670E0,1.308048361E1
2.861775333E0,1.268567001E1,-1.416594177E1,-2.383343811E0,1.916456255E1
2.871714333E0,1.666694092E1,-2.006876678E1,-2.602188721E0,2.621666848E1
2.881653333E0,2.143886765E1,-2.527553925E1,-2.420316925E0,3.323154923E1
2.891592333E0,2.413356400E1,-2.637530228E1,-1.457070007E0,3.578000188E1
2.901532333E0,2.453996887E1,-2.460089218E1,-7.599696350E-1,3.475617243E1
2.911471333E0,2.738929367E1,-2.496343826E1,-8.556207275E-1,3.706856815E1
2.921410333E0,3.033471863E1,-2.608879807E1,-1.036893768E0,4.002368908E1
2.931349333E0,3.116519165E1,-2.598446503E1,-2.504292297E-1,4.057738666E1
2.941288333E0,2.984179367E1,-2.551040085E1,1.997895355E0,3.931036488E1
2.951228333E0,2.582250183E1,-2.468771164E1,4.840484161E0,3.605156021E1
2.961167333E0,2.014391052E1,-2.295027466E1,6.632258148E0,3.124866535E1
2.971106333E0,1.500629425E1,-2.011966095E1,7.047344971E0,2.607018786E1
2.981045333E0,1.146256348E1,-1.612506775E1,6.986870728E0,2.098152840E1
2.990984333E0,9.228609009E0,-1.146361130E1,6.723418579E0,1.617980116E1
3.000924333E0,8.008945312E0,-7.226522369E0,5.653144226E0,1.217882877E1
3.010863333E0,7.443271637E0,-3.785178680E0,3.496878204E0,9.053067297E0
3.020802333E0,6.943760376E0,-1.324146423E0,2.505789185E-1,7.073327485E0
3.030741333E0,6.030359802E0,3.905378723E-1,-3.511697388E0,6.989261600E0
3.040681333E0,4.702620850E0,1.916614380E0,-7.138206024E0,8.760253351E0
3.050620333E0,2.950214996E0,3.476071472E0,-9.685608673E0,1.070503885E1
3.060559333E0,1.303938446E0,4.814138947E0,-1.079270645E1,1.188943656E1
3.070498333E0,3.706292725E-1,5.576353912E0,-1.030951126E1,1.172685429E1
3.080437333E0,-5.658233643E-2,5.528004456E0,-8.438402252E0,1.008804577E1
3.090377333E0,-9.662406921E-1,4.844525757E0,-6.277944946E0,7.988469417E0
3.100316333E0,-3.034639435E0,3.545077972E0,-5.087171173E0,6.903327087E0
3.110255333E0,-4.385280762E0,2.555186462E0,-4.825365601E0,7.003129186E0
3.120194333E0,-4.182751923E0,2.042502594E0,-4.505031738E0,6.477850064E0
3.130133333E0,-3.569477234E0,1.796863403E0,-3.725452881E0,5.463413309E0
3.140073333E0,-2.997067566E0,1.729204102E0,-2.886447601E0,4.506011604E0
3.150012333E0,-2.319277039E0,1.715881805E0,-2.199376373E0,3.627747618E0
3.159951333E0,-1.532962189E0,1.700014801E0,-1.536105652E0,2.756745177E0
3.169890333E0,-8.268804932E-1,1.635798340E0,-9.030720520E-1,2.043307781E0
3.179829333E0,-2.544708252E-1,1.481319580E0,-3.860472107E-1,1.551803966E0
3.189769333E0,2.007325745E-1,1.434467010E0,-2.439926147E-2,1.448649197E0
3.199708333E0,6.533912659E-1,1.340013428E0,2.291734314E-1,1.508335704E0
3.209647333E0,1.012943573E0,1.259480896E0,3.800596619E-1,1.660359044E0
3.219586333E0,1.441801758E0,1.108295288E0,4.851411438E-1,1.882145766E0
3.229525333E0,1.752555542E0,9.410929871E-1,5.183720398E-1,2.055679087E0
3.239465333E0,2.003583527E0,8.535250854E-1,3.498225403E-1,2.205726146E0
3.249404333E0,2.579735413E0,5.388793945E-1,-5.658233643E-2,2.636024917E0
3.259343333E0,3.825894012E0,-3.345542908E-1,-6.203100586E-1,3.890266846E0
3.269282333E0,5.285059662E0,-1.886227570E0,-1.311123505E0,5.762703785E0
3.279221333E0,7.295828247E0,-4.205504608E0,-2.139351196E0,8.688624883E0
3.289161333E0,9.896819458E0,-7.534282379E0,-3.131637726E0,1.282651945E1
3.299100333E0,1.248074615E1,-1.155776550E1,-4.312082977E0,1.754836253E1
3.309039333E0,1.609198654E1,-1.603540421E1,-5.591771851E0,2.339560068E1
3.318978333E0,2.088307343E1,-2.099069962E1,-6.242019653E0,3.026012286E1
3.328917333E0,2.500565048E1,-2.509426620E1,-6.038742371E0,3.593704442E1
3.338857333E0,2.795152451E1,-2.649669983E1,-5.396128693E0,3.889062906E1
3.348796333E0,3.016212753E1,-2.703063950E1,-4.702171783E0,4.077400923E1
3.358735333E0,3.052721832E1,-2.735935593E1,-4.038751373E0,4.119170946E1
3.368674333E0,2.899081329E1,-2.689532089E1,-2.746189270E0,3.964047296E1
3.378613333E0,2.580319199E1,-2.528856216E1,-3.894900513E-1,3.613125787E1
3.388553333E0,2.147120041E1,-2.264161652E1,2.669099579E0,3.131739673E1
3.398492333E0,1.718935455E1,-1.929263077E1,5.514532471E0,2.642138490E1
3.408431333E0,1.357107880E1,-1.566342773E1,7.689958649E0,2.210548828E1
3.418370333E0,1.115525253E1,-1.196252380E1,9.001980286E0,1.867022453E1
3.428309333E0,9.360634460E0,-8.745862885E0,9.275910645E0,1.581626104E1
3.438249333E0,8.425379333E0,-6.048472137E0,8.343798981E0,1.331127393E1
3.448188333E0,8.694369965E0,-3.970493317E0,6.223757629E0,1.140578999E1
3.458127333E0,8.638087006E0,-2.302661591E0,3.150199127E0,9.478531113E0
3.468066333E0,7.175328827E0,-6.441105652E-1,-3.189866638E-1,7.211239469E0
3.478005333E0,4.736600189E0,1.036295013E0,-3.697910156E0,6.097854396E0
3.487945333E0,1.850002899E0,2.304158478E0,-6.640341339E0,7.268135257E0
3.497884333E0,-8.020321655E-1,3.284170532E0,-8.680299225E0,9.315397271E0
3.507823333E0,-2.686613159E0,3.957171021E0,-9.592801666E0,1.071909215E1
3.517761958E0,-3.831582184E0,4.185596008E0,-9.445957031E0,1.101936206E1
3.527700958E0,-4.393513641E0,4.039799194E0,-8.418343964E0,1.031946969E1
3.537640958E0,-4.347858582E0,3.789369965E0,-6.877448273E0,8.975661186E0
3.547579958E0,-3.947291565E0,3.529210968E0,-5.174888763E0,7.403777041E0
3.557518958E0,-3.379372559E0,3.173251190E0,-3.739074554E0,5.955699835E0
3.567457958E0,-2.434537354E0,2.753673706E0,-2.701132965E0,4.561338652E0
3.577396958E0,-1.212179260E0,2.470013580E0,-2.011367340E0,3.408217162E0
3.587336958E0,-1.239422607E-1,2.305805054E0,-1.570534058E0,2.792610939E0
3.597275958E0,7.656578064E-1,2.103575592E0,-1.260977783E0,2.569304793E0
3.607214958E0,1.603914642E0,1.864522705E0,-1.015488281E0,2.660865188E0
3.617153958E0,2.271825714E0,1.673819275E0,-7.948471069E-1,2.931662491E0
3.627092958E0,2.688858490E0,1.590891724E0,-6.251000977E-1,3.186164871E0
3.637032958E0,2.921624451E0,1.547481995E0,-5.551954651E-1,3.352436720E0
3.646971958E0,2.940485229E0,1.273851013E0,-5.301974487E-1,3.248116242E0
3.656910958E0,2.969075775E0,8.888516235E-1,-5.566923523E-1,3.148868772E0
3.666849958E0,3.142265625E0,5.924679565E-1,-6.923103333E-1,3.271718988E0
3.676788958E0,3.589984589E0,5.478607178E-2,-8.563691711E-1,3.691118938E0
3.686728958E0,4.440066833E0,-1.094673615E0,-1.082399139E0,4.699371416E0
3.696667958E0,5.559439087E0,-2.897674255E0,-1.449136505E0,6.434584343E0
3.706606958E0,7.098239136E0,-5.333858185E0,-1.952689362E0,9.091096617E0
3.716545958E0,8.954678650E0,-8.399183807E0,-2.658022614E0,1.256175316E1
3.726484958E0,1.058508820E1,-1.230291595E1,-3.588936768E0,1.662186212E1
3.736424958E0,1.270587799E1,-1.667352722E1,-4.568350067E0,2.145496837E1
3.746363958E0,1.584305420E1,-2.063294357E1,-5.278024292E0,2.654389322E1
3.756302958E0,1.964574646E1,-2.377895142E1,-5.583988037E0,3.134604930E1
3.766241958E0,2.314741470E1,-2.569781113E1,-5.423072662E0,3.500842786E1
3.776180958E0,2.568344101E1,-2.657543610E1,-4.973407745E0,3.729112133E1
3.786120958E0,2.679742447E1,-2.680056793E1,-4.305496674E0,3.814327859E1
3.796059958E0,2.625674881E1,-2.579391129E1,-3.217409363E0,3.694718447E1
3.805998958E0,2.468651413E1,-2.381218231E1,-1.215322723E0,3.432085395E1
3.815937958E0,2.245630188E1,-2.131507507E1,1.138382721E0,3.098247625E1
3.825876958E0,2.000215530E1,-1.848386261E1,3.071163483E0,2.740750698E1
3.835816958E0,1.768257889E1,-1.558334427E1,4.224964142E0,2.394503157E1
3.845755958E0,1.557361450E1,-1.279030243E1,4.472249908E0,2.064292431E1
3.855694958E0,1.351434677E1,-1.021266266E1,3.793710938E0,1.735881015E1
3.865633958E0,1.111573471E1,-7.787406006E0,2.482886810E0,1.379739024E1
3.875572958E0,8.722810822E0,-5.353018341E0,7.738906860E-1,1.026358323E1
3.885512958E0,6.702013092E0,-3.013084259E0,-9.122030640E-1,7.404577683E0
3.895451958E0,4.954846344E0,-1.106349335E0,-2.371518402E0,5.603446321E0
3.905390958E0,3.401676178E0,1.607656860E-1,-3.671115875E0,5.007428302E0
3.915329958E0,2.086810455E0,1.131796417E0,-4.687801666E0,5.254638472E0
3.925268958E0,8.595126343E-1,2.269879761E0,-5.292843475E0,5.822826474E0
3.935208958E0,-2.841091919E-1,3.463347931E0,-5.360951843E0,6.388685435E0
3.945147958E0,-1.070573730E0,4.307592316E0,-4.887636108E0,6.602307657E0
3.955086958E0,-1.523082733E0,4.514911194E0,-4.267625427E0,6.396626524E0
3.965025958E0,-2.159409485E0,4.278552704E0,-3.891457672E0,6.173532650E0
3.974964958E0,-2.868035889E0,3.917802887E0,-3.831133118E0,6.184851679E0
3.984904958E0,-3.234773254E0,3.503763885E0,-3.873495026E0,6.143621333E0
3.994843958E0,-3.300486603E0,3.051853638E0,-3.912414093E0,5.959362925E0
4.004782958E0,-3.196602631E0,2.646496582E0,-3.918251953E0,5.707443465E0
4.014721958E0,-2.889740753E0,2.331252136E0,-3.774550781E0,5.294579468E0
4.024660958E0,-2.189496918E0,2.059716797E0,-3.619622955E0,4.705103652E0
4.034600958E0,-1.373693390E0,1.712139587E0,-3.328029327E0,3.986757417E0
4.044539958E0,-5.346881104E-1,1.501078491E0,-2.712060242E0,3.145536324E0
4.054478958E0,1.860630798E-1,1.438658295E0,-2.049088898E0,2.510602013E0
4.064417958E0,7.740403748E-1,1.387015686E0,-1.611249390E0,2.262537427E0
4.074356958E0,1.415456543E0,1.276395721E0,-1.300794983E0,2.307546500E0
4.084296958E0,1.954485626E0,1.075812836E0,-1.022673340E0,2.454230649E0
4.094235958E0,2.355501709E0,7.982899475E-1,-7.173083496E-1,2.588471829E0
4.104174958E0,2.648292847E0,4.607418823E-1,-4.005670166E-1,2.717754959E0
4.114113958E0,3.096909943E0,-1.751358032E-2,-1.755848694E-1,3.101932940E0
4.124052958E0,3.945046234E0,-1.159339142E0,1.511856079E-2,4.111895622E0
4.133992958E0,5.082680511E0,-3.125500488E0,1.311273193E-1,5.968214880E0
4.143931958E0,6.710395660E0,-5.765111389E0,1.263372803E-1,8.847704807E0
4.153870958E0,8.926387482E0,-9.098828888E0,9.011260986E-2,1.274665450E1
4.163809958E0,1.118953125E1,-1.311273193E1,-2.121089172E-1,1.723932535E1
4.173748958E0,1.377136230E1,-1.745310608E1,-1.062939606E0,2.225738467E1
4.183688958E0,1.698188599E1,-2.199915253E1,-2.035467224E0,2.786557536E1
4.193627958E0,2.028431854E1,-2.580588638E1,-2.589465179E0,3.292571458E1
4.203566958E0,2.310669937E1,-2.692944992E1,-2.776576080E0,3.559247397E1
4.213505958E0,2.624357620E1,-2.618789200E1,-3.433410187E0,3.723330881E1
4.223444958E0,2.897599411E1,-2.520877808E1,-4.855902100E0,3.871266604E1
4.233383958E0,3.031466034E1,-2.413685715E1,-6.241420898E0,3.924948203E1
4.243323958E0,3.011961594E1,-2.247381546E1,-6.255192261E0,3.809712687E1
4.253262958E0,2.825284790E1,-2.010229706E1,-4.320914612E0,3.494275411E1
4.263201958E0,2.554318268E1,-1.705149124E1,-1.503323822E0,3.074845553E1
4.273140958E0,2.257964539E1,-1.377091324E1,8.382568359E-1,2.646093558E1
4.283079958E0,1.957419525E1,-1.062535446E1,2.421664124E0,2.240338667E1
4.293019958E0,1.656679916E1,-7.720046082E0,2.729573822E0,1.847994911E1
4.302958958E0,1.396595764E1,-5.398823090E0,1.827399902E0,1.508425185E1
4.312897958E0,1.133996841E1,-4.003275146E0,2.065704346E-2,1.202586888E1
4.322836958E0,8.424032135E0,-3.162623291E0,-2.454445953E0,9.326886320E0
4.332775958E0,5.572761383E0,-2.115700378E0,-4.715344391E0,7.600416452E0
4.342715958E0,3.069516907E0,-8.674461365E-1,-6.212830353E0,6.983813989E0
4.352654958E0,7.283853149E-1,2.636018372E-1,-6.957831116E0,7.000817447E0
4.362593958E0,-1.401834869E0,1.063089294E0,-7.193291473E0,7.405318499E0
4.372532958E0,-3.101101227E0,1.636397095E0,-6.911427612E0,7.749997156E0
4.382471958E0,-4.342918854E0,1.915267181E0,-5.962850189E0,7.621336820E0
4.392411958E0,-5.164709930E0,1.999691620E0,-4.581822052E0,7.187912670E0
4.402350958E0,-5.800886993E0,2.093396759E0,-3.275039520E0,6.982727530E0
4.412289958E0,-6.517446899E0,2.065854034E0,-2.392325134E0,7.243485799E0
4.422228958E0,-6.887327728E0,1.896855469E0,-1.980830841E0,7.413301203E0
4.432167958E0,-6.713389435E0,1.699266357E0,-1.818867645E0,7.159984872E0
4.442107958E0,-6.153254242E0,1.522783356E0,-1.755399628E0,6.577448956E0
4.452046958E0,-5.284610596E0,1.354233856E0,-1.676962738E0,5.707299056E0
4.461985958E0,-4.252207489E0,1.195713501E0,-1.502874756E0,4.665793806E0
4.471924958E0,-3.091072083E0,1.063388672E0,-1.267713776E0,3.506083328E0
4.481863958E0,-1.846560059E0,1.055754547E0,-1.127754822E0,2.407536636E0
4.491803958E0,-8.419990540E-1,1.047222290E0,-1.176553345E0,1.786033232E0
4.501742958E0,-4.026626587E-2,1.028960266E0,-1.375938721E0,1.718600583E0
4.511685292E0,8.068222046E-1,1.063538361E0,-1.618733826E0,2.098183765E0
4.521624292E0,1.647623749E0,1.139580231E0,-1.897603912E0,2.759385390E0
4.531563292E0,2.267335052E0,1.178199921E0,-2.086960144E0,3.299146244E0
4.541503292E0,2.731070709E0,1.056053925E0,-2.158062286E0,3.637475765E0
4.551442292E0,3.229534149E0,4.670288086E-1,-2.109263763E0,3.885485858E0
4.561381292E0,3.993994446E0,-7.845185852E-1,-1.963317261E0,4.519079078E0
4.571320292E0,5.194797363E0,-2.703228607E0,-1.768272858E0,6.117201439E0
4.581259292E0,7.029082947E0,-5.050647125E0,-1.662293243E0,8.813640694E0
4.591199292E0,9.473200378E0,-7.858059082E0,-1.845212860E0,1.244569919E1
4.601138292E0,1.192240723E1,-1.091066116E1,-2.525697784E0,1.635742860E1
4.611077292E0,1.516182083E1,-1.368753662E1,-3.563489685E0,2.073470348E1
4.621016292E0,1.936897202E1,-1.597298401E1,-5.031636658E0,2.560489528E1
4.630955292E0,2.334889572E1,-1.785472092E1,-6.966363373E0,3.020748598E1
4.640894292E0,2.590782440E1,-1.921344543E1,-8.897647247E0,3.345952745E1
4.650834292E0,2.784030579E1,-2.049328400E1,-1.028526169E1,3.606721397E1
4.660773292E0,2.972338989E1,-2.272783722E1,-1.079839462E1,3.894406011E1
4.670712292E0,3.059757202E1,-2.400468201E1,-1.040845551E1,4.025881416E1
4.680651292E0,2.994627640E1,-2.253922943E1,-9.171727295E0,3.858648617E1
4.690590292E0,2.835059464E1,-1.922078018E1,-7.479346619E0,3.505902498E1
4.700530292E0,2.636108185E1,-1.570908279E1,-5.613027649E0,3.119596124E1
4.710469292E0,2.398597092E1,-1.264615219E1,-3.585194550E0,2.735151890E1
4.720408292E0,2.117526581E1,-9.505383453E0,-1.607507172E0,2.326646247E1
4.730347292E0,1.792163177E1,-6.204148407E0,-9.220825195E-2,1.896535909E1
4.740286292E0,1.449914886E1,-3.083737335E0,7.497908020E-1,1.484240344E1
4.750226292E0,1.156405243E1,-8.538244629E-1,6.813830566E-1,1.161553303E1
4.760165292E0,9.212592316E0,-1.017883301E-1,-2.806663513E-1,9.217428689E0
4.770104292E0,6.951095123E0,-1.101708984E-1,-1.700912933E0,7.157022135E0
4.780043292E0,4.414769440E0,1.841171265E-2,-3.017125854E0,5.347296197E0
4.789982292E0,1.859433289E0,4.644841003E-1,-3.826193390E0,4.279368352E0
4.799922292E0,-7.099736023E-1,7.749385071E-1,-4.242178345E0,4.370431250E0
4.809861292E0,-3.280877380E0,5.203179932E-1,-4.371359711E0,5.490325393E0
4.819800292E0,-5.383554840E0,1.496887207E-3,-4.235292664E0,6.849844444E0
4.829739292E0,-6.862479401E0,-2.356100464E-1,-3.775748291E0,7.836160461E0
4.839678292E0,-7.881410522E0,-1.402583313E-1,-3.112028503E0,8.474728646E0
4.849618292E0,-8.348738708E0,-1.691482544E-1,-2.404150543E0,8.689648381E0
4.859557292E0,-8.264463959E0,-1.865121460E-1,-1.746118927E0,8.448969323E0
4.869496292E0,-7.825576630E0,-1.329235840E-1,-1.288221130E0,7.932013108E0
4.879435292E0,-6.916217651E0,2.185455322E-2,-1.118324432E0,7.006082626E0
4.889374292E0,-5.678441620E0,4.167333984E-1,-1.229692841E0,5.824990166E0
4.899313292E0,-4.433031464E0,8.207432556E-1,-1.348096619E0,4.705608562E0
4.909253292E0,-3.197650452E0,1.025068359E0,-1.383273468E0,3.631690934E0
4.919192292E0,-1.916015625E0,1.160836029E0,-1.420246582E0,2.652500050E0
4.929131292E0,-7.731422424E-1,1.275048523E0,-1.500479736E0,2.115404714E0
4.939070292E0,2.893482971E-1,1.428030396E0,-1.582808533E0,2.151342859E0
4.949009292E0,1.184337158E0,1.609004059E0,-1.652563477E0,2.592781250E0
4.958949292E0,1.786983948E0,1.689536591E0,-1.647324371E0,2.959987011E0
4.968888292E0,2.119292908E0,1.683249664E0,-1.595232697E0,3.141575913E0
4.978827292E0,2.324067078E0,1.603166199E0,-1.560953979E0,3.226144288E0
4.988766292E0,2.615361328E0,1.423240356E0,-1.513352966E0,3.340054669E0
4.998705292E0,3.102149048E0,9.129515076E-1,-1.431323547E0,3.536311110E0
5.008645292E0,4.047732697E0,-1.522334290E-1,-1.306632843E0,4.256125513E0
5.018584292E0,5.429359589E0,-1.783990173E0,-1.318009186E0,5.864956496E0
5.028523292E0,7.595804443E0,-4.110751648E0,-1.582060089E0,8.780514699E0
5.038462292E0,1.044767395E1,-7.096742249E0,-2.188898163E0,1.281830397E1
5.048401292E0,1.338741074E1,-1.042432251E1,-3.267405396E0,1.727903944E1
5.058341292E0,1.662697403E1,-1.428599213E1,-4.725822601E0,2.242496902E1
5.068280292E0,2.079400864E1,-1.863220413E1,-6.558611298E0,2.868039763E1
5.078219292E0,2.617876099E1,-2.380305130E1,-8.614735565E0,3.641601910E1
5.088158292E0,3.232947052E1,-2.950394623E1,-1.039648041E1,4.498626804E1
5.098097292E0,3.585942993E1,-3.238425659E1,-1.085078568E1,4.952149372E1
5.108036292E0,3.421165649E1,-3.089515320E1,-9.224118347E0,4.701098053E1
5.117976292E0,3.025837738E1,-2.728271530E1,-5.484894104E0,4.110960982E1
5.127915292E0,2.669653427E1,-2.302661591E1,-7.753875732E-1,3.526373786E1
5.137854292E0,2.359887589E1,-1.844344666E1,3.721261597E0,3.018137597E1
5.147793292E0,2.022504181E1,-1.366568207E1,7.248077545E0,2.546247849E1
5.157732292E0,1.656185944E1,-8.991801453E0,9.404792633E0,2.106176170E1
5.167672292E0,1.357332413E1,-5.985902252E0,9.265133057E0,1.749024998E1
5.177611292E0,1.163994461E1,-4.439318390E0,7.092850342E0,1.433542411E1
5.187550292E0,1.037687119E1,-3.773502960E0,3.069816284E0,1.146047783E1
5.197489292E0,8.555907898E0,-3.043171692E0,-2.250120850E0,9.355613168E0
5.207428292E0,5.825136566E0,-1.519939270E0,-7.825576630E0,9.873301423E0
5.217368292E0,3.439697113E0,6.547384644E-1,-1.218541031E1,1.267850240E1
5.227307292E0,1.523382111E0,2.430196381E0,-1.408256516E1,1.437168010E1
5.237246292E0,4.586462402E-1,3.884422302E0,-1.366179016E1,1.421068624E1
5.247185292E0,-1.100212097E-1,4.962181091E0,-1.236159393E1,1.332082394E1
5.257124292E0,-1.752854919E-1,5.713019714E0,-1.171583679E1,1.303572595E1
5.267064292E0,6.331832886E-1,6.679260406E0,-1.127200974E1,1.311760817E1
5.277003292E0,2.405497742E-1,6.149961090E0,-8.858728180E0,1.078688790E1
5.286942292E0,-4.992118835E-1,4.727768555E0,-4.659510498E0,6.656729384E0
5.296881292E0,-7.530839539E-1,4.192182312E0,-5.266049194E-1,4.291717689E0
5.306820292E0,-1.262474670E0,3.694617004E0,2.185305634E0,4.474326521E0
5.316759292E0,-1.490749969E0,3.344495087E0,3.487148438E0,5.056499489E0
5.326699292E0,-1.154100037E0,3.218906250E0,3.724105682E0,5.055914109E0
5.336638292E0,-3.385958862E-1,2.847977600E0,2.996917877E0,4.148149027E0
5.346577292E0,1.564247131E-1,2.314636688E0,1.666035461E0,2.856166285E0
5.356516292E0,8.472381592E-2,1.828447723E0,5.474116516E-1,1.910512685E0
5.366455292E0,-3.305126953E-1,1.332678680E0,-7.469467163E-2,1.375081962E0
5.376395292E0,-5.245092773E-1,1.119072876E0,-3.552113342E-1,1.285927360E0
5.386334292E0,-2.010319519E-1,1.097368011E0,-4.391867065E-1,1.198964287E0
5.396273292E0,3.287164307E-1,1.126707001E0,-4.099974060E-1,1.243230079E0
5.406212292E0,9.469308472E-1,1.149160309E0,-3.737727356E-1,1.535237279E0
5.416151292E0,1.716779938E0,1.167122955E0,-4.008663940E-1,2.114285509E0
5.426091292E0,2.713108063E0,1.318907318E0,-5.263055420E-1,3.062265403E0
5.436030292E0,3.842808838E0,1.545086975E0,-7.996371460E-1,4.218280822E0
5.445969292E0,4.914280701E0,1.409468994E0,-1.183588715E0,5.247631837E0
5.455908292E0,6.023174744E0,3.915856934E-1,-1.809586945E0,6.301315597E0
5.465847292E0,7.223378906E0,-1.742825775E0,-2.617007904E0,7.878031155E0
5.475786292E0,8.859326935E0,-5.215604095E0,-3.369942169E0,1.081881278E1
5.485726292E0,1.085527634E1,-9.686357117E0,-4.125121765E0,1.512214165E1
5.495665292E0,1.333561844E1,-1.424018738E1,-4.802014160E0,2.009181415E1
5.505604292E0,1.729129257E1,-1.911988998E1,-5.394182739E0,2.633735369E1
5.515540333E0,2.372820694E1,-2.517988815E1,-5.442232819E0,3.502388428E1
5.525479333E0,3.204431351E1,-3.099170242E1,-4.952900391E0,4.485370519E1
5.535419333E0,3.840907791E1,-3.320978989E1,-3.828738098E0,5.091960964E1
5.545358333E0,3.978756134E1,-3.190106140E1,-1.447340240E0,5.101786501E1
5.555297333E0,3.832824600E1,-2.829999985E1,1.953886871E0,4.768398166E1
5.565236333E0,3.658886307E1,-2.377700546E1,6.141578522E0,4.406597186E1
5.575175333E0,3.375076492E1,-1.880299896E1,9.826465759E0,3.986510168E1
5.585115333E0,2.920546692E1,-1.416160080E1,1.170745422E1,3.450470576E1
5.595054333E0,2.383029465E1,-1.087368805E1,1.144130768E1,2.858362392E1
5.604993333E0,1.787986862E1,-9.561067657E0,9.082961884E0,2.221719859E1
5.614932333E0,1.086695206E1,-9.638157349E0,5.273683319E0,1.545304047E1
5.624871333E0,3.763174438E0,-8.996142426E0,-4.640350342E-3,9.751516904E0
5.634811333E0,-2.524200897E0,-7.344327393E0,-6.349346466E0,1.003119811E1
5.644750333E0,-5.482199707E0,-4.638853455E0,-1.202329742E1,1.400475476E1
5.654689333E0,-4.244273987E0,-1.776805115E0,-1.534683609E1,1.602174385E1
5.664628333E0,-1.788929901E0,1.597178650E-1,-1.551643341E1,1.562003476E1
5.674567333E0,-3.849993896E-1,1.732048187E0,-1.284942947E1,1.297135510E1
5.684506333E0,-5.287005615E-1,3.335813141E0,-9.323661346E0,9.916543475E0
5.694446333E0,-1.425485687E0,4.386777649E0,-6.726562042E0,8.156130485E0
5.704385333E0,-1.939666443E0,4.634961548E0,-5.217999115E0,7.243803505E0
5.714324333E0,-2.248324585E0,4.321513367E0,-4.730462952E0,6.790266634E0
5.724263333E0,-2.621049500E0,3.658092957E0,-4.683460693E0,6.495101895E0
5.734202333E0,-2.897823944E0,3.008144531E0,-4.435725861E0,6.092781060E0
5.744142333E0,-3.099903717E0,2.522704010E0,-3.844006348E0,5.545252328E0
5.754081333E0,-3.225642242E0,2.109563141E0,-3.080294495E0,4.933886774E0
5.764020333E0,-3.050356750E0,1.835632782E0,-2.262245636E0,4.218053975E0
5.773959333E0,-2.708318024E0,1.625170441E0,-1.557211761E0,3.521515860E0
5.783898333E0,-2.261347504E0,1.357976074E0,-1.033899994E0,2.833150322E0
5.793838333E0,-1.759141846E0,1.088536377E0,-6.951544189E-1,2.182368242E0
5.803777333E0,-1.139280853E0,8.111631775E-1,-4.960684204E-1,1.483924001E0
5.813716333E0,-4.218228149E-1,5.170248413E-1,-3.399430847E-1,7.488728027E-1
5.823655333E0,-2.544708252E-2,4.881349182E-1,-2.788700867E-1,5.627537451E-1
5.833594333E0,1.844165039E-1,6.268963623E-1,-2.980302429E-1,7.182134235E-1
5.843533333E0,4.695735168E-1,5.164260864E-1,-4.246669006E-1,8.170294774E-1
5.853473333E0,7.342231750E-1,3.312611389E-1,-6.661148071E-1,1.045239948E0
5.863412333E0,1.110390930E0,1.043330383E-1,-9.547146606E-1,1.468105406E0
5.873351333E0,1.601669312E0,-2.659968567E-1,-1.338815918E0,2.104406561E0
5.883290333E0,2.517913971E0,-1.248104553E0,-1.749262390E0,3.310222749E0
5.893229333E0,4.208947449E0,-3.363206177E0,-2.134710846E0,5.795117325E0
5.903169333E0,6.708300018E0,-6.828949127E0,-2.548001404E0,9.905965196E0
5.913108333E0,1.003617966E1,-1.182570831E1,-3.282823334E0,1.585399660E1
5.923047333E0,1.352168152E1,-1.791190201E1,-3.964056702E0,2.279003840E1
5.932986333E0,1.772239609E1,-2.374631927E1,-4.294419708E0,2.994015770E1
5.942925333E0,2.180575470E1,-2.798460571E1,-3.668421478E0,3.566632040E1
5.952864333E0,2.376922165E1,-2.841361359E1,-2.006427612E0,3.709899037E1
5.962804333E0,2.548330719E1,-2.689726685E1,7.634124756E-3,3.705215199E1
5.972743333E0,2.854189682E1,-2.679383194E1,1.454824677E0,3.917481103E1
5.982682333E0,3.039594131E1,-2.670791061E1,2.479593658E0,4.053855107E1
5.992621333E0,3.147265228E1,-2.429762283E1,3.965703278E0,3.995784178E1
6.002560333E0,3.132206543E1,-2.068698120E1,6.468498688E0,3.809021461E1
6.012500333E0,2.944107697E1,-1.704655151E1,9.294472046E0,3.526682778E1
6.022439333E0,2.643787216E1,-1.376941635E1,1.109313171E1,3.180590326E1
6.032378333E0,2.294009583E1,-1.139864639E1,1.068433182E1,2.775485692E1
6.042317333E0,1.976220428E1,-9.688752136E0,8.346493378E0,2.353891645E1
6.052256333E0,1.676079575E1,-8.662336578E0,4.984484711E0,1.951423677E1
6.062196333E0,1.290945465E1,-8.616831207E0,6.081852722E-1,1.553298712E1
6.072135333E0,8.742420044E0,-8.201744385E0,-4.318070526E0,1.274143839E1
6.082074333E0,4.750820618E0,-6.619085541E0,-9.640552368E0,1.262231516E1
6.092013333E0,1.939067688E0,-3.985013123E0,-1.455453369E1,1.521429473E1
6.101952333E0,6.926097107E-1,-4.860392761E-1,-1.665825897E1,1.667973424E1
6.111891333E0,3.411405945E-1,2.285447388E0,-1.649988831E1,1.666091116E1
6.121831333E0,-3.734733582E-1,3.705843658E0,-1.466500397E1,1.513060147E1
6.131770333E0,-1.083446960E0,4.351600800E0,-1.121452927E1,1.207791180E1
6.141709333E0,-2.204016724E0,4.343816986E0,-8.422834625E0,9.729880721E0
6.151648333E0,-4.005819855E0,3.707490234E0,-6.389313354E0,8.403297072E0
6.161587333E0,-5.410049744E0,2.903811493E0,-4.754562836E0,7.765734168E0
6.171527333E0,-6.150410156E0,2.149979095E0,-3.446283417E0,7.370673279E0
6.181466333E0,-6.396049347E0,1.527423706E0,-2.382295990E0,6.994126437E0
6.191405333E0,-6.300697632E0,1.022823029E0,-1.559307404E0,6.570874917E0
6.201344333E0,-6.123466187E0,5.403762817E-1,-1.157393188E0,6.255270071E0
6.211283333E0,-5.814658356E0,3.225791931E-1,-1.291065216E0,5.964994428E0
6.221222333E0,-4.933440857E0,6.140231323E-1,-1.457219696E0,5.180671032E0
6.231162333E0,-3.929478607E0,8.162525940E-1,-1.478475494E0,4.277027029E0
6.241101333E0,-2.997816010E0,6.066883850E-1,-1.302291870E0,3.324294773E0
6.251040333E0,-1.722917175E0,5.746549988E-1,-8.402027893E-1,2.001152840E0
6.260979333E0,-4.998106384E-1,7.304809570E-1,-1.830693054E-1,9.038404026E-1
6.270918333E0,6.480024719E-1,7.589218140E-1,1.499880981E-1,1.009141196E0
6.280858333E0,1.565444641E0,8.274792480E-1,1.432521057E-1,1.776474035E0
6.290797333E0,2.150428162E0,9.776170349E-1,-7.244934082E-2,2.363329273E0
6.300736333E0,2.941682739E0,1.039887543E0,-4.361929321E-1,3.150417070E0
6.310675333E0,3.839815063E0,7.194039917E-1,-1.080602875E0,4.053322637E0
6.320614333E0,4.980443115E0,-4.023632813E-1,-1.935475159E0,5.358430173E0
6.330553333E0,6.653364258E0,-2.652184753E0,-2.840942230E0,7.705341827E0
6.340493333E0,9.173822937E0,-6.107299805E0,-3.768263855E0,1.164722931E1
6.350432333E0,1.247236359E1,-1.078058167E1,-4.386927338E0,1.705948199E1
6.360371333E0,1.555595123E1,-1.606519226E1,-4.615052948E0,2.283367546E1
6.370310333E0,1.928559540E1,-2.013343231E1,-4.212839355E0,2.819640583E1
6.380249333E0,2.391262344E1,-2.202894058E1,-3.235821075E0,3.267351100E1
6.390189333E0,2.904470123E1,-2.202205490E1,-2.582130432E0,3.654083975E1
6.400128333E0,3.488854889E1,-2.229763184E1,-2.549797668E0,4.148369194E1
6.410067333E0,3.955509476E1,-2.390334274E1,-2.646047516E0,4.629229831E1
6.420006333E0,4.033512268E1,-2.399585037E1,-2.723735962E0,4.701214412E1
6.429945333E0,3.788456863E1,-2.128139511E1,-2.427801361E0,4.352048412E1
6.439884333E0,3.356290558E1,-1.815185303E1,-1.175505524E0,3.817512557E1
6.449824333E0,2.880744461E1,-1.541808792E1,6.671626282E-1,3.268074978E1
6.459763333E0,2.411350571E1,-1.323323135E1,2.229164429E0,2.759617263E1
6.469702333E0,1.992895752E1,-1.121991806E1,3.545227661E0,2.314343424E1
6.479641333E0,1.630873581E1,-8.939709778E0,4.464915161E0,1.912665005E1
6.489580333E0,1.290002426E1,-6.609355774E0,4.492457886E0,1.517486038E1
6.499520333E0,9.562714233E0,-4.456981659E0,3.652255096E0,1.116463866E1
6.509459333E0,6.400240631E0,-2.655178528E0,2.253713379E0,7.286444753E0
6.519398042E0,3.348087616E0,-1.108594666E0,5.695655823E-1,3.572544999E0
6.529337042E0,6.971003723E-1,1.258882141E-1,-1.256038055E0,1.442022319E0
6.539276042E0,-1.823507996E0,3.957769775E-1,-3.189118195E0,3.694901309E0
6.549215042E0,-4.663701782E0,4.593946838E-1,-5.211712189E0,7.008787465E0
6.559155042E0,-6.596931610E0,8.068222046E-1,-6.853947144E0,9.547096951E0
6.569094042E0,-7.430248718E0,1.019529877E0,-7.592062225E0,1.067180613E1
6.579033042E0,-7.844138031E0,9.627978516E-1,-7.567812653E0,1.094208707E1
6.588972042E0,-7.749834137E0,8.608598328E-1,-6.905889130E0,1.041596436E1
6.598911042E0,-6.935078430E0,1.014440460E0,-5.905220032E0,9.164934583E0
6.608851042E0,-5.833968201E0,1.084644470E0,-5.207670593E0,7.895028284E0
6.618790042E0,-4.660857697E0,1.072070618E0,-4.861590271E0,6.819676667E0
6.628729042E0,-3.623514862E0,1.156195679E0,-4.632716217E0,5.994056052E0
6.638668042E0,-2.620301056E0,1.337169342E0,-4.460424500E0,5.343162564E0
6.648607042E0,-1.469494171E0,1.523232422E0,-4.145030365E0,4.654130086E0
6.658547042E0,-1.799258423E-1,1.590442657E0,-3.799099731E0,4.122504084E0
6.668486042E0,8.743318176E-1,1.575473785E0,-3.516487427E0,3.951234946E0
6.678425042E0,1.489253082E0,1.540596313E0,-3.327280884E0,3.957538354E0
6.688364042E0,1.810634766E0,1.517544250E0,-3.182980957E0,3.963925653E0
6.698303042E0,1.933678894E0,1.413809967E0,-2.960244141E0,3.808020228E0
6.708242042E0,2.093097382E0,1.246308289E0,-2.611768799E0,3.571509101E0
6.718182042E0,2.274669800E0,1.056203613E0,-2.184407501E0,3.325857018E0
6.728121042E0,2.418670349E0,8.054750061E-1,-1.717079315E0,3.073616375E0
6.738060042E0,2.661016388E0,4.465214539E-1,-1.286724243E0,2.989322482E0
6.747999042E0,3.253783722E0,-1.431024170E-1,-1.039438477E0,3.418774511E0
6.757938042E0,4.142036591E0,-1.298699341E0,-9.650431824E-1,4.446841063E0
6.767877042E0,5.390590210E0,-3.146307220E0,-1.085392914E0,6.335281345E0
6.777817042E0,7.150929565E0,-5.980812836E0,-1.317560120E0,9.414981704E0
6.787756042E0,9.373807068E0,-9.852511597E0,-1.719773712E0,1.370758423E1
6.797695042E0,1.164368683E1,-1.456980194E1,-2.127825165E0,1.877184625E1
6.807634042E0,1.394799500E1,-1.925850174E1,-2.048340454E0,2.386696781E1
6.817573042E0,1.689072556E1,-2.362581985E1,-1.172062683E0,2.906629843E1
6.827513042E0,2.078218323E1,-2.751533157E1,1.496887207E-2,3.448177541E1
6.837452042E0,2.538990143E1,-3.084874969E1,1.013542328E0,3.996648246E1
6.847391042E0,2.877750687E1,-3.247631516E1,1.747017059E0,4.342704245E1
6.857330042E0,2.915367462E1,-3.106385239E1,2.128274231E0,4.265476785E1
6.867269042E0,2.819117615E1,-2.817007004E1,2.794239349E0,3.995125820E1
6.877208042E0,2.722254044E1,-2.467678436E1,4.209695892E0,3.698286000E1
6.887148042E0,2.652828415E1,-2.097737732E1,5.669759674E0,3.429207480E1
6.897087042E0,2.582205276E1,-1.746478180E1,6.602769470E0,3.186524089E1
6.907026042E0,2.486584122E1,-1.445783478E1,6.457870789E0,2.947953767E1
6.916965042E0,2.348481308E1,-1.165790726E1,5.225483551E0,2.673478867E1
6.926904042E0,2.097363510E1,-8.887767792E0,3.274590454E0,2.301322942E1
6.936844042E0,1.721105942E1,-6.507567444E0,8.692424011E-1,1.842076499E1
6.946783042E0,1.288370819E1,-4.775818634E0,-1.891017609E0,1.386990728E1
6.956722042E0,8.189918976E0,-3.555705872E0,-5.035229187E0,1.025043170E1
6.966661042E0,3.448379059E0,-2.517015839E0,-8.831185455E0,9.809002162E0
6.976600042E0,8.457412720E-2,-7.366181946E-1,-1.319595886E1,1.321677303E1
6.986539042E0,-1.231638794E0,1.759291534E0,-1.812026871E1,1.824708686E1
6.996479042E0,-1.195563812E0,3.470532990E0,-2.160172897E1,2.191138213E1
7.006418042E0,-1.255139923E0,3.553310852E0,-1.859987137E1,1.897779253E1
7.016357042E0,-1.973196716E0,4.008364563E0,-1.283850220E1,1.359366141E1
7.026296042E0,-2.653531952E0,4.560865631E0,-8.720715179E0,1.019282102E1
7.036235042E0,-3.316054230E0,4.022584991E0,-6.246210938E0,8.135880822E0
7.046175042E0,-3.475772095E0,3.185076599E0,-4.758754120E0,6.698615183E0
7.056114042E0,-3.154390411E0,2.557880859E0,-3.959416351E0,5.671852537E0
7.066053042E0,-2.855312347E0,2.086810455E0,-3.577111359E0,5.030239771E0
7.075992042E0,-2.499502258E0,1.862576752E0,-3.238515472E0,4.494962309E0
7.085931042E0,-1.982327728E0,1.832639008E0,-2.736908569E0,3.844327961E0
7.095870042E0,-1.185684357E0,1.839524689E0,-2.229014740E0,3.123812604E0
7.105810042E0,-2.658471680E-1,1.711989899E0,-2.018402710E0,2.659987524E0
7.115749042E0,4.580474854E-1,1.498084717E0,-2.134112091E0,2.647357123E0
7.125688042E0,7.135661316E-1,1.337019653E0,-2.248623962E0,2.711661465E0
7.135627042E0,5.569917297E-1,1.315165100E0,-2.125430145E0,2.560732772E0
7.145566042E0,5.683680725E-1,1.307980042E0,-1.719624023E0,2.234045845E0
7.155506042E0,9.550140381E-1,1.159339142E0,-1.217118988E0,1.933260895E0
7.165445042E0,1.401385803E0,8.249345398E-1,-9.726773071E-1,1.894861554E0
7.175384042E0,1.738784180E0,4.788542175E-1,-6.105802917E-1,1.904069347E0
7.185323042E0,1.989812164E0,2.246827698E-1,7.065307617E-2,2.003703235E0
7.195262042E0,2.711611176E0,-2.583627319E-1,8.919950867E-1,2.866224294E0
7.205201042E0,4.225413208E0,-1.456471252E0,1.609153748E0,4.750242212E0
7.215141042E0,6.518045654E0,-3.784130859E0,1.878144379E0,7.767367110E0
7.225080042E0,9.495953064E0,-7.356152802E0,1.778900757E0,1.214292372E1
7.235019042E0,1.266426453E1,-1.208856171E1,1.858684845E0,1.760601117E1
7.244958042E0,1.508892242E1,-1.693114151E1,2.423610077E0,2.280817876E1
7.254897042E0,1.790621384E1,-2.093232101E1,3.169359283E0,2.772795332E1
7.264836042E0,2.221051300E1,-2.348810623E1,3.752097473E0,3.254345184E1
7.274776042E0,2.748389694E1,-2.477423172E1,3.977528687E0,3.721488792E1
7.284715042E0,3.276311874E1,-2.539753555E1,3.535797272E0,4.160479088E1
7.294654042E0,3.576108444E1,-2.488021133E1,2.662513275E0,4.364595117E1
7.304593042E0,3.474125519E1,-2.293770081E1,1.725162506E0,4.166616272E1
7.314532042E0,3.164464462E1,-2.131387756E1,1.491797791E0,3.818233061E1
7.324471042E0,2.736489441E1,-1.996054184E1,2.671195221E0,3.397640299E1
7.334411042E0,2.327794327E1,-1.784199738E1,4.496200104E0,2.967179348E1
7.344350042E0,1.977867004E1,-1.522139694E1,5.930966492E0,2.565274015E1
7.354289042E0,1.665481613E1,-1.203856567E1,6.249504089E0,2.147943820E1
7.364228042E0,1.357571915E1,-8.594976654E0,5.705385590E0,1.705066564E1
7.374167042E0,1.074375824E1,-5.881269836E0,4.465364227E0,1.303676163E1
7.384107042E0,8.382867737E0,-4.018393707E0,2.686164093E0,9.676540550E0
7.394046042E0,6.416856079E0,-3.061882782E0,3.561094666E-1,7.118846962E0
7.403985042E0,4.358037415E0,-2.862647095E0,-2.432441711E0,5.753608535E0
7.413924042E0,2.238894196E0,-2.753973083E0,-5.697901154E0,6.712904924E0
7.423863042E0,8.277786255E-2,-2.147584076E0,-8.956325226E0,9.210577131E0
7.433802042E0,-1.939217377E0,-9.720785522E-1,-1.157408157E1,1.177560466E1
7.443742042E0,-3.306474152E0,4.854405212E-1,-1.306662781E1,1.348722307E1
7.453681042E0,-3.836671600E0,1.696422272E0,-1.304911423E1,1.370683332E1
7.463620042E0,-3.622317352E0,2.388732605E0,-1.181552948E1,1.258705539E1
7.473559042E0,-3.020718384E0,2.675087128E0,-1.011970596E1,1.089446095E1
7.483498042E0,-2.293979645E0,2.837349701E0,-8.378377075E0,9.138385982E0
7.493437042E0,-1.570983124E0,2.861599274E0,-6.773264923E0,7.518899926E0
7.503377042E0,-8.575666809E-1,2.732567596E0,-5.417234802E0,6.127705866E0
7.513316042E0,-2.579136658E-1,2.387535095E0,-4.370611267E0,4.986891430E0
7.523255292E0,1.835183716E-1,1.943258972E0,-3.580853577E0,4.078289686E0
7.533194292E0,5.680686951E-1,1.473835144E0,-2.978356476E0,3.371275630E0
7.543133292E0,7.316784668E-1,1.026265869E0,-2.550546112E0,2.844971086E0
7.553073292E0,6.819818115E-1,7.179071045E-1,-2.273322601E0,2.479613972E0
7.563012292E0,6.256988525E-1,3.857478333E-1,-2.073338470E0,2.199780184E0
7.572951292E0,5.641767883E-1,4.520599365E-2,-1.837429047E0,1.922624387E0
7.582890292E0,6.056405640E-1,-1.788780212E-1,-1.550176392E0,1.673871167E0
7.592829292E0,7.695497131E-1,-3.622467041E-1,-1.222807159E0,1.489525691E0
7.602768292E0,9.354048157E-1,-5.836363220E-1,-8.521778870E-1,1.393492259E0
7.612708292E0,1.145867157E0,-9.090596008E-1,-4.887336731E-1,1.542161309E0
7.622647292E0,1.622775421E0,-1.492995300E0,-2.056723022E-1,2.214663886E0
7.632586292E0,2.455194397E0,-2.571502533E0,7.604187012E-2,3.556175919E0
7.642525292E0,3.822151794E0,-4.219425659E0,3.287164307E-1,5.702670578E0
7.652464292E0,5.966742096E0,-6.392606506E0,5.650749207E-1,8.762804280E0
7.662403292E0,9.037755890E0,-9.369017029E0,1.010997620E0,1.305686133E1
7.672343292E0,1.250709137E1,-1.283101776E1,1.621278534E0,1.799141171E1
7.682282292E0,1.657982208E1,-1.618928421E1,2.319875793E0,2.328873649E1
7.692221292E0,2.115745285E1,-1.877111526E1,3.210523682E0,2.846576965E1
7.702160292E0,2.562566116E1,-1.943977478E1,3.951333160E0,3.240667196E1
7.712099292E0,2.911221085E1,-1.929113388E1,3.239114227E0,3.507364435E1
7.722039292E0,3.278497330E1,-2.088022934E1,4.454736328E-1,3.887205806E1
7.731978292E0,3.442301697E1,-2.391501846E1,-3.120560760E0,4.203106119E1
7.741917292E0,3.254621979E1,-2.450404358E1,-5.387446747E0,4.109414991E1
7.751856292E0,2.845881958E1,-2.251303391E1,-4.423002319E0,3.655549284E1
7.761795292E0,2.391142593E1,-1.969349716E1,-4.562512207E-1,3.098061145E1
7.771734292E0,2.009571075E1,-1.660167664E1,3.472928009E0,2.629666304E1
7.781674292E0,1.721734634E1,-1.332154770E1,5.941145325E0,2.256541283E1
7.791613292E0,1.505718842E1,-9.918674011E0,7.227121124E0,1.942499155E1
7.801552292E0,1.368439316E1,-6.663543091E0,7.494016113E0,1.696542661E1
7.811491292E0,1.316153046E1,-3.946094055E0,6.679110718E0,1.527769820E1
7.821430292E0,1.244826370E1,-1.962568817E0,4.806504822E0,1.348752884E1
7.831369292E0,1.080872314E1,-1.030157776E0,2.219284973E0,1.108219053E1
7.841309292E0,8.261021118E0,-1.145118713E0,-1.074315948E0,8.408919166E0
7.851248292E0,4.923860779E0,-1.582209778E0,-5.056634674E0,7.233073135E0
7.861187292E0,1.353784790E0,-1.542841644E0,-9.158255310E0,9.385453315E0
7.871126292E0,-1.773362274E0,-5.266049194E-1,-1.244272522E1,1.257948876E1
7.881065292E0,-3.909420319E0,1.059945831E0,-1.426952637E1,1.483328808E1
7.891005292E0,-4.884492645E0,2.319277039E0,-1.415980453E1,1.515709005E1
7.900944292E0,-4.486021271E0,3.075504456E0,-1.254855515E1,1.367659865E1
7.910883292E0,-3.198099518E0,3.379522247E0,-1.026894562E1,1.127387490E1
7.920822292E0,-1.827250214E0,3.369193726E0,-7.916737061E0,8.795739616E0
7.930761292E0,-6.065386963E-1,3.287613373E0,-5.787564697E0,6.683726207E0
7.940700292E0,4.427792358E-1,3.322341156E0,-4.082011414E0,5.281744162E0
7.950640292E0,1.279389496E0,3.461551666E0,-2.958597565E0,4.729955282E0
7.960579292E0,1.741179199E0,3.475472717E0,-2.486928406E0,4.614697011E0
7.970518292E0,1.777703247E0,3.199746094E0,-2.763553162E0,4.586483400E0
7.980457292E0,1.410367126E0,2.764451294E0,-3.443888397E0,4.635913468E0
7.990396292E0,9.756710815E-1,2.234403534E0,-3.759731598E0,4.481079658E0
8.000335292E0,6.950047302E-1,1.648521881E0,-3.539838867E0,3.966246988E0
8.010275292E0,4.945715332E-1,1.121168518E0,-2.908002777E0,3.155645734E0
8.020214292E0,3.022215271E-1,6.840774536E-1,-2.110610962E0,2.239191472E0
8.030153292E0,1.161584473E-1,2.999761963E-1,-1.274898834E0,1.314855711E0
8.040092292E0,4.775070190E-2,5.119354248E-2,-4.490661621E-1,4.544901828E-1
8.050031292E0,2.260299683E-1,-1.648072815E-1,3.586541748E-1,4.548448128E-1
8.059970292E0,5.424719238E-1,-6.156697083E-1,1.022224274E0,1.310827007E0
8.069910292E0,1.204245758E0,-1.582509155E0,1.281634827E0,2.365825628E0
8.079849292E0,2.588716736E0,-3.142115936E0,1.201251984E0,4.244685291E0
8.089788292E0,4.605023804E0,-5.396577759E0,1.035097504E0,7.169429725E0
8.099727292E0,7.287295990E0,-8.315208435E0,9.114546204E-1,1.109405804E1
8.109666292E0,1.082908081E1,-1.224558517E1,4.932243347E-1,1.635440668E1
8.119605292E0,1.546464111E1,-1.751417908E1,1.523831177E-1,2.336503401E1
8.129545292E0,1.996398468E1,-2.279190399E1,4.887336731E-1,3.030297729E1
8.139484292E0,2.322974350E1,-2.450000198E1,1.794019318E0,3.380960789E1
8.149423292E0,2.789464279E1,-2.549573135E1,3.007845154E0,3.791029604E1
8.159362292E0,3.427841766E1,-2.832694382E1,3.667673035E0,4.461925021E1
8.169301292E0,3.708822464E1,-2.826901428E1,3.986659698E0,4.680349379E1
8.179241292E0,3.508628769E1,-2.454715393E1,3.569926300E0,4.296922996E1
8.189180292E0,3.156515991E1,-2.083337677E1,2.783611450E0,3.792278208E1
8.199119292E0,2.794763260E1,-1.730925522E1,2.743195496E0,3.298796153E1
8.209058292E0,2.462289642E1,-1.387240219E1,3.479065247E0,2.847515524E1
8.218997292E0,2.152628586E1,-1.091859467E1,4.308640137E0,2.451858626E1
8.228936292E0,1.872216705E1,-8.450676727E0,4.650978241E0,2.106098466E1
8.238876292E0,1.622925110E1,-6.330335999E0,4.526287537E0,1.799858394E1
8.248815292E0,1.360416000E1,-4.682113495E0,4.065695343E0,1.495076034E1
8.258754292E0,1.076995377E1,-3.692521362E0,2.989134064E0,1.177121661E1
8.268693292E0,8.146359558E0,-2.736758881E0,1.020278320E0,8.654131445E0
8.278632292E0,5.474415894E0,-1.631756744E0,-1.594035187E0,5.930666710E0
8.288571292E0,3.097508698E0,-5.864804077E-1,-4.451443176E0,5.454710419E0
8.298511292E0,9.713301086E-1,1.685494995E-1,-7.272925873E0,7.339437435E0
8.308450292E0,-1.141526184E0,7.235952759E-1,-9.690398712E0,9.784196408E0
8.318389292E0,-2.830314331E0,1.587299194E0,-1.135718262E1,1.181168045E1
8.328328292E0,-3.513044586E0,2.678080902E0,-1.192375443E1,1.271571937E1
8.338267292E0,-3.599414978E0,3.508254547E0,-1.138487503E1,1.244503988E1
8.348206292E0,-3.507206726E0,3.910318451E0,-1.011072464E1,1.139376330E1
8.358146292E0,-3.598516846E0,4.054768066E0,-8.704698486E0,1.025486437E1
8.368085292E0,-3.786525879E0,3.888314209E0,-7.515122223E0,9.270050035E0
8.378024292E0,-3.882775726E0,3.446582794E0,-6.595883789E0,8.394079059E0
8.387963292E0,-3.678001556E0,2.843636627E0,-5.816604309E0,7.446264191E0
8.397902292E0,-3.241509247E0,2.395318909E0,-5.025798798E0,6.442327873E0
8.407841292E0,-2.692001953E0,2.098486176E0,-4.230203247E0,5.435543971E0
8.417781292E0,-1.899549866E0,1.881736908E0,-3.379222870E0,4.309103235E0
8.427720292E0,-1.029708710E0,1.638492737E0,-2.479144592E0,3.145014529E0
8.437659292E0,-3.820056152E-1,1.293310547E0,-1.725312195E0,2.189813378E0
8.447598292E0,-6.107299805E-2,1.134790192E0,-1.143322449E0,1.612037503E0
8.457537292E0,2.383044434E-1,1.052162018E0,-6.304888916E-1,1.249539980E0
8.467477292E0,6.295907593E-1,9.154962158E-1,-1.990859985E-1,1.128783894E0
8.477416292E0,1.152902527E0,7.018904114E-1,1.453477478E-1,1.357556759E0
8.487355292E0,1.745071106E0,5.135820007E-1,4.204756165E-1,1.867040273E0
8.497294292E0,2.595153351E0,1.896556091E-1,6.762936401E-1,2.688524363E0
8.507233292E0,3.571273499E0,-5.846841431E-1,8.466394043E-1,3.716537129E0
8.517172542E0,5.108576660E0,-2.062411194E0,7.689509583E-1,5.562587617E0
8.527112542E0,7.315437469E0,-4.605173492E0,5.325924683E-1,8.660652574E0
8.537051542E0,1.017404297E1,-8.347990265E0,9.370513916E-2,1.316088418E1
8.546990542E0,1.375190277E1,-1.360924942E1,-5.866300964E-1,1.935641068E1
8.556929542E0,1.777987656E1,-2.008164001E1,-1.372795258E0,2.685667222E1
8.566868542E0,2.265374130E1,-2.733974670E1,-2.009122009E0,3.556248467E1
8.576807542E0,2.902030197E1,-3.345947067E1,-1.696422272E0,4.432371772E1
8.586747542E0,3.441448471E1,-3.458048950E1,4.221221924E-2,4.878697361E1
8.596686542E0,3.711037857E1,-3.189237946E1,1.900148621E0,4.896850651E1
8.606625542E0,3.833573044E1,-2.740231659E1,2.713706818E0,4.720041724E1
8.616564542E0,3.778906723E1,-2.230885849E1,2.805915070E0,4.397239962E1
8.626503542E0,3.446118759E1,-1.819002365E1,3.342399445E0,3.911038282E1
8.636442542E0,2.838487335E1,-1.575039688E1,4.838687897E0,3.282055663E1
8.646382542E0,2.111284561E1,-1.442759766E1,6.743776245E0,2.644591352E1
8.656321542E0,1.417986282E1,-1.263836838E1,7.709418182E0,2.049956082E1
8.666260542E0,8.844507751E0,-9.705068207E0,7.074288940E0,1.491506722E1
8.676199542E0,5.721252594E0,-6.446494446E0,4.583618317E0,9.762150314E0
8.686138542E0,4.670437775E0,-3.612138519E0,4.864883423E-1,5.924289375E0
8.696077542E0,4.124822388E0,-1.101858673E0,-4.094136200E0,5.915251769E0
8.706017542E0,2.750230865E0,1.069974976E0,-8.430468750E0,8.932044537E0
8.715956542E0,4.972659302E-1,2.792443085E0,-1.178693893E1,1.212340469E1
8.725895542E0,-8.931925964E-1,4.024231567E0,-1.337064560E1,1.399165453E1
8.735834542E0,-8.650511169E-1,4.772375793E0,-1.290361679E1,1.378503574E1
8.745773542E0,-7.229965210E-2,4.849016418E0,-1.088192093E1,1.191362206E1
8.755712542E0,6.092330933E-1,4.605472870E0,-8.465645599E0,9.656536684E0
8.765652542E0,7.286846924E-1,4.162843323E0,-6.489155731E0,7.743990445E0
8.775591542E0,3.619473267E-1,3.519630890E0,-5.015619965E0,6.138016870E0
8.785530542E0,-1.549278259E-1,2.792443085E0,-4.005819855E0,4.885522871E0
8.795469542E0,-5.182223511E-1,2.105521545E0,-3.240760803E0,3.899269927E0
8.805408542E0,-7.731422424E-1,1.437161407E0,-2.621199188E0,3.087696070E0
8.815347542E0,-1.024319916E0,9.819580078E-1,-1.930535431E0,2.395921507E0
8.825287542E0,-1.027613068E0,6.313870239E-1,-1.146166534E0,1.663831697E0
8.835226542E0,-9.033714294E-1,2.809657288E-1,-3.363505554E-1,1.004068412E0
8.845165542E0,-7.976911926E-1,-4.176315308E-2,3.990701294E-1,8.929234950E-1
8.855104542E0,-7.008425903E-1,-2.228865051E-1,1.017134857E0,1.255158177E0
8.865043542E0,-5.102888489E-1,-2.639012146E-1,1.511257324E0,1.616767534E0
8.874983542E0,-2.206411743E-1,-2.429447937E-1,1.915865936E0,1.943771331E0
8.884922542E0,7.933502197E-2,-1.857637024E-1,2.227667542E0,2.236806848E0
8.894861542E0,3.772155762E-1,-1.065783691E-1,2.416724396E0,2.448307036E0
8.904800542E0,7.186555481E-1,-7.394622803E-2,2.563419342E0,2.663278537E0
8.914739542E0,1.070573730E0,-8.427474976E-2,2.781066742E0,2.981201531E0
8.924678542E0,1.353635101E0,-2.001338196E-1,3.081492004E0,3.371642701E0
8.934618542E0,1.661544800E0,-3.833528137E-1,3.417692871E0,3.819465285E0
8.944557542E0,2.077679443E0,-6.851252747E-1,3.657045135E0,4.261470126E0
8.954496542E0,3.191513214E0,-1.407073975E0,3.552562408E0,4.978585485E0
8.964435542E0,5.375321960E0,-2.836152191E0,2.752326508E0,6.671817341E0
8.974374542E0,8.210875397E0,-4.955445099E0,9.680369568E-1,9.639087429E0
8.984313542E0,1.173769135E1,-8.139773254E0,-1.596729584E0,1.437285122E1
8.994253542E0,1.657233765E1,-1.325478653E1,-4.357438660E0,2.166377189E1
9.004192542E0,2.273517197E1,-2.126956970E1,-6.341113586E0,3.177250952E1
9.014131542E0,3.072615463E1,-3.252750870E1,-6.737938385E0,4.524969850E1
9.024070542E0,3.510095718E1,-3.866549469E1,-3.410058746E0,5.233284032E1
9.034009542E0,3.032139633E1,-3.326652191E1,2.812351685E0,4.509942214E1
9.043948542E0,2.903586960E1,-2.814088074E1,7.854316864E0,4.119079006E1
9.053888542E0,2.918540863E1,-2.320205109E1,1.110031677E1,3.890167457E1
9.063827542E0,2.839220810E1,-1.641366760E1,1.086186264E1,3.454715654E1
9.073766542E0,2.591096786E1,-1.119117783E1,7.698041840E0,2.925543650E1
9.083705542E0,2.325369370E1,-8.722511444E0,4.551285553E0,2.524936982E1
9.093644542E0,2.177012878E1,-7.783214722E0,3.260370026E0,2.334838220E1
9.103583542E0,1.988165588E1,-7.029232635E0,3.827690277E0,2.143225525E1
9.113523542E0,1.670436310E1,-5.632487183E0,4.869823151E0,1.828868054E1
9.123462542E0,1.290496399E1,-4.029770050E0,5.021457825E0,1.442193402E1
9.133401542E0,8.569828949E0,-3.208128662E0,3.379372559E0,9.754702282E0
9.143340542E0,4.462819519E0,-2.901416473E0,1.440005493E-1,5.325008147E0
9.153279542E0,1.404080200E0,-2.480192413E0,-3.611390076E0,4.600536262E0
9.163218542E0,-1.362167358E-1,-1.156495056E0,-7.046746216E0,7.142315314E0
9.173158542E0,-5.581892395E-1,3.971241760E-1,-9.077423401E0,9.103235603E0
9.183097542E0,-3.914360046E-1,1.313817902E0,-9.709558868E0,9.805859118E0
9.193036542E0,-9.017248535E-1,2.023791504E0,-9.770033112E0,1.001810295E1
9.202975542E0,-1.557810516E0,2.308200073E0,-9.519304504E0,9.918251833E0
9.212914542E0,-2.030976563E0,2.136507111E0,-8.658893738E0,9.146910363E0
9.222853542E0,-2.019749908E0,1.633553009E0,-7.499704285E0,7.936841279E0
9.232793542E0,-2.244282990E0,8.855584717E-1,-6.002667389E0,6.469392222E0
9.242732542E0,-2.608475647E0,4.837939453E-1,-4.096381531E0,4.880424513E0
9.252671542E0,-2.722388763E0,3.616479492E-1,-2.139201508E0,3.481145344E0
9.262610542E0,-2.910248108E0,5.957611084E-2,-2.769241333E-1,2.924000742E0
9.272549542E0,-3.163371735E0,6.840774536E-2,1.317111053E0,3.427299502E0
9.282488542E0,-3.002007294E0,1.968406677E-1,2.353406067E0,3.819596072E0
9.292428542E0,-2.265538788E0,3.445834351E-1,2.913391571E0,3.706649996E0
9.302367542E0,-1.252894592E0,3.700305176E-1,2.983595581E0,3.257070775E0
9.312306542E0,-4.972659302E-1,3.477268982E-1,2.618055725E0,2.687452917E0
9.322245542E0,-6.496490479E-2,2.412982178E-1,1.920057220E0,1.936250242E0
9.332184542E0,1.877096558E-1,6.122268677E-2,1.140777740E0,1.157737874E0
9.342123542E0,7.186555481E-1,3.308120728E-2,4.376898193E-1,8.421000778E-1
9.352063542E0,1.798210602E0,3.086581421E-1,-2.737806702E-1,1.844935520E0
9.362002542E0,2.675685883E0,5.761518860E-1,-9.734257507E-1,2.904961898E0
9.371941542E0,3.895798645E0,2.803669739E-1,-1.915865936E0,4.350447679E0
9.381880542E0,5.712720337E0,-1.031055908E0,-3.127446442E0,6.593873761E0
9.391819542E0,8.252488861E0,-3.522474976E0,-4.213288422E0,9.912779715E0
9.401758542E0,1.158515854E1,-7.168592834E0,-4.872966614E0,1.446894693E1
9.411698542E0,1.520957153E1,-1.181807419E1,-5.200934601E0,1.995113191E1
9.421637542E0,1.925011917E1,-1.699460953E1,-4.998106384E0,2.616036904E1
9.431576542E0,2.382715118E1,-2.280073563E1,-4.365521851E0,3.326656670E1
9.441515542E0,2.797876785E1,-2.883828049E1,-3.222947845E0,4.030936944E1
9.451454542E0,3.153597061E1,-3.294978058E1,-1.391656036E0,4.563049626E1
9.461393542E0,3.347788239E1,-3.342159943E1,1.459165649E0,4.732759324E1
9.471333542E0,3.322416000E1,-3.015943314E1,4.022135925E0,4.505123519E1
9.481272542E0,3.211601440E1,-2.497840714E1,5.026846619E0,4.099546793E1
9.491211542E0,2.958417938E1,-1.878294067E1,5.180277557E0,3.542397219E1
9.501150542E0,2.628683624E1,-1.329834595E1,6.932084656E0,3.026379953E1
9.511089542E0,2.284773788E1,-9.398954773E0,1.060379929E1,2.688494070E1
9.521028792E0,1.947300568E1,-6.634503479E0,1.427147232E1,2.503776165E1
9.530968792E0,1.633523071E1,-4.529880066E0,1.606399475E1,2.335404683E1
9.540907792E0,1.364337845E1,-3.368744659E0,1.505120087E1,2.059196114E1
9.550846792E0,1.246936981E1,-3.488345947E0,1.179487244E1,1.751492954E1
9.560785792E0,1.178738800E1,-4.448150024E0,7.534581757E0,1.467986637E1
9.570724792E0,1.044617706E1,-5.283113708E0,3.379971313E0,1.218433879E1
9.580663792E0,6.482270050E0,-6.097570038E0,-1.242117004E0,8.985713106E0
9.590603792E0,1.588197327E0,-5.954317932E0,-3.307072906E0,6.993783239E0
9.600542792E0,-2.308798828E0,-7.118447113E0,-1.068208649E1,1.304261527E1
9.610481792E0,-5.648803253E0,-4.767885132E0,-1.664179321E1,1.820963998E1
9.620420792E0,-6.252647552E0,-3.744463348E0,-1.695075073E1,1.845113974E1
9.630359792E0,-8.272397461E0,-3.864064636E0,-1.601175339E1,1.843203195E1
9.640298792E0,-1.002106110E1,-2.448907471E0,-1.608135864E1,1.910572974E1
9.650238792E0,-8.074359283E0,-7.533833313E-1,-1.469359451E1,1.678286579E1
9.660177792E0,-5.714815979E0,1.803749084E-1,-1.049093399E1,1.194785976E1
9.670116792E0,-4.939877472E0,3.701802063E-1,-6.539151764E0,8.203653370E0
9.680055792E0,-4.568200378E0,4.013154602E-1,-3.893703003E0,6.015848392E0
9.689994792E0,-4.199666748E0,4.221221924E-1,-2.041754150E0,4.688725621E0
9.699933792E0,-3.723806305E0,2.953358459E-1,-5.161267090E-1,3.770987064E0
9.709873792E0,-3.210523682E0,1.595681763E-1,7.108717346E-1,3.292151718E0
9.719812792E0,-2.639311523E0,5.807922363E-2,1.548679504E0,3.060677494E0
9.729751792E0,-2.182012482E0,-5.553451538E-2,1.865720215E0,2.871441184E0
9.739690792E0,-1.841021576E0,-1.272354126E-2,1.709445190E0,2.512314708E0
9.749629792E0,-1.445843353E0,1.282832336E-1,1.148112488E0,1.850697672E0
9.759568792E0,-9.598040771E-1,1.297801208E-1,4.887336731E-1,1.084862825E0
9.769508792E0,-4.939727783E-1,-1.407073975E-2,-2.411485291E-1,5.498724438E-1
9.779447792E0,1.047821045E-1,-3.324586487E-1,-1.029109955E0,1.086542839E0
9.789386792E0,1.354682922E0,-1.232536926E0,-1.901645508E0,2.640183466E0
9.799325792E0,3.588487701E0,-3.106490021E0,-2.623294830E0,5.423024986E0
9.809264792E0,7.402406616E0,-5.892496490E0,-3.124153290E0,9.963808126E0
9.819203792E0,1.245200592E1,-9.016799469E0,-3.704795837E0,1.581393804E1
9.829143792E0,1.814586548E1,-1.303878571E1,-4.492457886E0,2.279176484E1
9.839082792E0,2.468860977E1,-1.808075089E1,-5.541027374E0,3.109893872E1
9.849021792E0,3.240745834E1,-2.391606628E1,-6.279441833E0,4.076337784E1
9.858960792E0,3.946513184E1,-2.937895615E1,-6.622827759E0,4.964354482E1
9.868899792E0,4.508339859E1,-3.221166550E1,-5.816005554E0,5.571292618E1
9.878838792E0,4.702725632E1,-2.866389313E1,-2.580783234E0,5.513476261E1
9.888778792E0,4.545657257E1,-2.088606720E1,1.856140137E0,5.005969486E1
9.898717792E0,3.978726196E1,-1.422521851E1,6.737489319E0,4.278757785E1
9.908656792E0,3.115665939E1,-1.045875092E1,1.104238724E1,3.467069672E1
9.918595792E0,2.173540100E1,-1.024275009E1,1.319326447E1,2.741174590E1
9.928534792E0,1.492710892E1,-1.036744080E1,1.284688477E1,2.225634421E1
9.938473792E0,1.230156876E1,-9.198671265E0,1.046339127E1,1.858565855E1
9.948413792E0,1.130074997E1,-6.351891174E0,7.571255493E0,1.501257410E1
9.958352792E0,9.804012451E0,-2.810705109E0,4.593797150E0,1.118578096E1
9.968291792E0,8.019573212E0,-1.049317932E-1,8.803193665E-1,8.068427812E0
9.978230792E0,6.506819000E0,2.237996063E0,-3.315754852E0,7.638164054E0
9.988169792E0,4.483626251E0,3.441343689E0,-7.034172363E0,9.023598594E0
9.998108792E0,1.782343597E0,3.270548859E0,-9.996961212E0,1.066829284E1
1.000804779E1,-2.101629639E0,3.131038971E0,-1.255933273E1,1.311324105E1
1.001798779E1,-4.239184570E0,3.010389862E0,-1.329625031E1,1.427667346E1
1.002792679E1,-3.302731934E0,2.068099365E0,-9.599837036E0,1.036059575E1
1.003786579E1,-2.392175446E0,1.663640442E0,-5.163213043E0,5.928656830E0
1.004780479E1,-2.781066742E0,1.691033478E0,-2.724933472E0,4.244901515E0
1.005774379E1,-3.705244904E0,1.546883240E0,-1.152453461E0,4.177300149E0
1.006768279E1,-4.361629944E0,1.472188568E0,2.667453003E-1,4.611107026E0
1.007762279E1,-4.335434418E0,1.469194794E0,1.221010895E0,4.737656862E0
1.008756179E1,-3.905827789E0,1.308429108E0,1.839973755E0,4.511427808E0
1.009750079E1,-3.391347656E0,1.170715485E0,2.166444855E0,4.191097348E0
1.010743979E1,-2.699785767E0,1.249601440E0,2.260748749E0,3.736486565E0
1.011737879E1,-1.949096832E0,1.354383545E0,2.320923615E0,3.319641498E0
1.012731779E1,-1.240320740E0,1.321452026E0,2.296075287E0,2.925165417E0
1.013725779E1,-4.906796265E-1,1.290765839E0,2.126927032E0,2.535874908E0
1.014719679E1,2.621049500E-1,1.304686890E0,1.819167023E0,2.253946659E0
1.015713579E1,1.003662872E0,1.419797516E0,1.328188019E0,2.187977962E0
1.016707479E1,1.819316711E0,1.639091492E0,7.417076111E-1,2.558645031E0
1.017701379E1,2.623145142E0,1.857637024E0,7.798782349E-2,3.215243046E0
1.018695279E1,3.407514038E0,2.083217926E0,-6.405180359E-1,4.044899529E0
1.019689279E1,4.081113281E0,2.371967468E0,-1.413510590E0,4.927446344E0
1.020683179E1,4.403991852E0,2.533032532E0,-2.251018982E0,5.556841234E0
1.021677079E1,4.528981934E0,2.249222717E0,-2.976260834E0,5.867606730E0
1.022670979E1,5.048551483E0,1.174308014E0,-3.383563843E0,6.189941491E0
1.023664879E1,6.684798889E0,-6.403683472E-1,-3.435056763E0,7.542958489E0
1.024658779E1,9.363328857E0,-3.102747803E0,-3.543730774E0,1.048126896E1
1.025652779E1,1.258807297E1,-6.224206696E0,-4.331542511E0,1.469566571E1
1.026646679E1,1.707708801E1,-1.069540878E1,-5.863606567E0,2.098572339E1
1.027640579E1,2.318902817E1,-1.712603622E1,-7.382198639E0,2.975783932E1
1.028634479E1,2.963103195E1,-2.381502640E1,-8.412955170E0,3.893496310E1
1.029628379E1,3.569537109E1,-2.930081863E1,-9.101672974E0,4.706950118E1
1.030622279E1,4.038646591E1,-3.257106812E1,-8.178842010E0,5.252460912E1
1.031616279E1,4.183605148E1,-3.102523270E1,-3.725153503E0,5.221778467E1
1.032610179E1,3.897669754E1,-2.450434296E1,1.759441223E0,4.607321791E1
1.033604079E1,3.372382095E1,-1.853161331E1,6.076164551E0,3.895685520E1
1.034597979E1,2.877196838E1,-1.464988541E1,9.615105286E0,3.368821095E1
1.035591879E1,2.613804565E1,-1.221040833E1,1.276156219E1,3.154598186E1
1.036585779E1,2.396276917E1,-1.023062531E1,1.575593536E1,3.044880128E1
1.037579779E1,2.064506836E1,-7.031927032E0,1.758423340E1,2.801556906E1
1.038573679E1,1.764186356E1,-4.986879730E0,1.638088577E1,2.458531549E1
1.039567579E1,1.561807205E1,-5.204227753E0,1.188767944E1,2.030578941E1
1.040561479E1,1.161210251E1,-6.766678619E0,4.124822388E0,1.405855696E1
1.041555379E1,3.509452057E0,-6.234086151E0,-1.237132370E1,1.429089689E1
1.042549279E1,-7.386539612E0,-2.614463196E0,-3.322805191E1,3.413941738E1
1.043543179E1,-9.400451660E0,3.683390350E0,-4.248225769E1,4.366552501E1
1.044537179E1,3.329675903E0,4.169579315E0,-2.704141708E1,2.756284403E1
1.045531079E1,6.754404144E0,3.078498230E0,-1.152243896E1,1.370641187E1
1.046524979E1,3.882626038E0,6.049519958E0,-4.189188538E0,8.319902480E0
1.047518879E1,1.181942139E0,6.671775970E0,2.146835632E0,7.107635686E0
1.048512779E1,-6.929090881E-1,4.492906952E0,6.351442108E0,7.810707569E0
1.049506679E1,-2.937192078E0,2.479443970E0,7.886799316E0,8.773616310E0
1.050500679E1,-4.630470886E0,1.782792664E0,7.518565063E0,9.008242388E0
1.051494579E1,-5.444178772E0,1.704355774E0,5.536686401E0,7.949767758E0
1.052488479E1,-5.476361847E0,1.559008026E0,3.151995392E0,6.508157962E0
1.053482379E1,-4.935835876E0,1.541045380E0,1.701511688E0,5.443568562E0
1.054476279E1,-4.294120331E0,1.588496704E0,1.473236389E0,4.809700266E0
1.055470179E1,-3.755690002E0,1.304686890E0,1.593137054E0,4.283164829E0
1.056464179E1,-3.283571777E0,7.279362488E-1,1.491199036E0,3.679050063E0
1.057458079E1,-2.819087677E0,2.228865051E-1,1.249751129E0,3.091732784E0
1.058451979E1,-2.364483032E0,-1.341210938E-1,9.846524048E-1,2.564821404E0
1.059445879E1,-1.734892273E0,-3.986210632E-1,6.975494385E-1,1.911890470E0
1.060439779E1,-8.680448914E-1,-5.884263611E-1,4.062551880E-1,1.124629180E0
1.061433679E1,1.945953369E-3,-7.514373779E-1,1.204994202E-1,7.610400975E-1
1.062427679E1,1.198108521E0,-9.502239990E-1,-2.124082947E-1,1.543861056E0
1.063421579E1,2.744093628E0,-1.071920929E0,-7.185058594E-1,3.032377778E0
1.064415479E1,4.324806519E0,-1.068178711E0,-1.451531525E0,4.685285578E0
1.065409379E1,5.978717194E0,-1.203197937E0,-2.465822296E0,6.578223480E0
1.066403279E1,8.513695679E0,-2.061662750E0,-3.775748291E0,9.538854363E0
1.067397179E1,1.193543015E1,-4.346062317E0,-5.175637207E0,1.371604793E1
1.068391079E1,1.552047501E1,-7.833510132E0,-6.445296936E0,1.854159858E1
1.069385079E1,1.923395279E1,-1.170999893E1,-7.675438843E0,2.379036310E1
1.070378979E1,2.219225098E1,-1.574560684E1,-8.264463959E0,2.843802916E1
1.071372879E1,2.451646774E1,-2.021980270E1,-7.775580597E0,3.271631498E1
1.072366779E1,2.750290741E1,-2.495251099E1,-5.692961426E0,3.756923649E1
1.073360679E1,3.162383789E1,-2.968731491E1,-2.244282990E0,4.343317391E1
1.074354579E1,3.352084305E1,-3.225986526E1,2.389481049E0,4.658385391E1
1.075348579E1,3.146711380E1,-3.021152481E1,7.184459839E0,4.421008873E1
1.076342479E1,2.758927780E1,-2.489383301E1,1.080632812E1,3.869945606E1
1.077336379E1,2.350307510E1,-1.924981979E1,1.355057144E1,3.326511818E1
1.078330279E1,1.979783020E1,-1.503114258E1,1.497830246E1,2.902135201E1
1.079324179E1,1.695164886E1,-1.194411209E1,1.477727051E1,2.546346278E1
1.080318079E1,1.461934891E1,-9.304351501E0,1.265498383E1,2.145798068E1
1.081312079E1,1.295989975E1,-7.336244202E0,8.208929443E0,1.700488174E1
1.082305979E1,1.190833649E1,-5.265001373E0,2.333796844E0,1.322782390E1
1.083299879E1,1.528067368E1,2.776426392E0,-1.088087311E1,1.896314666E1
1.084293779E1,1.823867249E1,1.279868500E1,-3.538701233E1,4.181741447E1
1.085287679E1,1.047581543E1,1.416624115E1,-5.044135666E1,5.342991258E1
1.086281579E1,1.510119690E1,1.087488556E1,-3.528447556E1,3.989114562E1
1.087275579E1,1.496887207E1,8.032147064E0,-1.294208679E1,2.135603259E1
1.088269479E1,8.503666534E0,6.027665405E0,3.749702454E-1,1.043003823E1
1.089263379E1,4.001329193E0,5.575455780E0,1.031011002E1,1.238526185E1
1.090257279E1,1.276994476E0,5.445525970E0,1.551628372E1,1.649362084E1
1.091251179E1,-1.267713776E0,3.934568024E0,1.510478943E1,1.566022310E1
1.092245079E1,-2.280956726E0,3.187471619E0,1.219319412E1,1.280768214E1
1.093238979E1,-2.800077209E0,2.861299896E0,8.293353882E0,9.209081826E0
1.094232979E1,-2.561024323E0,2.399510193E0,5.413043518E0,6.451165389E0
1.095226879E1,-1.970053253E0,2.022144928E0,4.383334808E0,5.213808970E0
1.096220779E1,-1.918410645E0,1.426234131E0,4.112098846E0,4.756448267E0
1.097214679E1,-2.127226410E0,7.629634094E-1,3.653003540E0,4.295537245E0
1.098208579E1,-2.825524292E0,2.323168945E-1,3.240760803E0,4.305820392E0
1.099202479E1,-3.241060181E0,-4.575984192E-1,2.734663239E0,4.265237442E0
1.100196479E1,-3.338058472E0,-1.078806610E0,2.115999756E0,4.096817427E0
1.101190379E1,-3.347039795E0,-1.187181244E0,1.409468994E0,3.820821579E0
1.102184279E1,-2.867287445E0,-1.171164551E0,6.381230164E-1,3.162303699E0
1.103178179E1,-1.754052429E0,-1.221609650E0,-3.457809448E-2,2.137808622E0
1.104172079E1,-3.210823059E-1,-1.236428833E0,-3.836521912E-1,1.333806249E0
1.105165979E1,1.065634003E0,-1.233734436E0,-4.441264343E-1,1.689652265E0
1.106159979E1,2.418221283E0,-1.171463928E0,-5.468128967E-1,2.742102524E0
1.107153879E1,4.139192505E0,-1.224453735E0,-8.129594421E-1,4.392391672E0
1.108147779E1,6.442303162E0,-1.711391144E0,-1.275946655E0,6.786764291E0
1.109141679E1,9.148974609E0,-2.661615143E0,-2.089055786E0,9.754593054E0
1.110135579E1,1.166718796E1,-3.883673859E0,-3.517684937E0,1.278985163E1
1.111129479E1,1.378034363E1,-5.823939056E0,-5.330864410E0,1.588188440E1
1.112123379E1,1.573288330E1,-9.425749054E0,-7.424710236E0,1.978622461E1
1.113117379E1,1.808793594E1,-1.448268311E1,-9.433083801E0,2.501808559E1
1.114111279E1,2.114517838E1,-1.981953506E1,-1.078686859E1,3.092392395E1
1.115105179E1,2.546145264E1,-2.403506882E1,-1.074750046E1,3.662620468E1
1.116099079E1,3.162009567E1,-2.784300018E1,-8.824599152E0,4.304575077E1
1.117092979E1,3.669349548E1,-3.086895767E1,-5.485193481E0,4.826378048E1
1.118086879E1,3.723911087E1,-3.057047836E1,-5.463638306E-1,4.818302646E1
1.119080879E1,3.392440384E1,-2.654609711E1,5.200485535E0,4.338900203E1
1.120074779E1,2.952205856E1,-2.100072876E1,1.022358994E1,3.764444636E1
1.121068679E1,2.501972122E1,-1.629197067E1,1.446861237E1,3.317763557E1
1.122062579E1,2.087184677E1,-1.272473877E1,1.798779419E1,3.034985509E1
1.123056479E1,1.784873337E1,-9.391021271E0,2.055615326E1,2.879798604E1
1.124050379E1,1.645228729E1,-7.256160736E0,2.101060822E1,2.765457075E1
1.125044379E1,1.632175873E1,-6.875053253E0,1.846081055E1,2.558256616E1
1.126038279E1,1.680749863E1,-6.802903290E0,1.360056747E1,2.266598639E1
1.127032179E1,1.743334717E1,-5.731581116E0,6.750063171E0,1.955341322E1
1.128026079E1,1.716555405E1,-2.006876678E0,-7.991132355E0,1.904053560E1
1.129019979E1,8.381221161E0,-1.741927643E0,-2.887211014E1,3.011441389E1
1.130013879E1,-5.244643707E0,1.831142120E0,-5.014587112E1,5.045262887E1
1.131007779E1,-1.982926483E0,6.663842468E0,-4.137396240E1,4.195406487E1
1.132001779E1,4.275259552E0,5.166206818E0,-1.804123306E1,1.924717194E1
1.132995679E1,6.462960205E0,3.948788452E0,-6.399941254E0,9.915746714E0
1.133989579E1,2.641856232E0,5.054389343E0,-4.165837097E-1,5.718373717E0
1.134983479E1,-1.806443481E0,5.745202789E0,1.645378418E0,6.243225391E0
1.135977379E1,-3.556753693E0,3.530408478E0,2.840493164E0,5.760441152E0
1.136971279E1,-4.878056030E0,1.204545135E0,2.613415375E0,5.663594224E0
1.137965279E1,-6.786587219E0,3.562591553E-1,1.492546234E0,6.957900612E0
1.138959179E1,-7.858208771E0,-1.917512512E-1,4.572990417E-1,7.873838711E0
1.139953079E1,-7.551646271E0,-5.053491211E-1,-1.835183716E-1,7.570760736E0
1.140946979E1,-6.572831726E0,-5.182223511E-1,-1.710942078E-1,6.595448774E0
1.141940879E1,-5.334906006E0,-2.396516418E-1,3.972738647E-1,5.355042626E0
1.142934779E1,-3.694317627E0,2.439926147E-2,5.679190063E-1,3.737794811E0
1.143928779E1,-2.047592010E0,1.121168518E-1,3.670367432E-1,2.083247273E0
1.144922679E1,-7.926017761E-1,3.109034729E-1,4.200265503E-1,9.493686575E-1
1.145916579E1,3.490740967E-1,7.779322815E-1,7.794291687E-1,1.155223437E0
1.146910479E1,1.557361450E0,1.216370544E0,1.138532410E0,2.280611329E0
1.147904379E1,2.871778107E0,1.482666779E0,1.206790466E0,3.449891810E0
1.148898279E1,4.196672974E0,1.351689148E0,8.894503784E-1,4.497804973E0
1.149892179E1,5.510790253E0,6.851252747E-1,2.439926147E-1,5.558573400E0
1.150886179E1,7.343129883E0,-5.279521179E-1,-7.101232910E-1,7.396253444E0
1.151879992E1,9.166937256E0,-2.499502258E0,-1.713187408E0,9.654805088E0
1.152873892E1,1.142065063E1,-5.376220093E0,-2.523302765E0,1.287253123E1
1.153867792E1,1.405083115E1,-9.274862823E0,-3.097808075E0,1.711856744E1
1.154861692E1,1.761207550E1,-1.381971176E1,-3.053949280E0,2.259416391E1
1.155855592E1,2.245540375E1,-1.820514221E1,-2.695444794E0,2.903339083E1
1.156849592E1,2.809642319E1,-2.241034744E1,-1.812281342E0,3.598495564E1
1.157843492E1,3.348222336E1,-2.555889999E1,-2.266287231E-1,4.212324786E1
1.158837392E1,3.687851074E1,-2.600796616E1,1.969903564E0,4.516989460E1
1.159831292E1,3.730587204E1,-2.413521057E1,4.396208038E0,4.464933508E1
1.160825192E1,3.551230179E1,-2.157433594E1,6.425987091E0,4.204603263E1
1.161819092E1,3.218157806E1,-1.906824738E1,8.462801514E0,3.835193651E1
1.162812992E1,2.787159073E1,-1.670346497E1,1.063209045E1,3.418877972E1
1.163806992E1,2.331072510E1,-1.473401047E1,1.207973007E1,3.010649179E1
1.164800892E1,1.858669876E1,-1.352512436E1,1.212778015E1,2.598994827E1
1.165794792E1,1.449989731E1,-1.282652710E1,1.000429596E1,2.179111647E1
1.166788692E1,1.155566986E1,-1.237132370E1,6.252348175E0,1.804646818E1
1.167782592E1,8.589438171E0,-1.165042282E1,1.478625183E0,1.454981555E1
1.168776492E1,5.209616547E0,-9.663454742E0,-3.821553040E0,1.162440234E1
1.169770492E1,2.464624786E0,-6.766828308E0,-8.856931915E0,1.141532232E1
1.170764392E1,1.186133423E0,-3.793860626E0,-1.333831284E1,1.391800561E1
1.171758292E1,1.082249451E0,-1.065783691E0,-1.610396164E1,1.617543629E1
1.172752192E1,1.061442719E0,1.175056458E0,-1.650737274E1,1.658314726E1
1.173746092E1,5.182223511E-1,3.221900024E0,-1.488025635E1,1.523388405E1
1.174739992E1,-3.275189209E-1,4.689148865E0,-1.195069839E1,1.284190710E1
1.175733892E1,-1.260229340E0,5.127886505E0,-8.439150696E0,9.955032017E0
1.176727892E1,-2.093396759E0,4.735103302E0,-5.040617981E0,7.225741685E0
1.177721792E1,-2.430196381E0,3.754193115E0,-2.540516968E0,5.143349770E0
1.178715692E1,-2.614313507E0,2.471061401E0,-1.132095795E0,3.771262448E0
1.179709592E1,-2.984643402E0,1.345402222E0,-6.086343384E-1,3.329960831E0
1.180703492E1,-3.457360382E0,6.017486572E-1,-6.692582703E-1,3.572582944E0
1.181697392E1,-3.898792419E0,1.383123779E-1,-1.009500732E0,4.029739988E0
1.182691392E1,-4.205354919E0,-1.815724182E-1,-1.393751678E0,4.434018751E0
1.183685292E1,-4.192481689E0,-3.606001282E-1,-1.728006592E0,4.548949544E0
1.184679192E1,-3.816613312E0,-4.137396240E-1,-1.872007141E0,4.271080470E0
1.185673092E1,-3.189716949E0,-3.429368591E-1,-1.767823792E0,3.662936099E0
1.186666992E1,-2.431992645E0,-1.938468933E-1,-1.561253357E0,2.896493896E0
1.187660892E1,-1.552421722E0,-8.532257080E-2,-1.229094086E0,1.981909538E0
1.188654892E1,-5.080435181E-1,-3.143463135E-3,-8.147557068E-1,9.601796495E-1
1.189648792E1,3.649411011E-1,7.065307617E-2,-4.101470947E-1,5.535291354E-1
1.190642692E1,1.118623810E0,2.540217590E-1,-1.142124939E-1,1.152775249E0
1.191636592E1,2.170187073E0,3.351530457E-1,-5.837860107E-3,2.195922033E0
1.192630492E1,3.572171631E0,6.780899048E-2,-1.784289551E-1,3.577267828E0
1.193624392E1,5.122198334E0,-6.951544189E-1,-6.438111877E-1,5.209092846E0
1.194618292E1,7.139702911E0,-2.061063995E0,-1.218765564E0,7.530520032E0
1.195612292E1,9.727820892E0,-4.171375580E0,-1.882335663E0,1.075053771E1
1.196606192E1,1.254226822E1,-7.083869019E0,-2.702779541E0,1.465587628E1
1.197600092E1,1.646381332E1,-1.067879333E1,-3.714525604E0,1.997226769E1
1.198593992E1,2.214749405E1,-1.528142212E1,-4.732109528E0,2.732080188E1
1.199587892E1,2.813384537E1,-2.072694809E1,-5.864953766E0,3.543327977E1
1.200581792E1,3.268034088E1,-2.592159576E1,-7.029831390E0,4.230073683E1
1.201575792E1,3.575285156E1,-2.974090347E1,-7.081923065E0,4.704191077E1
1.202569692E1,3.589460678E1,-3.065190903E1,-4.634512482E0,4.742827246E1
1.203563592E1,3.269441162E1,-2.846136429E1,-3.441343689E-1,4.334849752E1
1.204557492E1,2.845717300E1,-2.430420914E1,4.358336792E0,3.767625747E1
1.205551392E1,2.411560135E1,-1.952165451E1,8.654253387E0,3.221107457E1
1.206545292E1,1.998733612E1,-1.501811966E1,1.212837891E1,2.778731902E1
1.207539192E1,1.714235229E1,-1.110615463E1,1.481843491E1,2.523475631E1
1.208533192E1,1.529803757E1,-8.903485107E0,1.612970810E1,2.394722288E1
1.209527092E1,1.448687439E1,-7.927364960E0,1.475661346E1,2.214656375E1
1.210520992E1,1.463581467E1,-7.183711395E0,1.079120956E1,1.955154685E1
1.211514892E1,1.371433090E1,-6.194867706E0,6.165379028E0,1.626256919E1
1.212508792E1,1.108714417E1,-5.120851135E0,1.101708984E0,1.226220391E1
1.213502692E1,7.163802795E0,-3.519930267E0,-4.948260040E0,9.391232986E0
1.214496692E1,2.626288605E0,-1.291963348E0,-1.275288025E1,1.308443792E1
1.215490592E1,-7.607180786E-1,1.512305145E0,-2.177776291E1,2.184345935E1
1.216484492E1,-1.783092041E0,4.264631653E0,-2.833023697E1,2.870485720E1
1.217478392E1,-1.389111328E0,4.133803711E0,-2.614642822E1,2.650761536E1
1.218472292E1,-7.472460938E-1,3.116070099E0,-1.680166077E1,1.710450450E1
1.219466192E1,-8.092172241E-1,2.584226074E0,-7.910150757E0,8.360833805E0
1.220460092E1,-2.255210266E0,2.142644348E0,-2.252665558E0,3.840755168E0
1.221454092E1,-3.185375977E0,2.053429871E0,1.553170166E0,4.095794417E0
1.222447992E1,-3.159629517E0,2.010469208E0,3.933520203E0,5.431190137E0
1.223441892E1,-2.667153625E0,1.962568817E0,5.079986115E0,6.063962710E0
1.224435792E1,-2.119292908E0,1.968556366E0,5.114564209E0,5.875830464E0
1.225429692E1,-1.725761261E0,1.876797180E0,4.281696167E0,4.983326364E0
1.226423592E1,-1.500629425E0,1.497935028E0,3.138822784E0,3.787863051E0
1.227417592E1,-1.360221405E0,1.131047974E0,2.292033691E0,2.895322129E0
1.228411492E1,-1.145567780E0,9.862989807E-1,1.972747650E0,2.485325835E0
1.229405392E1,-6.439608765E-1,9.229806519E-1,2.020498352E0,2.312788898E0
1.230399292E1,2.335144043E-2,8.690927124E-1,2.066452789E0,2.241895306E0
1.231393192E1,6.963519287E-1,8.280780029E-1,1.986668701E0,2.262182954E0
1.232387092E1,1.220262451E0,7.834707642E-1,1.753453674E0,2.275404728E0
1.233380992E1,1.727258148E0,8.755293274E-1,1.312620392E0,2.339432539E0
1.234374992E1,2.637515259E0,7.897576904E-1,7.559280396E-1,2.855106154E0
1.235368892E1,3.635789337E0,1.716929626E-1,-1.347198486E-2,3.639865941E0
1.236362792E1,4.706812134E0,-1.013542328E0,-9.297166443E-1,4.903643702E0
1.237356692E1,6.324947205E0,-3.021167450E0,-1.915117493E0,7.266366693E0
1.238350592E1,8.575217743E0,-6.128555603E0,-2.849773865E0,1.091855138E1
1.239344492E1,1.136451736E1,-1.009695328E1,-3.804787903E0,1.567090078E1
1.240338492E1,1.498324219E1,-1.425979660E1,-4.680766296E0,2.120728457E1
1.241332392E1,1.972433304E1,-1.828402817E1,-5.143603821E0,2.738268906E1
1.242326292E1,2.507061539E1,-2.269445663E1,-5.420527954E0,3.424844874E1
1.243320192E1,3.071447891E1,-2.679592758E1,-5.425916748E0,4.111984341E1
1.244314092E1,3.615147263E1,-2.952250763E1,-4.418811035E0,4.688318804E1
1.245307992E1,3.857687897E1,-2.849818771E1,-2.277214508E0,4.801570576E1
1.246301892E1,3.704526398E1,-2.274834457E1,3.966751099E-1,4.347408556E1
1.247295892E1,3.314736969E1,-1.672846298E1,2.730921021E0,3.722965915E1
1.248289792E1,2.833457794E1,-1.282473083E1,4.895419922E0,3.148471319E1
1.249283692E1,2.403447006E1,-1.027957352E1,6.876101074E0,2.702972713E1
1.250277592E1,2.024450134E1,-8.699609070E0,8.342451782E0,2.356097482E1
1.251271492E1,1.634840332E1,-7.698939972E0,8.384664001E0,1.992100796E1
1.252265454E1,1.219573883E1,-6.395749969E0,6.004014587E0,1.502297755E1
1.253259454E1,1.002959335E1,-3.895050201E0,7.783813477E-2,1.075965695E1
1.254253354E1,8.643625488E0,-7.176077271E-1,-8.423583069E0,1.209065648E1
1.255247254E1,5.747148743E0,1.020128632E0,-1.470152802E1,1.581787935E1
1.256241154E1,3.398981781E0,2.388283539E0,-1.546868271E1,1.601677621E1
1.257235054E1,3.094814301E0,2.786455536E0,-1.206176743E1,1.276042489E1
1.258228954E1,2.098037109E0,2.712808685E0,-7.539222107E0,8.282569689E0
1.259222854E1,-1.309776306E-1,2.943329315E0,-3.891307983E0,4.880842183E0
1.260216854E1,-1.874701538E0,2.767894135E0,-1.760189667E0,3.778096275E0
1.261210754E1,-3.025658112E0,2.179617462E0,-7.803273010E-1,3.809757208E0
1.262204654E1,-4.056115265E0,1.902843018E0,-3.332070923E-1,4.492650616E0
1.263198554E1,-4.837490387E0,1.833237762E0,-7.334747314E-2,5.173727263E0
1.264192454E1,-5.338199158E0,1.587448883E0,1.080752563E-1,5.570282261E0
1.265186354E1,-5.408852234E0,1.413061523E0,2.377056885E-1,5.595438263E0
1.266180354E1,-4.920268250E0,1.390159149E0,2.983296204E-1,5.121580095E0
1.267174254E1,-4.036655731E0,1.288221130E0,3.429368591E-1,4.251083258E0
1.268168154E1,-3.207829285E0,1.054407349E0,5.593867493E-1,3.422697344E0
1.269162054E1,-2.651136932E0,7.376660156E-1,9.102571106E-1,2.898490330E0
1.270155954E1,-2.233056335E0,5.989045715E-1,1.265917511E0,2.635863128E0
1.271149854E1,-1.724114685E0,5.725593567E-1,1.445244598E0,2.321449464E0
1.272143754E1,-1.040486298E0,4.632865906E-1,1.451232147E0,1.844809189E0
1.273137754E1,-4.463717651E-1,3.350033569E-1,1.334624634E0,1.446616022E0
1.274131654E1,4.640350342E-2,3.658392334E-1,1.102457428E0,1.162499037E0
1.275125554E1,6.168672180E-1,5.496569824E-1,8.222401428E-1,1.165644378E0
1.276119454E1,1.253044281E0,5.902226257E-1,3.297642517E-1,1.423807283E0
1.277113354E1,2.050585785E0,5.716612244E-1,-3.903881836E-1,2.164278529E0
1.278107254E1,3.339705048E0,2.740800476E-1,-1.182540894E0,3.553470507E0
1.279101154E1,5.094805298E0,-8.497828674E-1,-2.137704620E0,5.590076295E0
1.280095154E1,7.348967743E0,-2.871029663E0,-3.312761078E0,8.557132941E0
1.281089054E1,1.034917877E1,-6.516548767E0,-4.546046448E0,1.304750732E1
1.282082954E1,1.353425537E1,-1.201132233E1,-5.794151001E0,1.900052942E1
1.283076854E1,1.785457123E1,-1.802237228E1,-7.036118317E0,2.632676542E1
1.284070754E1,2.430989731E1,-2.444386871E1,-7.787106628E0,3.534279070E1
1.285064654E1,3.087958557E1,-3.007650558E1,-8.134983215E0,4.386710550E1
1.286058654E1,3.558909210E1,-3.255909302E1,-7.999664612E0,4.889450530E1
1.287052554E1,3.627795959E1,-3.080369339E1,-6.622678070E0,4.805015862E1
1.288046454E1,3.389042450E1,-2.717344254E1,-3.852837982E0,4.360964587E1
1.289040354E1,2.973880783E1,-2.408925613E1,2.772235107E-1,3.827225895E1
1.290034254E1,2.503259445E1,-2.129426834E1,5.068609772E0,3.325308188E1
1.291028154E1,2.055675201E1,-1.800725372E1,9.737700348E0,2.901144685E1
1.292022054E1,1.659284500E1,-1.414648224E1,1.407882294E1,2.595493634E1
1.293016054E1,1.406819504E1,-1.084449875E1,1.686917038E1,2.449665638E1
1.294009954E1,1.276979507E1,-9.064699860E0,1.622805359E1,2.255185520E1
1.295003854E1,1.234093689E1,-8.573122101E0,1.195234497E1,1.920040875E1
1.295997754E1,1.207119781E1,-7.632478180E0,6.303691406E0,1.561105586E1
1.296991654E1,1.042686722E1,-5.157225494E0,2.165995789E-1,1.163457993E1
1.297985554E1,7.644752655E0,-1.898951111E0,-5.482050018E0,9.596933410E0
1.298979454E1,4.158951416E0,1.639091492E-1,-1.070304291E1,1.148385260E1
1.299973454E1,1.181942139E0,8.897497559E-1,-1.477697113E1,1.485084232E1
1.300967354E1,-4.492158508E-1,1.690883789E0,-1.717423599E1,1.726311863E1
1.301961254E1,-6.882687378E-1,3.164718933E0,-1.920236847E1,1.947357478E1
1.302955154E1,-2.380050659E-1,4.069736938E0,-1.896226776E1,1.939554082E1
1.303949054E1,-1.098864899E0,2.936443634E0,-1.399305130E1,1.434000314E1
1.304942954E1,-2.035018158E0,1.925146637E0,-7.460336151E0,7.968946227E0
1.305936954E1,-3.139271851E0,1.558109894E0,-2.399210815E0,4.247228123E0
1.306930854E1,-4.456682281E0,1.445843353E0,7.858657837E-1,4.750796248E0
1.307924754E1,-5.155728607E0,1.585053864E0,2.592009888E0,5.984350297E0
1.308918654E1,-5.496420135E0,1.690734100E0,3.235821075E0,6.598466044E0
1.309912554E1,-5.586682434E0,1.420246582E0,2.985242157E0,6.491516904E0
1.310906454E1,-5.290598145E0,9.663903809E-1,2.197131042E0,5.809623388E0
1.311900354E1,-4.860392761E0,7.333250427E-1,1.528920593E0,5.147696727E0
1.312894354E1,-4.306544495E0,6.054908752E-1,1.316512299E0,4.543803398E0
1.313888254E1,-3.528612213E0,4.373904419E-1,1.494492188E0,3.856931610E0
1.314882154E1,-2.691403198E0,3.447331238E-1,1.828896790E0,3.272209585E0
1.315876054E1,-1.714384918E0,4.317022705E-1,2.033371582E0,2.694454024E0
1.316869954E1,-6.215075684E-1,5.450166321E-1,1.918859711E0,2.089338981E0
1.317863854E1,4.605921936E-1,5.363346863E-1,1.469045105E0,1.630304752E0
1.318857754E1,1.546284485E0,5.105882263E-1,7.246430969E-1,1.782359016E0
1.319851754E1,2.874173126E0,2.420466614E-1,-2.686912537E-1,2.896834951E0
1.320845654E1,4.494403839E0,-7.589218140E-1,-1.389261017E0,4.765047152E0
1.321839554E1,5.918392639E0,-2.637365570E0,-2.457439728E0,6.929796433E0
1.322833454E1,7.856262817E0,-5.329816589E0,-3.540437622E0,1.013225093E1
1.323827354E1,1.015323624E1,-8.394543457E0,-4.880900116E0,1.404919043E1
1.324821254E1,1.294732590E1,-1.155836426E1,-6.627318420E0,1.857822332E1
1.325815254E1,1.749965927E1,-1.567255875E1,-8.735234985E0,2.506334979E1
1.326809154E1,2.358480515E1,-2.134576126E1,-1.064735870E1,3.354475823E1
1.327803054E1,2.949256989E1,-2.724529312E1,-1.203212906E1,4.191526936E1
1.328796954E1,3.469440262E1,-3.152818680E1,-1.213661179E1,4.842546315E1
1.329790854E1,3.713238281E1,-3.282883209E1,-9.679770813E0,5.049994092E1
1.330784754E1,3.554598175E1,-3.131817352E1,-4.724475403E0,4.760951039E1
1.331778654E1,3.197410950E1,-2.878933228E1,7.994874573E-1,4.303264472E1
1.332772654E1,2.709051498E1,-2.503424103E1,5.945336609E0,3.736249795E1
1.333766554E1,2.235586075E1,-2.007415558E1,1.073372910E1,3.190562916E1
1.334760454E1,1.778601379E1,-1.472892105E1,1.527917679E1,2.769000985E1
1.335754354E1,1.268986130E1,-9.399403839E0,1.938094711E1,2.500004967E1
1.336748254E1,8.643326111E0,-5.533393250E0,2.026411057E1,2.271474640E1
1.337742154E1,7.427554321E0,-4.608167267E0,1.697440155E1,1.909277551E1
1.338736154E1,8.297096100E0,-5.470224609E0,1.151854706E1,1.521322081E1
1.339730054E1,8.373886414E0,-5.332660675E0,5.804479523E0,1.150005331E1
1.340723954E1,7.047344971E0,-3.802093506E0,8.017327881E-1,8.047593530E0
1.341717854E1,4.644092560E0,-2.172582092E0,-3.631897430E0,6.283182919E0
1.342711754E1,1.798060913E0,-8.428971863E-1,-7.911947021E0,8.157352780E0
1.343705654E1,-5.096900940E-1,7.533833313E-1,-1.184935913E1,1.188421988E1
1.344699554E1,-1.471140747E0,2.749931488E0,-1.507021133E1,1.538953047E1
1.345693554E1,-1.136436768E0,4.455035706E0,-1.734667740E1,1.794564149E1
1.346687454E1,-4.418811035E-1,4.326004028E0,-1.559487030E1,1.618979770E1
1.347681354E1,-9.114546204E-1,3.698957977E0,-1.069376221E1,1.135207425E1
1.348675254E1,-2.038760376E0,3.325634308E0,-6.437662811E0,7.527276393E0
1.349669154E1,-3.752696228E0,2.225571899E0,-3.866309967E0,5.829601360E0
1.350663054E1,-5.022056580E0,1.179696808E0,-2.342329102E0,5.665619337E0
1.351656954E1,-5.448070679E0,6.957531738E-1,-1.804347839E0,5.781108693E0
1.352650967E1,-5.545817413E0,1.987866211E-1,-1.901944885E0,5.866259562E0
1.353644867E1,-5.499862976E0,-2.585124207E-1,-2.218087463E0,5.935927343E0
1.354638767E1,-5.214256897E0,-1.740879822E-1,-2.402054901E0,5.743574615E0
1.355632667E1,-4.194577332E0,3.872447205E-1,-2.175575867E0,4.741051341E0
1.356626567E1,-2.517614594E0,8.538244629E-1,-1.656006317E0,3.132053061E0
1.357620467E1,-7.952961731E-1,1.104253693E0,-1.030906219E0,1.707231635E0
1.358614367E1,5.611830139E-1,1.238374786E0,-4.676275635E-1,1.437767027E0
1.359608367E1,1.423689423E0,1.287622375E0,6.885681152E-3,1.919612035E0
1.360602267E1,2.077829132E0,1.238524475E0,2.634521484E-1,2.433253750E0
1.361596167E1,2.940185852E0,1.024020538E0,3.347039795E-1,3.131347579E0
1.362590067E1,3.970193939E0,5.043013000E-1,1.965412903E-1,4.006917543E0
1.363583967E1,5.174739075E0,-8.300239563E-1,-1.978884888E-1,5.244618586E0
1.364577867E1,6.702462158E0,-3.624862061E0,-9.864486694E-1,7.683469589E0
1.365571767E1,8.926686859E0,-7.759414215E0,-2.049088898E0,1.200387490E1
1.366565767E1,1.144415176E1,-1.287427780E1,-3.093167725E0,1.750095212E1
1.367559667E1,1.420590866E1,-1.808329559E1,-3.776945801E0,2.330404986E1
1.368553567E1,1.764815048E1,-2.293365921E1,-3.927832031E0,2.920338687E1
1.369547467E1,2.243968643E1,-2.626872391E1,-3.194057922E0,3.469563934E1
1.370541367E1,2.796095490E1,-2.805286377E1,-1.724863129E0,3.964534420E1
1.371535267E1,3.265998322E1,-2.837963425E1,-3.808081055E-1,4.326919410E1
1.372529267E1,3.383533905E1,-2.708527588E1,-1.190025330E-1,4.334116403E1
1.373523167E1,3.127596130E1,-2.406785065E1,-1.148112488E-1,3.946467245E1
1.374517067E1,2.737612106E1,-2.147823578E1,1.863025818E0,3.484591055E1
1.375510967E1,2.273427383E1,-2.012579819E1,5.922284546E0,3.093490607E1
1.376504867E1,1.778257095E1,-1.903621399E1,1.026505371E1,2.799943929E1
1.377498767E1,1.400293076E1,-1.653087387E1,1.351763992E1,2.553582679E1
1.378492667E1,1.192225754E1,-1.268896317E1,1.453791824E1,2.268261620E1
1.379486667E1,1.160865967E1,-9.349258118E0,1.262534546E1,1.953379007E1
1.380480567E1,1.305091049E1,-7.306306458E0,8.400980072E0,1.715473243E1
1.381474467E1,1.416459457E1,-5.405708771E0,3.693120117E0,1.560437640E1
1.382468367E1,1.287218216E1,-3.276835785E0,-9.202862549E-1,1.331456545E1
1.383462267E1,9.335786133E0,-1.341061249E0,-4.634362793E0,1.050869480E1
1.384456167E1,5.470973053E0,5.046006775E-1,-7.243437195E0,9.091399803E0
1.385450067E1,3.076402588E0,2.215842133E0,-9.562265167E0,1.028645344E1
1.386444067E1,1.942211151E0,3.318149872E0,-1.063478485E1,1.130844603E1
1.387437967E1,1.936522980E0,4.095932465E0,-1.009859985E1,1.106835593E1
1.388431867E1,1.562151489E0,4.578828278E0,-8.479117584E0,9.762244654E0
1.389425767E1,4.087998962E-1,4.531077576E0,-6.056106262E0,7.574576187E0
1.390419667E1,-1.698667603E0,4.025728455E0,-4.386328583E0,6.191271247E0
1.391413567E1,-3.732787628E0,3.252885590E0,-3.688629456E0,6.174216987E0
1.392407467E1,-4.773573303E0,2.496358795E0,-3.259621582E0,6.296343556E0
1.393401467E1,-5.144951019E0,2.021845551E0,-2.604733429E0,6.110893278E0
1.394395367E1,-5.357509003E0,1.580862579E0,-1.763782196E0,5.857726252E0
1.395389267E1,-5.536536713E0,8.831634521E-1,-1.334624634E0,5.763196974E0
1.396383167E1,-5.532046051E0,2.294728088E-1,-1.211430817E0,5.667782274E0
1.397377067E1,-5.610033875E0,-2.655477905E-1,-1.193617859E0,5.741752284E0
1.398370967E1,-5.193300476E0,-2.878514099E-1,-1.247356110E0,5.348749904E0
1.399364967E1,-3.917503510E0,3.547622681E-2,-1.023870850E0,4.049247316E0
1.400358867E1,-2.168540497E0,3.998185730E-1,-5.529501343E-1,2.273362406E0
1.401352767E1,-4.799020386E-1,6.503974915E-1,-4.984634399E-2,8.098194376E-1
1.402346667E1,9.101074219E-1,7.467970276E-1,3.594026184E-1,1.230923053E0
1.403340567E1,2.049238586E0,8.330177307E-1,6.027964783E-1,2.292740918E0
1.404334467E1,3.056943054E0,8.759783936E-1,6.005511475E-1,3.236186129E0
1.405328367E1,4.137096863E0,6.030958557E-1,3.147953796E-1,4.192659203E0
1.406322367E1,5.542524261E0,-5.849835205E-1,-3.216810608E-1,5.582585388E0
1.407316267E1,7.678133240E0,-3.139122162E0,-1.183289337E0,8.379020924E0
1.408310167E1,1.031145721E1,-7.157515869E0,-2.373614044E0,1.277459302E1
1.409304067E1,1.334804260E1,-1.245395187E1,-4.035158844E0,1.869635434E1
1.410297967E1,1.689611435E1,-1.883578079E1,-6.164630585E0,2.604357864E1
1.411291867E1,2.263877243E1,-2.556668381E1,-8.463549957E0,3.518239639E1
1.412285767E1,3.022200302E1,-3.191857498E1,-9.817035370E0,4.503930593E1
1.413279767E1,3.568354568E1,-3.476086441E1,-8.458460541E0,5.052898853E1
1.414273667E1,3.718282791E1,-3.250715103E1,-3.830833740E0,4.953738837E1
1.415267567E1,3.606046188E1,-2.790766571E1,1.786085815E0,4.563315482E1
1.416261467E1,3.373414948E1,-2.198732712E1,6.072871399E0,4.072241596E1
1.417255367E1,3.051973389E1,-1.614213226E1,9.445058899E0,3.579429742E1
1.418249267E1,2.690490097E1,-1.248418900E1,1.239213043E1,3.214488401E1
1.419243167E1,2.321178085E1,-1.023721161E1,1.415965485E1,2.905310822E1
1.420237167E1,1.863355133E1,-8.376580811E0,1.306707687E1,2.425128531E1
1.421231067E1,1.367840561E1,-6.999294891E0,9.370513916E0,1.799709532E1
1.422224967E1,9.262738037E0,-5.783523102E0,4.397106171E0,1.177208555E1
1.423218867E1,5.450016632E0,-4.031566315E0,-1.008303223E0,6.853676650E0
1.424212767E1,2.624342651E0,-1.879192200E0,-5.406008148E0,6.296305407E0
1.425206667E1,2.024839325E0,2.246827698E-1,-8.484805756E0,8.725960426E0
1.426200567E1,3.450175323E0,2.295027466E0,-9.968370667E0,1.079533578E1
1.427194567E1,5.154531097E0,3.774550781E0,-9.651329956E0,1.157430751E1
1.428188467E1,5.750890961E0,4.616549835E0,-7.933801575E0,1.083191980E1
1.429182367E1,4.859794006E0,5.144202576E0,-6.087690582E0,9.334901957E0
1.430176267E1,3.082390137E0,5.012177124E0,-4.554878082E0,7.441099571E0
1.431170167E1,1.116079102E0,4.371359711E0,-3.282074890E0,5.579106906E0
1.432164067E1,-6.352789307E-1,3.718716888E0,-2.784060516E0,4.688648801E0
1.433157967E1,-2.574196930E0,2.797382812E0,-2.869383087E0,4.762898249E0
1.434151967E1,-4.510420532E0,1.919757843E0,-2.962040405E0,5.727394426E0
1.435145867E1,-5.942193146E0,1.310375061E0,-2.574496307E0,6.607175903E0
1.436139767E1,-6.773713989E0,7.710466003E-1,-1.776805115E0,7.045193431E0
1.437133667E1,-6.885381775E0,3.363505554E-1,-8.063731384E-1,6.940594465E0
1.438127567E1,-6.536756744E0,-2.110610962E-2,-2.634521484E-2,6.536843908E0
1.439121467E1,-6.441854095E0,-4.110452271E-1,4.965174866E-1,6.474022859E0
1.440115467E1,-6.741680603E0,-7.143145752E-1,5.510041809E-1,6.801772436E0
1.441109367E1,-6.683302002E0,-7.048841858E-1,5.525010681E-1,6.743044179E0
1.442103267E1,-5.850433960E0,-4.308041382E-1,7.180567932E-1,5.910057130E0
1.443097167E1,-4.474195862E0,-2.642005920E-1,8.470884705E-1,4.561336366E0
1.444091067E1,-2.776426392E0,-2.278262329E-1,8.840615845E-1,2.922672268E0
1.445084967E1,-8.999285889E-1,-4.805007935E-1,8.235873413E-1,1.311124932E0
1.446078867E1,1.149759064E0,-1.277293854E0,5.963598633E-1,1.819085094E0
1.447072867E1,3.475323029E0,-2.801873474E0,1.158590698E-1,4.465622962E0
1.448066767E1,6.489904175E0,-5.160368958E0,-6.258485413E-1,8.315043618E0
1.449060667E1,9.824819183E0,-8.588090973E0,-1.794917450E0,1.317209578E1
1.450054567E1,1.453342758E1,-1.379591125E1,-3.247496796E0,2.030009655E1
1.451048467E1,2.114248398E1,-2.096525253E1,-4.876708832E0,3.017165444E1
1.452042367E1,2.778537003E1,-2.727358429E1,-6.725813599E0,3.951090680E1
1.453036229E1,3.055670700E1,-2.705698471E1,-8.687783661E0,4.172853160E1
1.454030229E1,3.159375046E1,-2.360112122E1,-1.036714142E1,4.077567427E1
1.455024129E1,3.384551788E1,-2.217129456E1,-9.769284668E0,4.162360275E1
1.456018029E1,3.486639496E1,-2.139994858E1,-6.309229889E0,4.139359465E1
1.457011929E1,3.398278244E1,-2.014780243E1,-1.597777405E0,3.953879535E1
1.458005829E1,3.151546326E1,-1.833686829E1,2.919828186E0,3.657855327E1
1.458999729E1,2.810196167E1,-1.590278000E1,7.105723572E0,3.306221361E1
1.459993629E1,2.483605316E1,-1.284972885E1,1.087952591E1,3.000515209E1
1.460987629E1,2.067246140E1,-9.851912842E0,1.319820419E1,2.643110744E1
1.461981529E1,1.609872253E1,-7.270979919E0,1.316437454E1,2.203036026E1
1.462975429E1,1.201850739E1,-5.705684967E0,1.124790985E1,1.742167721E1
1.463969329E1,9.080117798E0,-5.455255737E0,8.089328156E0,1.332837516E1
1.464963229E1,7.098239136E0,-5.194048920E0,4.669389954E0,9.958230041E0
1.465957129E1,5.520370331E0,-4.180506592E0,1.986968079E0,7.204107585E0
1.466951029E1,4.087549896E0,-2.556683350E0,4.595443726E-2,4.821494137E0
1.467945029E1,3.051853638E0,-1.047371979E0,-1.447040863E0,3.536202193E0
1.468938929E1,2.312541046E0,2.324665833E-1,-2.834505615E0,3.665557104E0
1.469932829E1,1.960173798E0,1.548529816E0,-4.444557495E0,5.098462242E0
1.470926729E1,2.452649689E0,3.049907684E0,-6.650520172E0,7.716660284E0
1.471920629E1,3.301534424E0,4.720433807E0,-9.977052612E0,1.152059910E1
1.472914529E1,2.820135498E0,5.714067535E0,-1.276620255E1,1.426813441E1
1.473908429E1,1.095122681E0,5.069956970E0,-1.268013153E1,1.369998150E1
1.474902429E1,9.984237671E-2,3.989204407E0,-1.002016296E1,1.078551742E1
1.475896329E1,-8.860075378E-1,2.793341217E0,-6.897356873E0,7.494084089E0
1.476890229E1,-2.862048340E0,1.541793823E0,-4.661905518E0,5.683468303E0
1.477884129E1,-5.178481293E0,6.096821594E-1,-3.298241272E0,6.169827901E0
1.478878029E1,-7.300468597E0,-1.517843628E-1,-2.643652496E0,7.765872698E0
1.479871929E1,-8.917705536E0,-8.617579651E-1,-2.539020081E0,9.312073979E0
1.480865829E1,-9.528285828E0,-1.425036621E0,-2.906356201E0,1.006309428E1
1.481859829E1,-9.157806244E0,-1.611997833E0,-3.126548309E0,9.810160883E0
1.482853729E1,-8.210875397E0,-1.337768097E0,-2.551893311E0,8.701738776E0
1.483847629E1,-6.488407288E0,-9.412426758E-1,-1.420995026E0,6.708546323E0
1.484841529E1,-4.491859131E0,-7.421566772E-1,-2.785707092E-1,4.561271383E0
1.485835429E1,-2.587818604E0,-3.326083374E-1,6.753955078E-1,2.695105290E0
1.486829329E1,-9.565109253E-1,2.483335876E-1,1.288071442E0,1.623487222E0
1.487823229E1,5.751040649E-1,6.562353516E-1,1.487307129E0,1.724375834E0
1.488817229E1,2.169887695E0,6.839277649E-1,1.310674438E0,2.625649878E0
1.489811129E1,3.854334869E0,1.035845947E-1,7.911048889E-1,3.936048018E0
1.490805029E1,5.595813446E0,-1.272354126E0,8.412506104E-2,5.739258678E0
1.491798929E1,7.900870056E0,-3.533102875E0,-7.553292847E-1,8.687754940E0
1.492792829E1,1.035217255E1,-6.702761536E0,-1.720073090E0,1.245203357E1
1.493786729E1,1.237192245E1,-1.059362045E1,-2.833906860E0,1.653240115E1
1.494780629E1,1.410292282E1,-1.445484100E1,-4.516408081E0,2.069378657E1
1.495774629E1,1.750983810E1,-1.854134308E1,-6.123915253E0,2.622743166E1
1.496768529E1,2.314606750E1,-2.306448715E1,-6.473438416E0,3.331090532E1
1.497762429E1,3.066732697E1,-2.611469421E1,-5.772296448E0,4.069129641E1
1.498756329E1,3.943444565E1,-2.812965408E1,-5.031636658E0,4.869979784E1
1.499750229E1,4.485961395E1,-2.930785400E1,-4.046235809E0,5.373739196E1
1.500744129E1,4.314717499E1,-2.707644424E1,-2.343825989E0,5.099319624E1
1.501738029E1,3.776511703E1,-2.191517715E1,1.259181519E0,4.368139870E1
1.502732029E1,3.149345901E1,-1.716495529E1,6.940317535E0,3.653274775E1
1.503725929E1,2.456601471E1,-1.403167099E1,1.293011169E1,3.110570137E1
1.504719829E1,1.865929779E1,-1.159803177E1,1.750624557E1,2.809185592E1
1.505713729E1,1.445828384E1,-9.683063965E0,1.908800629E1,2.582935701E1
1.506707629E1,1.147349075E1,-8.713829498E0,1.642249924E1,2.184651679E1
1.507701529E1,8.697962494E0,-9.381291504E0,1.082683548E1,1.675958079E1
1.508695429E1,5.488786011E0,-9.659413147E0,4.300556946E0,1.191326254E1
1.509689429E1,2.355501709E0,-7.769143982E0,-1.022673340E0,8.182533060E0
1.510683329E1,4.617897034E-1,-4.869673462E0,-4.715943146E0,6.794636790E0
1.511677229E1,-1.437011719E-2,-2.406545563E0,-7.468119965E0,7.846303834E0
1.512671129E1,-2.519261169E-1,-2.031275940E-1,-9.749675446E0,9.755044791E0
1.513665029E1,1.431024170E-1,1.891616364E0,-1.086425766E1,1.102863479E1
1.514658929E1,1.706601105E0,3.445235596E0,-1.017763550E1,1.087963235E1
1.515652829E1,3.273842010E0,4.628375244E0,-8.533155212E0,1.024473703E1
1.516646829E1,4.172573090E0,6.146967316E0,-7.718698883E0,1.071325748E1
1.517640729E1,4.296215973E0,7.066355438E0,-7.272027740E0,1.101241292E1
1.518634629E1,2.878065033E0,6.391109619E0,-5.900130615E0,9.161936573E0
1.519628529E1,1.529369659E0,5.422623596E0,-4.173471222E0,7.011539079E0
1.520622429E1,5.959107971E-1,4.524940338E0,-2.801424408E0,5.355200599E0
1.521616329E1,-6.012995911E-1,3.498524780E0,-1.896855469E0,4.024835091E0
1.522610229E1,-1.767524414E0,2.715802460E0,-1.379381561E0,3.521706837E0
1.523604229E1,-2.358944550E0,2.237546997E0,-1.086291046E0,3.428011696E0
1.524598129E1,-2.202519836E0,1.821262665E0,-1.170565796E0,3.088416359E0
1.525592029E1,-1.470991058E0,1.341809692E0,-1.132544861E0,2.290616905E0
1.526585929E1,-6.107299805E-1,9.517208862E-1,-8.577163696E-1,1.419310088E0
1.527579829E1,7.858657837E-2,8.387059021E-1,-4.388873291E-1,9.498555302E-1
1.528573729E1,6.568341064E-1,8.566685486E-1,2.245330811E-2,1.079729687E0
1.529567629E1,1.058748322E0,8.092172241E-1,4.108955383E-1,1.394494771E0
1.530561629E1,1.305585022E0,6.248007202E-1,6.655160522E-1,1.593059888E0
1.531555529E1,1.464554443E0,2.055226135E-1,7.066804504E-1,1.639071848E0
1.532549429E1,1.659748535E0,-3.610491943E-1,4.827461243E-1,1.765832818E0
1.533543329E1,2.159259796E0,-1.115630035E0,-1.586700439E-2,2.430490692E0
1.534537229E1,3.212170258E0,-2.330204315E0,-7.589218140E-1,4.040278732E0
1.535531129E1,4.839586029E0,-4.421206055E0,-1.703158264E0,6.772695474E0
1.536525029E1,6.948849792E0,-7.451803894E0,-2.774181061E0,1.055992307E1
1.537519029E1,9.191486206E0,-1.124940674E1,-3.948788452E0,1.505408585E1
1.538512929E1,1.222432938E1,-1.625829071E1,-5.625451813E0,2.110478509E1
1.539506829E1,1.684551956E1,-2.267993683E1,-7.517816620E0,2.923471619E1
1.540500729E1,2.334545288E1,-2.913496353E1,-9.423054657E0,3.850519743E1
1.541494629E1,3.063828735E1,-3.430925354E1,-1.112950607E1,4.732542061E1
1.542488529E1,3.319362350E1,-3.433006027E1,-1.128144012E1,4.906771414E1
1.543482429E1,3.167577988E1,-3.138897629E1,-8.707392883E0,4.543612609E1
1.544476429E1,2.936817856E1,-3.011063461E1,-3.544778595E0,4.221025567E1
1.545470329E1,2.586007370E1,-2.797577408E1,2.634371796E0,3.818805130E1
1.546464229E1,2.188553879E1,-2.362911301E1,9.209149475E0,3.349806298E1
1.547458129E1,1.782238815E1,-1.883308640E1,1.630634079E1,3.063036749E1
1.548452029E1,1.555849594E1,-1.321302338E1,2.394315994E1,3.146308457E1
1.549445929E1,1.382330429E1,-7.227420502E0,2.891132858E1,3.285094015E1
1.550439829E1,1.217957245E1,-3.883224792E0,2.631542679E1,2.925616357E1
1.551433829E1,1.291723846E1,-4.378993835E0,1.856319763E1,2.303525435E1
1.552427767E1,1.383932098E1,-5.058730316E0,1.030981064E1,1.798359678E1
1.553421667E1,1.225381805E1,-4.770429840E0,2.904709625E0,1.346664011E1
1.554415567E1,8.716224518E0,-4.059857483E0,-3.540437622E0,1.024644871E1
1.555409467E1,4.305047607E0,-2.605631561E0,-9.475745087E0,1.072904915E1
1.556403367E1,6.849755859E-1,-5.815406799E-1,-1.418899384E1,1.421741633E1
1.557397267E1,-1.644480286E0,1.673220520E0,-1.717752914E1,1.733699772E1
1.558391267E1,-1.420695648E0,3.372486877E0,-1.782523224E1,1.819700383E1
1.559385167E1,1.351539459E0,3.995191956E0,-1.536434967E1,1.593271661E1
1.560379067E1,4.014052734E0,4.790787506E0,-1.111693222E1,1.275344841E1
1.561372967E1,4.910239105E0,5.610333252E0,-7.267387390E0,1.041159002E1
1.562366867E1,4.185895386E0,5.827681274E0,-4.074077911E0,8.251163557E0
1.563360767E1,2.288890228E0,5.369633789E0,-2.406395874E0,6.313693579E0
1.564354667E1,-3.405418396E-1,4.415667572E0,-2.698887634E0,5.186336213E0
1.565348667E1,-2.954406281E0,2.925516357E0,-2.735711060E0,4.977075188E0
1.566342567E1,-5.270988922E0,1.067130890E0,-3.169059906E0,6.242197789E0
1.567336467E1,-7.370822296E0,-7.551795959E-1,-4.045786743E0,8.442020369E0
1.568330367E1,-9.357940063E0,-2.168540497E0,-4.314178619E0,1.053023016E1
1.569324267E1,-1.013302826E1,-2.809357910E0,-3.908372498E0,1.121811611E1
1.570318167E1,-9.239835663E0,-2.568209381E0,-2.806663513E0,9.992378224E0
1.571312067E1,-7.206913147E0,-1.941911774E0,-1.535057831E0,7.620171979E0
1.572306067E1,-5.082979889E0,-1.366658020E0,-2.417472839E-1,5.269049292E0
1.573299967E1,-2.969674530E0,-8.342152405E-1,9.502239990E-1,3.227662859E0
1.574293867E1,-8.231382751E-1,-5.376818848E-1,1.841620331E0,2.087635953E0
1.575287767E1,9.842033386E-1,-6.201603699E-1,2.265688477E0,2.546880321E0
1.576281667E1,2.950963440E0,-1.416354675E0,2.157912598E0,3.920565338E0
1.577275567E1,5.457201691E0,-3.362757111E0,1.430275726E0,6.567714544E0
1.578269467E1,8.856931915E0,-6.821614380E0,2.878514099E-1,1.118313570E1
1.579263467E1,1.297831146E1,-1.203602097E1,-9.147477722E-1,1.772397056E1
1.580257367E1,1.765533554E1,-1.789723251E1,-1.744023285E0,2.520046472E1
1.581251267E1,2.337104965E1,-2.313588867E1,-2.410437469E0,3.297401273E1
1.582245167E1,2.870625504E1,-2.580693420E1,-3.011287994E0,3.871840372E1
1.583239067E1,3.337863876E1,-2.581127518E1,-3.580554199E0,4.234590677E1
1.584232967E1,3.671190720E1,-2.528766403E1,-3.566483459E0,4.472079926E1
1.585226867E1,3.773143707E1,-2.401216644E1,-2.127825165E0,4.477469286E1
1.586220867E1,3.758908310E1,-2.247950363E1,1.153351593E0,4.381321115E1
1.587214767E1,3.627287018E1,-2.055465637E1,5.671555939E0,4.207590232E1
1.588208667E1,3.243051041E1,-1.731988312E1,1.018541931E1,3.815047998E1
1.589202567E1,2.681463867E1,-1.266411484E1,1.325478653E1,3.248221079E1
1.590196467E1,2.074071945E1,-7.674989777E0,1.445364349E1,2.641951403E1
1.591190367E1,1.562420929E1,-4.148922272E0,1.395039001E1,2.135281840E1
1.592184267E1,1.212388824E1,-2.737956390E0,1.192405380E1,1.722405674E1
1.593178267E1,9.750573578E0,-3.320694580E0,7.846682739E0,1.294878865E1
1.594172167E1,7.560178528E0,-3.826193390E0,2.641556854E0,8.875464937E0
1.595166067E1,4.196373596E0,-3.151097260E0,-2.274819489E0,5.719595178E0
1.596159967E1,5.896238708E-1,-1.911524963E0,-6.543492737E0,6.842432403E0
1.597153867E1,-2.421514435E0,-1.079405365E0,-9.800569611E0,1.015283275E1
1.598147767E1,-4.547543335E0,-5.637277222E-1,-1.159324173E1,1.246600149E1
1.599141667E1,-5.544170837E0,1.574725342E-1,-1.169637726E1,1.294480084E1
1.600135667E1,-6.081253967E0,7.800279236E-1,-1.024649231E1,1.194071598E1
1.601129567E1,-6.111640778E0,1.058448944E0,-7.865543518E0,1.001694774E1
1.602123467E1,-5.596112823E0,1.129850464E0,-5.516777802E0,7.939009895E0
1.603117367E1,-5.433401184E0,1.206640778E0,-3.823049927E0,6.752298952E0
1.604111267E1,-5.053790588E0,1.181493073E0,-2.727927246E0,5.863302163E0
1.605105167E1,-4.262835388E0,1.165326691E0,-1.848805389E0,4.790389672E0
1.606099067E1,-3.445684662E0,1.221909027E0,-1.295855255E0,3.878794310E0
1.607092967E1,-2.684367828E0,1.028211823E0,-1.306034088E0,3.157336730E0
1.608086967E1,-2.005978546E0,9.551637268E-1,-1.532213745E0,2.698882479E0
1.609080867E1,-1.261875916E0,1.164877625E0,-1.966610413E0,2.610905441E0
1.610074767E1,-5.345384216E-1,1.322200470E0,-2.487676849E0,2.867486968E0
1.611068667E1,3.339555359E-1,1.503922577E0,-2.895877991E0,3.280155294E0
1.612062567E1,1.424886932E0,1.667981415E0,-3.081342316E0,3.782477394E0
1.613056467E1,2.524949341E0,1.690135345E0,-2.954855347E0,4.238289369E0
1.614050367E1,3.447031860E0,1.609752502E0,-2.574496307E0,4.593621992E0
1.615044367E1,4.091890869E0,1.478774872E0,-2.185155945E0,4.868804012E0
1.616038267E1,4.823868713E0,1.038690033E0,-2.053130493E0,5.344523475E0
1.617032167E1,5.821094971E0,-1.207987976E-1,-2.335293732E0,6.273223718E0
1.618026067E1,7.700287170E0,-2.221679993E0,-3.010689240E0,8.561222704E0
1.619019967E1,1.011177246E1,-5.574258270E0,-3.779640198E0,1.214932005E1
1.620013867E1,1.251816833E1,-9.508526917E0,-4.458628235E0,1.634001188E1
1.621007767E1,1.575324097E1,-1.449525696E1,-5.317242737E0,2.205788171E1
1.622001767E1,2.039419006E1,-2.056468552E1,-5.483846283E0,2.947714112E1
1.622995667E1,2.628414185E1,-2.552911194E1,-3.995191956E0,3.685855705E1
1.623989567E1,3.276641190E1,-2.826123047E1,-1.225800934E0,4.328784453E1
1.624983467E1,3.748295380E1,-2.896072586E1,2.213596802E0,4.741935763E1
1.625977367E1,3.918177109E1,-2.733046600E1,5.202880554E0,4.805450576E1
1.626971267E1,3.856146103E1,-2.303918976E1,7.789501648E0,4.559020594E1
1.627965167E1,3.652494598E1,-1.753244110E1,1.023361908E1,4.178738003E1
1.628959167E1,3.335438919E1,-1.347692459E1,1.177376633E1,3.785187377E1
1.629953067E1,2.870984756E1,-1.125359802E1,1.186612427E1,3.304094007E1
1.630946967E1,2.281525543E1,-1.044767395E1,1.039543259E1,2.716164189E1
1.631940867E1,1.681393524E1,-1.034543655E1,8.220754852E0,2.138497805E1
1.632934767E1,1.050320847E1,-1.092592941E1,4.945266266E0,1.594205069E1
1.633928667E1,4.589755554E0,-1.017000137E1,2.725831604E-1,1.116105217E1
1.634922567E1,1.430724792E0,-6.898853760E0,-4.010759583E0,8.107240533E0
1.635916467E1,2.318378906E0,-2.598446503E0,-6.784790955E0,7.626283058E0
1.636910467E1,4.615352325E0,6.333329773E-1,-8.467441864E0,9.664375793E0
1.637904367E1,6.405180359E0,2.701731720E0,-9.662406921E0,1.190326834E1
1.638898267E1,7.448361053E0,4.133654022E0,-1.086889801E1,1.380934908E1
1.639892167E1,7.928712158E0,4.275708618E0,-1.058523788E1,1.389940365E1
1.640886067E1,6.353238373E0,3.957320709E0,-9.634265442E0,1.220012687E1
1.641879967E1,2.947520599E0,4.034560089E0,-7.979157257E0,9.414483700E0
1.642873867E1,-7.170089722E-2,4.082460480E0,-6.447841644E0,7.631925475E0
1.643867867E1,-2.439327393E0,3.380121002E0,-5.280119934E0,6.727198721E0
1.644861767E1,-3.879632263E0,2.177072754E0,-4.217479706E0,6.130116422E0
1.645855667E1,-5.491480408E0,8.469387817E-1,-3.548969879E0,6.593091048E0
1.646849567E1,-7.285649414E0,-2.639012146E-1,-3.558100891E0,8.112361751E0
1.647843467E1,-8.111631775E0,-8.060737610E-1,-3.293002167E0,8.791597593E0
1.648837367E1,-7.968679047E0,-9.101074219E-1,-2.542762299E0,8.413904051E0
1.649831267E1,-7.317084045E0,-6.668632507E-1,-1.589544525E0,7.517385005E0
1.650825267E1,-6.274202728E0,-2.474354553E-1,-6.812333679E-1,6.315926146E0
1.651819167E1,-4.990172882E0,1.428030396E-1,-7.334747314E-3,4.992221139E0
