"Time (s)","Acceleration x (m/s^2)","Acceleration y (m/s^2)","Acceleration z (m/s^2)","Absolute acceleration (m/s^2)"
7.738333370E-4,-6.873706055E-1,2.429447937E-1,4.744982758E0,4.800662651E0
1.071383333E-2,-2.433938599E-1,5.800437927E-1,4.504732361E0,4.548439844E0
2.065483332E-2,1.808239746E0,4.616400146E-1,5.883515167E0,6.172405788E0
3.059483334E-2,8.629854126E0,-3.176394653E-1,1.190549240E1,1.470768596E1
4.053483333E-2,2.546100357E1,-2.530936890E0,2.131687134E1,3.330281291E1
5.047483332E-2,5.086153290E1,-5.175487518E0,2.542822174E1,5.709882364E1
6.041483334E-2,7.846173798E1,-5.057981873E0,2.120026382E1,8.143266355E1
7.035583333E-2,7.852311035E1,-6.342311096E-1,9.899962921E0,7.914727016E1
8.029583332E-2,7.654706955E1,6.547384644E-1,-1.400936737E0,7.656268780E1
9.023583334E-2,5.713633438E1,-1.991758118E0,-9.463320923E0,5.794896246E1
1.001758333E-1,2.885444687E1,-5.084177399E0,-2.688798615E1,3.976671677E1
1.101158333E-1,9.991722107E-1,-6.677613831E0,-5.002312637E1,5.047674756E1
1.200568333E-1,-1.137349869E1,-6.489904175E0,-4.834840897E1,5.009035814E1
1.299968333E-1,-8.133486328E0,-3.888763275E0,-2.543720306E1,2.698754119E1
1.399368333E-1,-4.576732635E0,-2.945874023E0,-9.385183411E0,1.084925449E1
1.498768333E-1,-1.832639008E0,-1.878743134E0,-2.779420166E0,3.822750051E0
1.598180000E-1,-9.627978516E-1,-1.270557861E0,-5.556445312E-1,1.688205505E0
1.697580000E-1,-5.096900940E-1,-1.037492523E0,8.768765259E-1,1.450891853E0
1.796980000E-1,-4.143383789E-1,-7.562274170E-1,1.823058929E0,2.016705248E0
1.896380000E-1,-5.129832458E-1,-6.638694763E-1,1.998194733E0,2.167177123E0
1.995780000E-1,-4.159849548E-1,-5.628295898E-1,1.763333130E0,1.897146372E0
2.095190000E-1,-3.333567810E-1,-4.532574463E-1,1.566492462E0,1.664472196E0
2.194590000E-1,-1.336720276E-1,-3.746708679E-1,1.454525299E0,1.507942411E0
2.293990000E-1,2.215393066E-2,-3.966751099E-1,1.589694214E0,1.638587695E0
2.393390000E-1,-2.469863892E-2,-5.381309509E-1,2.072290649E0,2.141164048E0
2.492790000E-1,1.646575928E-2,-8.524772644E-1,2.410287781E0,2.556653241E0
2.592200000E-1,1.341210938E-1,-1.340312805E0,2.919828186E0,3.215559597E0
2.691600000E-1,8.801696777E-1,-1.691632233E0,3.612437897E0,4.084853220E0
2.791000000E-1,2.860701141E0,-1.465302887E0,4.400848389E0,5.449604583E0
2.890400000E-1,4.394711151E0,-1.155447235E0,5.941145325E0,7.479689311E0
2.989800000E-1,4.016447754E0,-1.104852448E0,7.202272797E0,8.320173371E0
3.089210000E-1,2.066452789E0,-1.034798126E0,6.455625458E0,6.856831217E0
3.188610000E-1,6.303392029E-1,-9.289682007E-1,5.347629547E0,5.464197215E0
3.288010000E-1,-2.791694641E-1,-7.556286621E-1,4.834795990E0,4.901444943E0
3.387410000E-1,-9.668394470E-1,-6.800358582E-1,4.496050415E0,4.648838201E0
3.486820000E-1,-1.555714874E0,-7.047344971E-1,4.149521027E0,4.487251300E0
3.586220000E-1,-1.939367065E0,-6.454577637E-1,3.844904480E0,4.354428872E0
3.685620000E-1,-2.186203766E0,-4.695735168E-1,3.765569458E0,4.379440551E0
3.785020000E-1,-2.474803619E0,-8.382568359E-2,3.493135986E0,4.281784525E0
3.884420000E-1,-2.611619110E0,4.905299377E-1,2.765648804E0,3.835360127E0
3.983830000E-1,-1.386566620E0,7.827223206E-1,3.384911041E0,3.740701001E0
4.083230000E-1,2.521805878E0,4.749623108E-1,6.762637024E0,7.233142719E0
4.182630000E-1,1.511436951E1,-1.936373291E0,1.838162521E1,2.387630316E1
4.282030000E-1,4.043481537E1,-5.218448181E0,2.776516205E1,4.932657214E1
4.381430000E-1,7.531483200E1,-9.557175751E0,2.564347412E1,8.013271050E1
4.480840000E-1,7.892203079E1,-8.126600647E0,1.323682388E1,8.043595023E1
4.580240000E-1,7.696110855E1,1.178648987E0,1.924248505E0,7.699418274E1
4.679640000E-1,6.377802292E1,1.145567780E0,-6.934779053E0,6.416416206E1
4.779040000E-1,3.906067291E1,-2.683320007E0,-2.291434937E1,4.536522657E1
4.878440000E-1,6.274352417E0,-5.559738464E0,-5.551325958E1,5.614267699E1
4.977850000E-1,-1.051174072E1,-7.527396698E0,-5.568450348E1,5.716574430E1
5.077250000E-1,-5.937852173E0,-4.333638153E0,-3.083901993E1,3.170305440E1
5.176650000E-1,-1.510508881E0,-2.288590851E0,-1.310390030E1,1.338773649E1
5.276050000E-1,1.825903015E0,-1.661694489E0,-2.109563141E0,3.247369249E0
5.375450000E-1,1.907633057E0,-1.371747437E0,4.808001709E-1,2.398316850E0
5.474860000E-1,9.460327148E-1,-1.194665680E0,1.395547943E0,2.066339286E0
5.574260000E-1,-1.212478638E-2,-1.074914703E0,1.972298584E0,2.246230250E0
5.673660000E-1,-4.454736328E-1,-8.584648132E-1,2.116897888E0,2.327373039E0
5.773060000E-1,-3.052153015E-1,-6.361770630E-1,1.939516754E0,2.063880538E0
5.872460000E-1,3.637435913E-2,-5.402265930E-1,1.751058655E0,1.832859590E0
5.971870000E-1,2.309696960E-1,-5.728587341E-1,1.804347839E0,1.907140597E0
6.071270000E-1,4.019142151E-1,-6.724017334E-1,2.477647705E0,2.598537527E0
6.170670000E-1,3.501219177E-1,-8.717871094E-1,3.119512939E0,3.257907166E0
6.270070000E-1,3.103047180E-1,-1.164278870E0,3.913162537E0,4.094468872E0
6.369470000E-1,3.731739807E-1,-1.580712891E0,4.780758362E0,5.049115029E0
6.468880000E-1,1.608704681E0,-1.817071381E0,5.411097565E0,5.930400999E0
6.568280000E-1,3.950884094E0,-1.626367950E0,6.159092102E0,7.495930453E0
6.667680000E-1,4.799170074E0,-1.711391144E0,6.765032043E0,8.469152945E0
6.767080000E-1,4.097728729E0,-1.512155457E0,6.558012543E0,7.879436742E0
6.866480000E-1,3.113076324E0,-9.874964905E-1,5.845194855E0,6.695722247E0
6.965890000E-1,2.331551514E0,-3.906875610E-1,4.941524048E0,5.477903718E0
7.065290000E-1,1.590742035E0,3.143463135E-3,4.065845032E0,4.365955328E0
7.164690000E-1,9.650431824E-1,1.351689148E-1,3.403622131E0,3.540370403E0
7.264090000E-1,5.372328186E-1,2.061213684E-1,3.188220062E0,3.239730280E0
7.363500000E-1,-8.262817383E-2,1.311273193E-1,3.049907684E0,3.053843262E0
7.462900000E-1,-1.025068359E0,2.320175171E-2,2.576591949E0,2.773108281E0
7.562300000E-1,-1.829196167E0,1.425036621E-1,1.945953369E0,2.674509380E0
7.661700000E-1,-2.310744781E0,4.354444885E-1,1.376986542E0,2.724930326E0
7.761100000E-1,-1.150507507E0,1.025367737E0,2.115999756E0,2.617728307E0
7.860510000E-1,3.475472717E0,1.091380463E0,6.375841370E0,7.343117532E0
7.959910000E-1,2.093351852E1,-7.466473389E-1,2.101450012E1,2.967117954E1
8.059310000E-1,5.989599564E1,-4.979994049E0,3.213233047E1,6.815289646E1
8.158710000E-1,7.963544724E1,-6.006110229E0,2.628414185E1,8.407576303E1
8.258110000E-1,7.809245590E1,-5.691165161E-1,1.294897247E1,7.916079491E1
8.357520000E-1,7.236850891E1,1.104253693E0,1.661844177E0,7.239600945E1
8.456920000E-1,4.721107407E1,-2.524649963E0,-1.131077911E1,4.861268452E1
8.556320000E-1,1.531944305E1,-6.123017120E0,-4.503504913E1,4.796177983E1
8.655720000E-1,-1.585338272E1,-1.002001328E1,-7.177289749E1,7.418274209E1
8.755120000E-1,-3.899840240E0,-4.401447144E0,-3.033636520E1,3.090107676E1
8.854530000E-1,2.353256378E0,-1.759890289E0,-7.494315491E0,8.049831929E0
8.953930000E-1,1.961520996E0,-1.410217438E0,-1.695524139E0,2.951453870E0
9.053330000E-1,6.644682312E-1,-9.906399536E-1,7.352709961E-1,1.401252649E0
9.152730000E-1,-2.664459229E-1,-7.822732544E-1,1.611997833E0,1.811486100E0
9.252130000E-1,-4.459226990E-1,-6.023474121E-1,2.154469757E0,2.281098286E0
9.351540000E-1,-4.596940613E-1,-5.063969421E-1,2.138602753E0,2.245301367E0
9.450940000E-1,-3.357518005E-1,-4.010160828E-1,1.689087524E0,1.768208086E0
9.550340000E-1,-1.353186035E-1,-3.815565491E-1,1.662442932E0,1.711026893E0
9.649740000E-1,-2.073188782E-1,-4.945715332E-1,2.567610626E0,2.623014763E0
9.749140000E-1,-2.805166626E-1,-7.372169495E-1,3.481759644E0,3.569990006E0
9.848550000E-1,-4.391867065E-1,-1.175206146E0,4.327949982E0,4.506123111E0
9.947950000E-1,-5.902226257E-1,-1.902094574E0,4.797822876E0,5.194750318E0
1.004735000E0,-1.348695374E-1,-2.496957550E0,4.897814941E0,5.499234310E0
1.014675000E0,1.303040314E0,-2.461631012E0,5.873186646E0,6.500143281E0
1.024615000E0,2.654729462E0,-2.035467224E0,7.452552338E0,8.168919860E0
1.034556000E0,2.982547760E0,-1.689386902E0,8.190667419E0,8.879000621E0
1.044496000E0,2.185155945E0,-1.511407013E0,7.870483246E0,8.306850437E0
1.054436000E0,9.587562561E-1,-1.521885223E0,7.360344086E0,7.576939570E0
1.064376000E0,-6.526428223E-2,-1.163979492E0,6.993307343E0,7.089813486E0
1.074316000E0,-9.924362183E-1,-6.574328613E-1,6.577322388E0,6.684184124E0
1.084257000E0,-1.670675812E0,-4.013154602E-1,6.193520508E0,6.427434017E0
1.094197000E0,-2.368824005E0,-1.576222229E-1,5.612728271E0,6.094168572E0
1.104137000E0,-2.888543243E0,3.468287659E-1,4.335883484E0,5.221480427E0
1.114077000E0,-2.703827362E0,1.088087311E0,2.996169434E0,4.179910008E0
1.124017000E0,-2.273172913E0,1.757794647E0,1.783241730E0,3.381879386E0
1.133958000E0,-1.742676086E0,2.292632446E0,9.982740784E-1,3.047890190E0
1.143898000E0,-9.083111572E-1,2.675835571E0,9.184899902E-1,2.971321091E0
1.153838000E0,3.023712158E-2,3.037633209E0,1.118174744E0,3.237042563E0
1.163777833E0,1.647474060E0,2.860551453E0,2.170785828E0,3.950852630E0
1.173717833E0,1.096694412E1,1.668580170E0,9.371861115E0,1.452204545E1
1.183658833E0,4.249617874E1,-7.453001404E-1,2.120385635E1,4.749825475E1
1.193598833E0,7.827283081E1,-6.516997833E0,1.666589310E1,8.029233647E1
1.203538833E0,7.856397537E1,-4.495751038E0,7.372917938E0,7.903714268E1
1.213478833E0,7.746286514E1,3.846401367E0,4.085005188E-1,7.755937824E1
1.223418833E0,6.247662918E1,1.627415771E0,-5.116809540E0,6.270693276E1
1.233359833E0,3.475023651E1,-6.380481720E0,-2.771651321E1,4.490539599E1
1.243299833E0,1.096020813E0,-1.050455566E1,-6.457825882E1,6.543621676E1
1.253239833E0,-1.073372910E1,-9.271719360E0,-5.724979843E1,5.898065056E1
1.263179833E0,-2.491718445E0,-4.453987885E0,-1.884042114E1,1.951942975E1
1.273119833E0,2.187251587E0,-3.052452393E0,-4.020339661E0,5.501333120E0
1.283060833E0,2.178419952E0,-2.130519562E0,-8.882528687E-1,3.173896698E0
1.293000833E0,1.010099487E0,-1.529519348E0,5.795947266E-1,1.922410065E0
1.302940833E0,6.721023560E-2,-1.149160309E0,1.229094086E0,1.683971170E0
1.312880833E0,-2.519261169E-1,-8.768765259E-1,1.411414948E0,1.680616364E0
1.322820833E0,-4.412823486E-1,-7.729925537E-1,1.508413239E0,1.751444574E0
1.332761833E0,-3.775149536E-1,-7.051835632E-1,1.325194244E0,1.547882807E0
1.342701833E0,-3.052153015E-1,-7.099736023E-1,1.061143341E0,1.312723919E0
1.352641833E0,-2.442919922E-1,-8.390052795E-1,1.189875641E0,1.476283332E0
1.362581833E0,-1.148112488E-1,-1.159189453E0,2.286495209E0,2.566118109E0
1.372521833E0,2.622546387E-1,-1.626367950E0,3.525319061E0,3.891236910E0
1.382462833E0,1.860930176E0,-2.019001465E0,4.949607239E0,5.660215531E0
1.392402833E0,5.081183624E0,-2.110012207E0,7.265291748E0,9.113453940E0
1.402342833E0,7.274722137E0,-2.679877167E0,9.775421906E0,1.247646574E1
1.412282833E0,6.472689972E0,-2.488724670E0,1.030891251E1,1.242429648E1
1.422222833E0,4.124523010E0,-1.437760162E0,8.890312500E0,9.905377363E0
1.432162833E0,2.381248169E0,-1.116079102E0,7.172035675E0,7.638983645E0
1.442103833E0,1.181792450E0,-8.217910767E-1,5.861510925E0,6.035667676E0
1.452043833E0,4.134402466E-1,-4.379891968E-1,4.916975098E0,4.953727030E0
1.461983833E0,-2.032772827E-1,-1.728904724E-1,4.372407532E0,4.380543390E0
1.471923833E0,-1.084943848E0,-5.658233643E-2,4.116589508E0,4.257536129E0
1.481863833E0,-2.112856293E0,5.179229736E-2,3.611090698E0,4.184115221E0
1.491804833E0,-2.930156708E0,4.041595459E-2,2.321222992E0,3.738385743E0
1.501744833E0,-2.903512115E0,2.082170105E-1,3.444337463E-1,2.931274728E0
1.511684833E0,-2.522554321E0,8.514294434E-1,-6.619235229E-1,2.743420338E0
1.521624833E0,-2.165995789E0,1.334774323E0,-4.429289246E-1,2.582507750E0
1.531564833E0,-1.974094849E0,2.021995239E0,4.845423889E-1,2.867105953E0
1.541505833E0,-2.671943665E-1,2.473755798E0,2.739004211E0,3.700406011E0
1.551445833E0,8.655001831E0,2.709665222E0,1.037582336E1,1.378074936E1
1.561385833E0,3.898148758E1,3.136278076E0,2.586501343E1,4.688700815E1
1.571325833E0,7.570746552E1,1.976489868E0,3.040971268E1,8.161052305E1
1.581265833E0,7.899313293E1,4.733456726E0,2.203417969E1,8.214515042E1
1.591206833E0,7.822732544E1,5.276826782E0,7.600594482E0,7.877263727E1
1.601146833E0,6.778818375E1,-3.611988831E-1,-3.812721405E0,6.789628241E1
1.611086833E0,3.338522507E1,-4.722978516E0,-2.375125900E1,4.124320651E1
1.621026833E0,-2.930755463E0,-9.720037079E0,-7.049560364E1,7.122287961E1
1.630966833E0,-1.529713943E1,-1.128727798E1,-6.623890549E1,6.891297207E1
1.640907833E0,-2.660267944E0,-5.465733948E0,-2.190080704E1,2.272876200E1
1.650847833E0,4.863236847E0,-3.392395477E0,-4.269571381E0,7.306754374E0
1.660787833E0,5.685177612E0,-2.705623627E0,2.014810181E-1,6.299383961E0
1.670727833E0,3.557502136E0,-2.248324585E0,1.279838562E0,4.398723864E0
1.680667833E0,1.967059479E0,-1.672621765E0,1.702260132E0,3.092681057E0
1.690608833E0,8.078700256E-1,-1.421444092E0,1.904639282E0,2.510141048E0
1.700548833E0,2.294728088E-1,-1.257534943E0,1.703158264E0,2.129506979E0
1.710488833E0,8.202941895E-2,-1.140927429E0,1.498533783E0,1.885218216E0
1.720428833E0,2.755769348E-1,-1.091829529E0,1.838776245E0,2.156184697E0
1.730368833E0,6.842271423E-1,-1.198407898E0,2.823728027E0,3.142894883E0
1.740309833E0,1.122665405E0,-1.380279694E0,3.537892914E0,3.960080291E0
1.750249833E0,1.843566284E0,-1.529818726E0,4.415218506E0,5.023269496E0
1.760189833E0,2.243085480E0,-1.904788971E0,5.491630096E0,6.230381578E0
1.770129833E0,2.783611450E0,-2.204465790E0,6.559060364E0,7.458514261E0
1.780069833E0,3.789968719E0,-2.219883728E0,7.428602142E0,8.629940698E0
1.790009833E0,3.976630554E0,-1.963167572E0,7.824229431E0,8.993674648E0
1.799950833E0,2.517913971E0,-1.728605347E0,7.012317810E0,7.648566420E0
1.809890833E0,1.334175568E0,-1.373543701E0,5.807323608E0,6.114871563E0
1.819830833E0,7.732919312E-1,-8.987310791E-1,4.918921051E0,5.059790734E0
1.829770833E0,1.670526123E-1,-5.887257385E-1,4.318220215E0,4.361367950E0
1.839710833E0,-2.339634705E-1,-3.679348755E-1,4.052822113E0,4.076209276E0
1.849651833E0,-7.071295166E-1,-5.403762817E-2,4.101171570E0,4.162038018E0
1.859591833E0,-1.420246582E0,3.860472107E-1,4.332440643E0,4.575606488E0
1.869531833E0,-2.191592560E0,7.138655090E-1,3.983216858E0,4.602031991E0
1.879471833E0,-2.716850281E0,1.018781433E0,3.005599823E0,4.177657400E0
1.889411833E0,-2.772684174E0,1.315763855E0,2.031874695E0,3.680696513E0
1.899352833E0,-2.131268005E0,1.783690796E0,2.158062286E0,3.518677166E0
1.909292833E0,-1.179547119E0,2.364333344E0,3.326981506E0,4.248553814E0
1.919232833E0,1.397044830E0,2.883603516E0,5.692961426E0,6.532741636E0
1.929172833E0,1.002659958E1,2.840343475E0,1.202195023E1,1.590998232E1
1.939112833E0,3.907369583E1,1.266216888E0,2.692840210E1,4.747100010E1
1.949053833E0,7.576359879E1,-2.208507385E0,3.204760666E1,8.229246319E1
1.958993833E0,7.891873764E1,-2.013313293E-1,2.391187500E1,8.246202430E1
1.968933833E0,7.796671738E1,2.010469208E0,8.794811096E0,7.848693972E1
1.978873833E0,6.622782852E1,-2.005978546E0,-3.514691162E0,6.635135473E1
1.988813833E0,3.606136002E1,-6.274502106E0,-2.765993088E1,4.587878419E1
1.998754833E0,-8.433612213E0,-1.463326996E1,-7.620817429E1,7.805731377E1
2.008694833E0,-9.450597382E0,-1.255648865E1,-5.627727081E1,5.843038942E1
2.018634833E0,3.923341370E0,-5.776936798E0,-1.625035721E1,1.768727553E1
2.028574833E0,7.659122772E0,-4.463118896E0,-2.702629852E0,9.267459201E0
2.038514833E0,7.209308167E0,-3.380719757E0,1.443747711E0,8.092453137E0
2.048454833E0,4.873415680E0,-2.597997437E0,2.116748199E0,5.914422542E0
2.058395833E0,2.896776123E0,-2.036515045E0,2.532284088E0,4.353293941E0
2.068335833E0,1.481169891E0,-1.799108734E0,2.532733154E0,3.441713776E0
2.078275833E0,9.289682007E-1,-1.555565186E0,2.335144043E0,2.955615446E0
2.088215833E0,8.363108826E-1,-1.384321289E0,2.651735687E0,3.106036619E0
2.098155833E0,9.666897583E-1,-1.428778839E0,3.116668854E0,3.562235647E0
2.108096833E0,1.623673553E0,-1.617087250E0,3.575764160E0,4.247043243E0
2.118036833E0,2.381397858E0,-1.741927643E0,4.222269745E0,5.151012470E0
2.127976833E0,2.257156219E0,-2.005679169E0,5.338348846E0,6.133145321E0
2.137916833E0,2.606230316E0,-2.096540222E0,6.563101959E0,7.366289751E0
2.147856833E0,3.145409088E0,-2.086361389E0,7.930209045E0,8.782637285E0
2.157798333E0,3.191962280E0,-1.986519012E0,9.554481354E0,1.026757006E1
2.167738333E0,1.955383759E0,-2.256108398E0,1.032283356E1,1.074590356E1
2.177678333E0,5.887257385E-1,-2.532284088E0,8.796757050E0,9.172894597E0
2.187618333E0,9.804611206E-2,-1.933229828E0,6.858737183E0,7.126658849E0
2.197558333E0,-1.646575928E-3,-1.257834320E0,5.519472198E0,5.660982533E0
2.207498333E0,-2.320175171E-1,-6.137237549E-1,4.855902100E0,4.900027977E0
2.217439333E0,-9.800120544E-1,-3.233276367E-2,4.757556610E0,4.857552257E0
2.227379333E0,-2.245181122E0,5.998027039E-1,4.710254974E0,5.252342666E0
2.237319333E0,-3.319497070E0,9.273216248E-1,4.008663940E0,5.286622058E0
2.247259333E0,-3.257376251E0,1.204994202E0,2.346969452E0,4.191751027E0
2.257199333E0,-2.581531677E0,1.949845276E0,7.078779602E-1,3.311690446E0
2.267140333E0,-1.774559784E0,2.507435760E0,-2.478845215E-1,3.081840887E0
2.277080333E0,-1.401086426E0,2.714455261E0,-2.562670898E-1,3.065449944E0
2.287020333E0,-1.123114471E0,3.094215546E0,1.247655487E0,3.520255697E0
2.296960333E0,1.125359802E0,3.685036926E0,4.562661896E0,5.971918905E0
2.306900333E0,1.316736832E1,3.724255371E0,1.398541718E1,1.956633742E1
2.316841333E0,4.872068481E1,3.124901733E0,2.956906082E1,5.707713638E1
2.326781333E0,7.764563507E1,2.186952209E-1,3.109453857E1,8.364067672E1
2.336721333E0,7.866351837E1,1.276545410E0,2.266826111E1,8.187446948E1
2.346661333E0,7.660739410E1,1.076261902E-1,5.189558258E0,7.678304455E1
2.356601333E0,5.381593918E1,-3.435505829E0,-3.789669342E0,5.405848318E1
2.366541333E0,2.530712357E1,-4.748126221E0,-1.549128571E1,3.004954473E1
2.376482333E0,-3.312312012E0,-7.943082275E0,-5.759587875E1,5.823529185E1
2.386422333E0,-2.237921219E1,-9.859846344E0,-6.939434372E1,7.357731069E1
2.396362333E0,-8.950187988E0,-6.125561829E0,-2.327674576E1,2.567947168E1
2.406302333E0,-2.271825714E0,-3.901337128E0,-5.228028259E0,6.907525095E0
2.416242333E0,-1.290017395E0,-2.989433441E0,-5.013075256E-1,3.294262651E0
2.426183333E0,-1.111887817E0,-2.156565399E0,1.540895691E0,2.874270059E0
2.436123333E0,-1.116827545E0,-1.594184875E0,1.926793213E0,2.738843053E0
2.446063333E0,-9.779164124E-1,-1.246907043E0,1.864373016E0,2.446831508E0
2.456003333E0,-9.490264893E-1,-1.120719452E0,1.864223328E0,2.373181827E0
2.465943333E0,-8.201445007E-1,-1.032852173E0,1.670077057E0,2.128045580E0
2.475883333E0,-7.101232910E-1,-9.616003418E-1,1.308429108E0,1.772268895E0
2.485824333E0,-7.461982727E-1,-9.678872681E-1,1.309027863E0,1.790857775E0
2.495764333E0,-5.029541016E-1,-9.639953613E-1,1.975142670E0,2.254648188E0
2.505704333E0,-3.981719971E-2,-9.780661011E-1,2.922372894E0,3.081957501E0
2.515644333E0,1.151106262E0,-8.322692871E-1,3.511547699E0,3.787965818E0
2.525584333E0,2.570005646E0,-7.451504517E-1,4.140839081E0,4.930185241E0
2.535525333E0,3.684288483E0,-8.442443848E-1,5.240153046E0,6.461109359E0
2.545465333E0,3.673361206E0,-1.063388672E0,5.883515167E0,7.017131090E0
2.555405333E0,2.853366394E0,-1.188079376E0,5.717210999E0,6.499210259E0
2.565345333E0,1.621877289E0,-1.131347351E0,5.399421844E0,5.750146870E0
2.575285333E0,4.867877197E-1,-1.097368011E0,5.018613739E0,5.160199870E0
2.585226333E0,-3.171903992E-1,-1.182690582E0,4.609514465E0,4.769380502E0
2.595166333E0,-7.399113464E-1,-1.193767548E0,4.502936096E0,4.716882789E0
2.605106333E0,-8.253836060E-1,-1.053658905E0,4.722978516E0,4.908969469E0
2.615046333E0,-4.655319214E-1,-6.673123169E-1,5.460644531E0,5.520929668E0
2.624986333E0,2.363584900E-1,-3.350033569E-1,6.664441223E0,6.677040467E0
2.634926333E0,1.765129395E0,-2.300715637E-1,8.249495087E0,8.439359211E0
2.644867333E0,6.087391205E0,-5.153782654E-1,1.135912857E1,1.289774199E1
2.654807333E0,1.739248215E1,-2.502046967E0,1.907318710E1,2.593347529E1
2.664747333E0,3.949372238E1,-6.506070557E0,2.686673035E1,4.820689018E1
2.674687333E0,6.781003830E1,-1.100661163E1,2.758149399E1,7.402760029E1
2.684627333E0,7.361017685E1,-7.501350861E0,1.880060394E1,7.634259040E1
2.694567333E0,6.736246902E1,1.278042297E0,6.901099091E0,6.772710531E1
2.704508333E0,5.894247849E1,1.005608826E0,-4.176464996E0,5.909881453E1
2.714448333E0,4.099599838E1,-3.048111420E0,-2.135818542E1,4.632639584E1
2.724388333E0,5.595663757E0,-7.089108124E0,-5.954856812E1,6.022955148E1
2.734328333E0,-7.138206024E0,-8.412356415E0,-5.543796616E1,5.652512554E1
2.744268333E0,4.373904419E-1,-3.492387543E0,-2.996304153E1,3.016905599E1
2.754209333E0,4.056863708E0,-1.739532623E0,-1.268342468E1,1.342957105E1
2.764149333E0,7.181765442E0,-1.963916016E0,-3.006048889E0,8.029386708E0
2.774089333E0,6.394851837E0,-2.027683411E0,5.602848816E-1,6.731979589E0
2.784029333E0,4.830155640E0,-1.484463043E0,1.827399902E0,5.373399709E0
2.793969333E0,3.039429474E0,-1.159937897E0,2.112856293E0,3.879142839E0
2.803909333E0,1.661245422E0,-1.314117279E0,2.462678833E0,3.248296109E0
2.813850333E0,1.015488281E0,-1.237776031E0,2.687511292E0,3.128261961E0
2.823790333E0,1.072968750E0,-1.143621826E0,3.045417023E0,3.425448534E0
2.833730333E0,1.929487610E0,-1.081950073E0,3.467539215E0,4.113072648E0
2.843670333E0,3.287912750E0,-1.107696533E0,4.311783600E0,5.534332812E0
2.853610333E0,3.960613861E0,-1.279389496E0,5.553301849E0,6.939917944E0
2.863551333E0,4.102967834E0,-1.468596039E0,6.978787537E0,8.227672505E0
2.873491333E0,4.443659363E0,-1.590592346E0,8.298892365E0,9.547130827E0
2.883431333E0,4.286785583E0,-1.794767761E0,9.195677490E0,1.030331046E1
2.893371333E0,2.136956177E0,-2.343376923E0,8.561446381E0,9.129970495E0
2.903311333E0,4.059558105E-1,-2.345322876E0,6.767427063E0,7.173800148E0
2.913251333E0,-1.910028076E-1,-1.944905548E0,4.950505371E0,5.322277998E0
2.923192333E0,-3.772155762E-1,-1.306483154E0,3.617078247E0,3.864252175E0
2.933132333E0,-8.675958252E-1,-1.028960266E0,3.152145081E0,3.427462670E0
2.943072333E0,-1.613494720E0,-9.436376953E-1,3.147355042E0,3.660554749E0
2.953012333E0,-2.283501434E0,-7.418572998E-1,3.054697723E0,3.885345446E0
2.962952333E0,-2.828368378E0,-2.773731995E-1,3.060236206E0,4.176320056E0
2.972893333E0,-3.337609406E0,2.860551453E-1,2.956352234E0,4.467827506E0
2.982833333E0,-3.109932861E0,8.075706482E-1,2.870281219E0,4.308406554E0
2.992773333E0,-2.238145752E0,1.488205261E0,3.807332611E0,4.660454154E0
3.002713333E0,-8.866062927E-1,2.267784119E0,6.012247467E0,6.486604284E0
3.012653333E0,3.049159241E0,3.011437683E0,9.697733459E0,1.060246024E1
3.022593333E0,1.760533951E1,3.635040894E0,1.923260559E1,2.632593055E1
3.032534333E0,4.848088348E1,4.611460419E0,3.028202820E1,5.734686445E1
3.042474333E0,7.207092773E1,4.851710815E0,2.913226913E1,7.788739839E1
3.052414333E0,7.901334091E1,5.550158386E0,2.226739471E1,8.227848545E1
3.062354333E0,7.545928162E1,1.741628265E0,5.850433960E0,7.570577276E1
3.072294333E0,5.280045090E1,-3.159779205E0,-5.536836090E0,5.318391085E1
3.082235333E0,2.486673935E1,-6.172414398E0,-2.884576492E1,3.858149271E1
3.092175333E0,-1.094014984E1,-1.213406708E1,-7.515646133E1,7.691174255E1
3.102115333E0,-1.444331497E1,-1.102547241E1,-5.250990509E1,5.556492169E1
3.112055333E0,1.220112762E0,-5.647156677E0,-1.272863068E1,1.397845101E1
3.121995333E0,4.701872406E0,-4.264931030E0,-2.245480499E0,6.733455538E0
3.131935333E0,3.913910980E0,-2.891537018E0,1.332379303E0,5.045286919E0
3.141876333E0,1.838925934E0,-1.807790680E0,1.745520172E0,3.113935838E0
3.151816333E0,6.262976074E-1,-1.264121246E0,2.083816681E0,2.516454486E0
3.161755625E0,1.085243225E-1,-1.058149567E0,2.284698944E0,2.520180013E0
3.171695625E0,-1.288819885E-1,-9.309141541E-1,1.979034576E0,2.190842209E0
3.181635625E0,-6.481521606E-2,-7.753875732E-1,1.868863678E0,2.024371099E0
3.191576625E0,2.703378296E-1,-7.126679993E-1,2.628833313E0,2.737104822E0
3.201516625E0,2.601589966E-1,-8.650511169E-1,3.651506653E0,3.761581712E0
3.211456625E0,2.550695801E-1,-1.076411591E0,4.541705475E0,4.674485108E0
3.221396625E0,8.008346558E-1,-1.379830627E0,5.653443604E0,5.874239805E0
3.231336625E0,1.828747101E0,-1.637295227E0,6.827452240E0,7.255284675E0
3.241276625E0,2.573598175E0,-2.148332520E0,7.813601532E0,8.502417837E0
3.251217625E0,2.408192139E0,-3.094664612E0,8.161927185E0,9.055020365E0
3.261157625E0,1.045725403E0,-3.613785095E0,6.928492126E0,7.883970287E0
3.271097625E0,-4.745132446E-2,-3.277733917E0,5.329816589E0,6.257214727E0
3.281037625E0,-2.731819153E-1,-2.652334442E0,3.854933624E0,4.687218749E0
3.290977625E0,-3.243754578E-1,-2.022144928E0,2.938090210E0,3.581433181E0
3.300917625E0,-6.812333679E-1,-1.612446899E0,2.715353394E0,3.230666798E0
3.310858625E0,-1.036893768E0,-1.344504089E0,3.035687256E0,3.478252010E0
3.320798625E0,-1.296004944E0,-8.617579651E-1,3.315605164E0,3.662716643E0
3.330738625E0,-1.098266144E0,9.729766846E-3,3.926035767E0,4.076768332E0
3.340678625E0,7.948471069E-2,3.426374817E-1,4.815336456E0,4.828165640E0
3.350618625E0,2.741848297E0,2.122586060E-1,6.930887146E0,7.456539575E0
3.360559625E0,1.092084000E1,-7.307803345E-1,1.304956329E1,1.703202537E1
3.370499625E0,3.087838806E1,-4.006268921E0,2.359932495E1,3.906984999E1
3.380439625E0,6.191305115E1,-7.273824005E0,2.684906708E1,6.787493515E1
3.390379625E0,7.720749619E1,-6.436614990E0,1.921883423E1,7.982349948E1
3.400319625E0,6.953924240E1,2.040406952E0,1.060649368E1,7.037305736E1
3.410259625E0,6.183221924E1,5.474864960E0,-2.258503418E0,6.211520200E1
3.420200625E0,4.760445602E1,-1.111139374E0,-2.222697876E1,5.254957135E1
3.430140625E0,3.592828674E0,-1.283206558E1,-6.998920670E1,7.124646924E1
3.440080625E0,-9.803713074E0,-1.353141129E1,-6.363686646E1,6.579409285E1
3.450020625E0,7.302713928E0,-3.840563507E0,-2.474489273E1,2.608427256E1
3.459960625E0,8.906628571E0,-1.795815582E0,-6.681206360E0,1.127792111E1
3.469900625E0,9.470206604E0,-1.227896576E0,1.193168793E0,9.623730820E0
3.479841625E0,6.930737457E0,-1.187779999E0,3.237617340E0,7.741324762E0
3.489781625E0,4.605921936E0,-1.209484863E0,3.700903931E0,6.031091147E0
3.499721625E0,2.991828461E0,-1.183289337E0,3.927532654E0,5.077078288E0
3.509661625E0,1.597627716E0,-1.424437866E0,3.948638763E0,4.491456962E0
3.519601625E0,1.020428009E0,-1.590891724E0,4.012106781E0,4.434998379E0
3.529541625E0,1.326990509E0,-1.551224213E0,4.419110413E0,4.867826744E0
3.539482625E0,1.572180634E0,-1.721270599E0,5.170248413E0,5.671507125E0
3.549422625E0,1.296154633E0,-1.977388000E0,6.079607391E0,6.523166882E0
3.559362625E0,6.004014587E-1,-2.524350586E0,6.815776520E0,7.292985490E0
3.569302625E0,-1.375639343E-1,-2.992876282E0,7.282206573E0,7.874437431E0
3.579242625E0,-8.026309204E-1,-3.517535248E0,7.959398346E0,8.738952606E0
3.589183625E0,-1.065484314E0,-4.057312775E0,8.514444122E0,9.491722841E0
3.599123625E0,-8.210426331E-1,-3.411855011E0,7.916886749E0,8.659789918E0
3.609063625E0,-5.761518860E-1,-2.671793976E0,7.221432953E0,7.721368269E0
3.619003625E0,-1.058299255E0,-2.329156494E0,7.256310425E0,7.694089177E0
3.628943625E0,-2.078577576E0,-1.906285858E0,7.193890228E0,7.726995996E0
3.638883625E0,-3.084934845E0,-1.225950623E0,6.928492126E0,7.682693608E0
3.648823625E0,-3.898193665E0,-2.595602417E-1,6.983577576E0,8.002102294E0
3.658764625E0,-4.186344452E0,5.891748047E-1,6.072272644E0,7.398993302E0
3.668704625E0,-3.292104034E0,1.000669098E0,3.596870270E0,4.977626277E0
3.678644625E0,-2.006427612E0,1.555714874E0,1.560804291E0,2.980286994E0
3.688584625E0,-1.370100861E0,2.405048676E0,2.752775574E-1,2.781584662E0
3.698524625E0,-9.707313538E-1,3.488196259E0,1.799258423E-1,3.625218036E0
3.708465625E0,-1.522334290E-1,4.590054932E0,1.539847870E0,4.843852883E0
3.718405625E0,2.578837280E0,5.544320526E0,4.445006561E0,7.559627977E0
3.728345625E0,1.622281448E1,7.642058258E0,1.218975128E1,2.168342225E1
3.738285625E0,5.180277557E1,1.051608170E1,2.635584274E1,5.906560740E1
3.748225625E0,7.799201477E1,1.100017502E1,2.754990967E1,8.344312878E1
3.758165625E0,7.873491989E1,1.046054718E1,1.918545364E1,8.171102918E1
3.768106625E0,7.457207657E1,2.759960632E0,2.719844055E0,7.467268268E1
3.778046625E0,4.656965790E1,-4.860243073E0,-1.389141266E1,4.883980288E1
3.787986625E0,5.432952118E0,-1.508547958E1,-6.467046707E1,6.662850722E1
3.797926625E0,-1.348455872E1,-2.049522995E1,-7.036687134E1,7.452103298E1
3.807866625E0,-7.080276489E-2,-1.151914581E1,-2.586157059E1,2.831106792E1
3.817806625E0,5.935157776E0,-7.385042725E0,-6.083199921E0,1.125923066E1
3.827747625E0,7.034621429E0,-5.301076355E0,-1.191522217E-1,8.809171722E0
3.837687625E0,5.441783752E0,-3.747457123E0,1.726958771E0,6.829262910E0
3.847627625E0,3.858526154E0,-2.615361328E0,2.034569092E0,5.086040734E0
3.857567625E0,2.223027191E0,-1.992955627E0,2.183060303E0,3.698577336E0
3.867507625E0,9.087602234E-1,-1.868264923E0,2.006128235E0,2.888045959E0
3.877447625E0,5.846841431E-1,-1.904489594E0,1.970352631E0,2.802003863E0
3.887388625E0,9.262738037E-1,-2.149230652E0,2.490221558E0,3.417364329E0
3.897328625E0,1.573976898E0,-2.548899536E0,3.279829559E0,4.442023645E0
3.907268625E0,2.132615204E0,-2.896027679E0,4.047732697E0,5.414717344E0
3.917208625E0,2.455344086E0,-2.942730560E0,5.043462067E0,6.334420838E0
3.927148625E0,2.408341827E0,-3.017125854E0,6.539750519E0,7.594175112E0
3.937088625E0,2.389331360E0,-3.041375427E0,8.255033569E0,9.116164109E0
3.947029625E0,1.821412354E0,-2.881657562E0,9.422306213E0,1.002004729E1
3.956969625E0,7.991880798E-1,-2.281106415E0,8.911119232E0,9.233103164E0
3.966909625E0,2.100132751E-1,-1.854194183E0,7.561525726E0,7.788376786E0
3.976849625E0,1.661544800E-2,-1.725461884E0,6.504423981E0,6.729414990E0
3.986789625E0,-8.861572266E-2,-1.457668762E0,5.797144775E0,5.978255474E0
3.996729625E0,-3.101550293E-1,-9.014254761E-1,5.577252045E0,5.658136124E0
4.006670625E0,-1.246907043E0,1.347198486E-2,5.782924347E0,5.915840825E0
4.016610625E0,-2.595153351E0,1.236428833E0,5.360502777E0,6.082644753E0
4.026550625E0,-3.060236206E0,1.829196167E0,3.720812531E0,5.153198050E0
4.036490625E0,-2.305355988E0,2.139800262E0,2.465073853E0,3.996248302E0
4.046430625E0,-1.612895966E0,2.795436859E0,2.587369537E0,4.136469721E0
4.056371625E0,-5.438191223E-1,3.605701904E0,4.101920013E0,5.488403525E0
4.066311625E0,3.723656616E0,4.567002869E0,7.744744720E0,9.731608530E0
4.076251625E0,1.907154053E1,6.951544189E0,1.675031754E1,2.631768915E1
4.086191625E0,5.128051163E1,7.639663239E0,3.009686325E1,5.994894915E1
4.096131625E0,7.639289017E1,6.292913818E0,3.305336517E1,8.347454332E1
4.106071625E0,7.880766861E1,5.244494019E0,2.353361160E1,8.241349540E1
4.116011625E0,7.067313446E1,-1.404080200E-1,5.746100922E0,7.090648295E1
4.125952625E0,4.443524643E1,-5.077441406E0,-9.642797699E0,4.575210469E1
4.135892625E0,8.323740692E0,-1.604139175E1,-6.066958694E1,6.330410483E1
4.145832625E0,-1.100257004E1,-2.317271210E1,-7.469287537E1,7.897503887E1
4.155772625E0,7.184609528E0,-1.290960434E1,-3.025313828E1,3.366792054E1
4.165713208E0,9.959838409E0,-7.840395813E0,-6.328539734E0,1.416758987E1
4.175653208E0,1.041668839E1,-5.234614563E0,5.748046875E-2,1.165812552E1
4.185594208E0,9.530381470E0,-3.646866302E0,2.646945648E0,1.054201717E1
4.195534208E0,7.362439728E0,-2.622995453E0,2.971171417E0,8.361428316E0
4.205474208E0,4.883594513E0,-1.945204926E0,3.008743286E0,6.056884821E0
4.215414208E0,2.824925537E0,-1.882635040E0,3.181783447E0,4.652769594E0
4.225354208E0,1.773362274E0,-1.853296051E0,3.365601196E0,4.231641693E0
4.235294208E0,1.551373901E0,-1.807491302E0,3.746409302E0,4.439523448E0
4.245235208E0,2.057172089E0,-1.862726440E0,4.172872467E0,5.011444045E0
4.255175208E0,2.172282715E0,-1.977986755E0,4.601431274E0,5.459341862E0
4.265115208E0,1.613943787E0,-2.156266022E0,5.059179382E0,5.731456510E0
4.275055208E0,9.253756714E-1,-2.424957275E0,5.422922974E0,6.012057177E0
4.284995208E0,3.188369751E-1,-2.673889618E0,5.851631470E0,6.441500878E0
4.294935208E0,-4.517605591E-1,-3.088227997E0,6.061195679E0,6.817575289E0
4.304876208E0,-1.013392639E0,-3.185675354E0,6.496939545E0,7.306552918E0
4.314816208E0,-8.505313110E-1,-2.666854248E0,6.698420563E0,7.259776383E0
4.324756208E0,-9.120533752E-1,-2.113904114E0,6.586154022E0,6.976951825E0
4.334696208E0,-1.096619568E0,-1.740879822E0,6.458469543E0,6.778278976E0
4.344636208E0,-1.312770081E0,-1.187480621E0,6.822811890E0,7.048704675E0
4.354576208E0,-2.099533997E0,-4.992118835E-1,7.320227509E0,7.631709264E0
4.364517208E0,-3.394790497E0,1.600172424E-1,7.669900360E0,8.389134614E0
4.374457208E0,-3.975433044E0,7.116201782E-1,7.611970825E0,8.616993154E0
4.384397208E0,-3.657494202E0,1.141226807E0,6.147117004E0,7.243390775E0
4.394337208E0,-2.572700043E0,1.836979980E0,4.329746246E0,5.360968524E0
4.404277208E0,-1.726060638E0,2.815046082E0,3.054997101E0,4.498530544E0
4.414217208E0,-9.845027161E-1,3.822750549E0,2.385439453E0,4.612265034E0
4.424158208E0,-4.790039062E-3,4.767286377E0,2.440375214E0,5.355602070E0
4.434098208E0,1.808688812E0,5.694308624E0,4.357139282E0,7.394671639E0
4.444038208E0,8.940009155E0,7.115603027E0,8.709937592E0,1.436727472E1
4.453978208E0,3.223411880E1,1.046997757E1,1.910881302E1,3.890765452E1
4.463918208E0,6.670548523E1,1.022793091E1,2.666405182E1,7.256172538E1
4.473858208E0,7.937992859E1,9.022188263E0,2.548136124E1,8.385626222E1
4.483799208E0,7.818900513E1,4.088448029E0,7.578141174E0,7.866170704E1
4.493739208E0,6.462885361E1,-4.027225342E0,-4.268673248E0,6.489475197E1
4.503679208E0,3.152893524E1,-9.291478271E0,-2.334290817E1,4.031496853E1
4.513619208E0,-7.273225250E0,-1.846051117E1,-7.429515244E1,7.689902440E1
4.523559208E0,-1.456231750E1,-1.855421631E1,-5.712420959E1,6.180206595E1
4.533499208E0,-1.068927155E0,-1.238120316E1,-1.595921265E1,2.022704292E1
4.543440208E0,5.225034485E0,-7.936495972E0,-2.646795959E0,9.863796557E0
4.553380208E0,5.688171387E0,-5.187911682E0,5.493576050E-1,7.718258555E0
4.563320208E0,4.068689117E0,-3.835923157E0,1.392404480E0,5.762579963E0
4.573260208E0,2.251617737E0,-2.769540710E0,1.655706940E0,3.934654197E0
4.583200208E0,4.896318054E-1,-2.319875793E0,1.685794373E0,2.909203614E0
4.593140208E0,-1.450483704E-1,-1.863025818E0,1.605561218E0,2.463682417E0
4.603081208E0,-3.888912964E-1,-1.731748810E0,1.507066040E0,2.328398254E0
4.613021208E0,-4.372407532E-1,-1.712289276E0,1.488055573E0,2.310286439E0
4.622961208E0,-1.481918335E-1,-1.770967255E0,2.458786926E0,3.033796134E0
4.632901208E0,3.772155762E-2,-2.149380341E0,3.275039520E0,3.917542932E0
4.642841208E0,7.324269104E-1,-2.338886261E0,4.470753021E0,5.098477292E0
4.652781208E0,1.762584686E0,-2.289039917E0,6.282884674E0,6.915276448E0
4.662722208E0,2.984044647E0,-2.047142944E0,8.763675842E0,9.481420303E0
4.672662208E0,3.658991089E0,-2.000739441E0,1.108474915E1,1.184326128E1
4.682602208E0,2.078427887E0,-1.885479126E0,1.102472397E1,1.137626620E1
4.692542208E0,5.198689270E-1,-2.024839325E0,8.826545105E0,9.070729656E0
4.702482208E0,1.585203552E-1,-2.319576416E0,5.944737854E0,6.383217966E0
4.712422208E0,3.278182983E-2,-1.860930176E0,4.153562622E0,4.551507247E0
4.722363208E0,-4.358935547E-1,-1.373992767E0,3.248843994E0,3.554271601E0
4.732303208E0,-1.306333466E0,-8.747808838E-1,2.457290039E0,2.917194381E0
4.742243208E0,-2.409988403E0,-1.320254517E-1,1.661245422E0,2.930053101E0
4.752183208E0,-2.618654480E0,6.593788147E-1,1.084045715E0,2.909860275E0
4.762123208E0,-1.849404144E0,1.392254791E0,1.945803680E0,3.024040518E0
4.772063208E0,-9.023236084E-1,1.753154297E0,3.642974396E0,4.142342373E0
4.782003208E0,1.209634552E0,2.056573334E0,5.801036682E0,6.272538259E0
4.791944208E0,9.394015045E0,2.176773376E0,1.132095795E1,1.487111125E1
4.801884208E0,3.672657669E1,2.302062836E0,2.478336273E1,4.436615824E1
4.811824208E0,6.536187927E1,-1.043629761E0,2.210408432E1,6.900619515E1
4.821764208E0,7.722201599E1,1.008452911E0,1.275692184E1,7.827512878E1
4.831704208E0,7.862639557E1,1.370998993E0,3.884571991E0,7.873423409E1
4.841644208E0,6.913927414E1,-2.531835022E0,-1.980381775E-1,6.918589911E1
4.851585208E0,4.254392944E1,-4.111350403E0,-1.031894165E1,4.397009997E1
4.861525208E0,1.592897552E1,-6.200406189E0,-3.737622574E1,4.109938623E1
4.871465208E0,-1.859403351E1,-9.044042816E0,-7.653763916E1,7.928141649E1
4.881405208E0,-1.208541824E1,-6.964716797E0,-3.647704559E1,3.905303406E1
4.891345208E0,1.177301788E0,-5.096900940E0,-7.933202820E0,9.502638879E0
4.901285208E0,3.899391174E0,-3.970643005E0,-1.920057220E0,5.887094116E0
4.911226208E0,4.051325226E0,-2.908152466E0,9.773176575E-1,5.081902858E0
4.921166208E0,2.791095886E0,-2.415975952E0,1.689386902E0,4.059702471E0
4.931106208E0,1.775158539E0,-1.817071381E0,1.899400177E0,3.171853917E0
4.941046208E0,6.747967529E-1,-1.454974365E0,1.805096283E0,2.414678789E0
4.950986208E0,-2.189945984E-1,-1.298399963E0,1.675914917E0,2.131312250E0
4.960926208E0,-5.939648438E-1,-1.268761597E0,1.614093475E0,2.137252435E0
4.970866208E0,-8.539741516E-1,-1.392404480E0,1.387315063E0,2.143059769E0
4.980807208E0,-1.024918671E0,-1.462309113E0,1.577419739E0,2.382658023E0
4.990747208E0,-1.029109955E0,-1.629511414E0,2.256557465E0,2.967562356E0
5.000687208E0,-1.214723969E0,-1.852547607E0,2.780917053E0,3.555416518E0
5.010627208E0,-1.634451141E0,-2.016905823E0,3.306623840E0,4.203938731E0
5.020567208E0,-1.939816132E0,-2.272723846E0,4.476441193E0,5.382070796E0
5.030507208E0,-1.865420837E0,-2.647993469E0,5.830375671E0,6.669703500E0
5.040448208E0,-1.648821259E0,-2.894680481E0,7.174879761E0,7.910542725E0
5.050388208E0,-1.352138214E0,-2.961890717E0,8.240064697E0,8.860007934E0
5.060328208E0,-9.072633362E-1,-2.849324799E0,8.745264130E0,9.242371085E0
5.070268208E0,-5.580395508E-1,-2.708018646E0,9.232949982E0,9.638056780E0
5.080208208E0,-1.022823029E0,-2.649640045E0,9.512418823E0,9.927379875E0
5.090148208E0,-2.245929565E0,-2.581831055E0,8.896749115E0,9.532166387E0
5.100089208E0,-3.367996216E0,-2.018702087E0,7.156018982E0,8.162546435E0
5.110029208E0,-3.467389526E0,-1.097368011E0,4.844974823E0,6.058117506E0
5.119969208E0,-2.893632660E0,-4.790039062E-3,2.677332458E0,3.942238198E0
5.129909208E0,-2.532433777E0,1.321152649E0,2.257305908E0,3.640617409E0
5.139849208E0,-1.905238037E0,2.634970551E0,3.138523407E0,4.519217958E0
5.149789208E0,-4.314028931E-1,3.498225403E0,4.932842102E0,6.062723862E0
5.159729208E0,3.187770996E0,3.714076538E0,7.944130096E0,9.330886959E0
5.169670208E0,1.545101944E1,4.138294373E0,1.607103012E1,2.267460013E1
5.179610208E0,5.327466476E1,4.444557495E0,3.155692703E1,6.207885019E1
5.189550208E0,7.910884232E1,2.653082886E0,2.781351151E1,8.389779022E1
5.199490208E0,7.846413300E1,7.376809845E0,1.725716354E1,8.067742673E1
5.209430208E0,7.611177475E1,5.213807831E0,5.412594452E0,7.648190784E1
5.219370208E0,5.513948685E1,-1.297950897E0,-3.956272888E0,5.529647169E1
5.229311208E0,2.517090683E1,-6.983727264E0,-3.616509430E1,4.461234182E1
5.239251208E0,-1.055649765E1,-1.688833054E1,-7.873836273E1,8.121813293E1
5.249191208E0,-7.873477020E0,-1.283670593E1,-4.933380981E1,5.158097954E1
5.259131208E0,4.298910370E0,-5.901178436E0,-1.279643967E1,1.473273245E1
5.269071208E0,7.557334442E0,-4.143982544E0,-1.160836029E0,8.696748558E0
5.279011208E0,5.667664032E0,-3.420836334E0,2.214494934E0,6.980581968E0
5.288952208E0,2.992277527E0,-3.087479553E0,2.350262604E0,4.899998887E0
5.298892208E0,1.250499573E0,-2.592159576E0,2.257455597E0,3.657751526E0
5.308832208E0,2.011816406E-1,-2.164798279E0,2.142644348E0,3.052499049E0
5.318772208E0,-2.517764282E-1,-1.867067413E0,1.843416595E0,2.635814265E0
5.328712208E0,-2.360591125E-1,-1.689087524E0,1.925895081E0,2.572510920E0
5.338652208E0,3.263214111E-2,-1.725012817E0,2.789000244E0,3.279520764E0
5.348592208E0,9.310638428E-2,-1.903890839E0,3.432961121E0,3.926664129E0
5.358533208E0,2.308200073E-1,-2.298919373E0,3.975732422E0,4.598342794E0
5.368473208E0,3.887416077E-1,-2.816992035E0,4.815635834E0,5.592576566E0
5.378413208E0,9.837542725E-1,-2.873724060E0,6.197562103E0,6.901872099E0
5.388353208E0,1.926793213E0,-2.772085419E0,7.852071533E0,8.547047269E0
5.398293208E0,3.046913910E0,-2.813100128E0,9.652976532E0,1.050605409E1
5.408233208E0,2.961441650E0,-2.894081726E0,1.048853897E1,1.127631569E1
5.418173208E0,1.612446899E0,-2.972219238E0,9.519903259E0,1.010260512E1
5.428114208E0,1.023122406E0,-2.982248383E0,7.630083160E0,8.255831509E0
5.438054208E0,1.105301514E0,-2.320324860E0,6.085894318E0,6.606338512E0
5.447994208E0,7.878117371E-1,-1.502425690E0,4.981940002E0,5.262856304E0
5.457934208E0,3.832031250E-2,-8.979826355E-1,4.039050751E0,4.137846327E0
5.467874208E0,-1.009201355E0,-2.724334717E-2,3.155288544E0,3.312865130E0
5.477814208E0,-1.808090057E0,8.131091309E-1,2.358794861E0,3.081273975E0
5.487755208E0,-1.779948578E0,1.233884125E0,1.033750305E0,2.399859718E0
5.497695208E0,-1.527573395E0,1.795216827E0,6.062393188E-1,2.433887846E0
5.507635208E0,-1.172661438E0,2.507286072E0,1.207838287E0,3.020015169E0
5.517575208E0,4.180805969E-1,3.244652710E0,2.960244141E0,4.411984584E0
5.527515208E0,7.656128998E0,3.720662842E0,7.566764832E0,1.138927448E1
5.537455208E0,3.383054901E1,4.732558594E0,2.192221252E1,4.058924191E1
5.547396208E0,6.958504715E1,2.462529144E0,3.007545776E1,7.584639739E1
5.557336208E0,7.922245605E1,2.731968842E0,2.514710632E1,8.316272094E1
5.567276208E0,7.814993637E1,3.570225677E0,1.174562485E1,7.910827244E1
5.577216208E0,6.687493286E1,-5.441184998E-1,-1.242865448E0,6.688869430E1
5.587156208E0,3.752950699E1,-3.335962830E0,-1.227821732E1,3.962760608E1
5.597096208E0,8.743467865E0,-8.299491119E0,-5.075016449E1,5.216233295E1
5.607036208E0,-1.636756348E1,-1.345132782E1,-7.432389267E1,7.728438637E1
5.616977208E0,-8.356522522E0,-9.035809937E0,-3.176888626E1,3.406962671E1
5.626917208E0,1.320254517E0,-5.333409119E0,-6.555168457E0,8.553277636E0
5.636857208E0,2.402204590E0,-4.052672424E0,-3.968247986E-1,4.727812453E0
5.646797208E0,6.777905273E-1,-3.047812042E0,9.912387085E-1,3.275837667E0
5.656737208E0,-3.743714905E-1,-2.202669525E0,1.008003845E0,2.451117868E0
5.666677208E0,-6.315367126E-1,-1.510508881E0,1.198258209E0,2.028866293E0
5.676617208E0,-6.837780762E-1,-1.043929138E0,1.147513733E0,1.695325417E0
5.686558208E0,-6.840774536E-1,-7.945477295E-1,1.160985718E0,1.564338804E0
5.696498208E0,-6.887178040E-1,-7.336244202E-1,1.034199371E0,1.442950222E0
5.706438208E0,-7.943980408E-1,-7.795788574E-1,8.887019348E-1,1.424290199E0
5.716378208E0,-6.634204102E-1,-9.126521301E-1,1.533860321E0,1.904150214E0
5.726318208E0,-6.500981140E-1,-1.217118988E0,2.648741913E0,2.986610103E0
5.736258208E0,-5.327421570E-1,-1.483864288E0,3.518882446E0,3.855930640E0
5.746199208E0,5.236111450E-1,-1.767674103E0,4.423900452E0,4.792675200E0
5.756139208E0,2.047891388E0,-2.091450806E0,5.764961700E0,6.465509185E0
5.766079208E0,3.761976929E0,-2.258653107E0,7.416477356E0,8.617315164E0
5.776019208E0,4.656516724E0,-2.356250153E0,8.534053345E0,1.000325593E1
5.785959208E0,4.074077911E0,-2.391427002E0,8.801098022E0,9.988811758E0
5.795899208E0,3.179089050E0,-1.739682312E0,8.297395477E0,9.054273767E0
5.805839208E0,2.298170929E0,-1.258882141E0,7.431296539E0,7.879755207E0
5.815780208E0,1.144519958E0,-8.337661743E-1,6.626869354E0,6.776465849E0
5.825720208E0,3.227288818E-1,-3.314108276E-1,5.879623260E0,5.897792532E0
5.835660208E0,-2.980302429E-1,1.784289551E-1,5.493576050E0,5.504546914E0
5.845600208E0,-8.791218567E-1,5.858816528E-1,4.881349182E0,4.994365064E0
5.855540208E0,-1.235680389E0,6.030958557E-1,3.450325012E0,3.714212343E0
5.865480208E0,-1.056502991E0,8.578660583E-1,2.442021790E0,2.795640028E0
5.875420208E0,5.373825073E-1,1.171912994E0,3.118614807E0,3.374598990E0
5.885361208E0,6.300997009E0,1.240320740E0,6.397546234E0,9.064742504E0
5.895301208E0,2.704021957E1,4.465214539E-1,1.997042130E1,3.361830726E1
5.905241208E0,6.151068787E1,-3.657344513E0,2.802397385E1,6.769256976E1
5.915181208E0,7.868432510E1,-3.716920624E0,2.233640121E1,8.187767300E1
5.925121208E0,7.820891373E1,9.714797974E-2,1.247386047E1,7.919747988E1
5.935061208E0,6.780330231E1,1.092727661E-2,-7.430548096E-1,6.780737463E1
5.945001208E0,4.262760544E1,-1.816322937E0,-8.992400208E0,4.360361265E1
5.954942208E0,1.914249298E1,-3.647315369E0,-2.212893265E1,2.948605784E1
5.964882208E0,-1.715118393E1,-1.267444336E1,-7.115632965E1,7.428342934E1
5.974822208E0,-1.305659866E1,-9.601034546E0,-4.390385147E1,4.679960264E1
5.984762208E0,-2.865790558E0,-3.844156036E0,-1.335208420E1,1.418691100E1
5.994702208E0,-2.277064819E0,-2.637365570E0,-5.641169128E0,6.630498509E0
6.004642208E0,-1.338366852E0,-1.969753876E0,-1.156495056E0,2.647383043E0
6.014583208E0,-1.275198212E0,-1.601070557E0,7.200027466E-1,2.169783713E0
6.024523208E0,-1.472338257E0,-1.087937622E0,1.616338806E0,2.442117800E0
6.034463208E0,-1.554966431E0,-7.635621643E-1,1.786834259E0,2.488719439E0
6.044403208E0,-1.465751953E0,-7.327262878E-1,1.795067139E0,2.430551919E0
6.054343208E0,-1.350491638E0,-7.479945374E-1,1.668879547E0,2.273429664E0
6.064283208E0,-1.433119812E0,-7.460485840E-1,1.838327179E0,2.447420622E0
6.074223208E0,-1.536255341E0,-7.647596741E-1,2.742447052E0,3.235112620E0
6.084164208E0,-1.710493011E0,-8.331674194E-1,3.752696228E0,4.207455677E0
6.094104208E0,-1.925296326E0,-1.006506958E0,4.569248199E0,5.059431915E0
6.104044208E0,-2.012714539E0,-1.265468445E0,5.088668060E0,5.616669193E0
6.113984208E0,-1.954485626E0,-1.481319580E0,5.458099823E0,5.983742595E0
6.123924208E0,-1.828896790E0,-1.615141296E0,5.773344269E0,6.267778627E0
6.133864208E0,-1.647024994E0,-1.741927643E0,5.905669098E0,6.373690512E0
6.143804208E0,-1.660496979E0,-1.950444031E0,5.830824738E0,6.368673273E0
6.153745208E0,-1.514251099E0,-2.107168121E0,5.544619904E0,6.121758224E0
6.163685500E0,-1.468895416E0,-2.342628479E0,5.179978180E0,5.871774509E0
6.173625500E0,-1.416803741E0,-2.355352020E0,5.128934326E0,5.819019101E0
6.183565500E0,-9.496252441E-1,-1.792522430E0,5.700745239E0,6.050902499E0
6.193505500E0,-6.134243774E-1,-1.030756531E0,6.735543365E0,6.841512473E0
6.203445500E0,1.989363098E-1,-9.107061768E-1,7.463180237E0,7.521171494E0
6.213386500E0,2.455044708E0,-8.044271851E-1,8.615633698E0,8.994636826E0
6.223326500E0,8.339607697E0,-1.271156616E0,1.203886505E1,1.470031181E1
6.233266500E0,2.100297409E1,-3.571423187E0,1.807027267E1,2.793590412E1
6.243206500E0,4.200954071E1,-6.268215179E0,2.224973145E1,4.794937520E1
6.253146500E0,6.510501343E1,-1.003722748E1,1.713052689E1,6.806514277E1
6.263086500E0,7.250861755E1,-1.157183624E1,1.120360199E1,7.427602380E1
6.273026500E0,6.231316910E1,-4.559069366E0,4.207300873E0,6.262122274E1
6.282966500E0,4.779066879E1,8.408015442E-1,-1.788929901E0,4.783152978E1
6.292907500E0,3.476730103E1,-1.505120087E0,-5.488636322E0,3.523004025E1
6.302847500E0,2.334230942E1,-3.724554749E0,-1.027807663E1,2.577546462E1
6.312787500E0,6.852450256E0,-6.870562592E0,-2.959600479E1,3.114617480E1
6.322727500E0,-1.955024506E1,-1.119162689E1,-6.743297241E1,7.109620498E1
6.332667500E0,-1.449720291E1,-7.298522644E0,-3.513688248E1,3.870449373E1
6.342607500E0,-1.676064606E0,-2.676584015E0,-9.021888885E0,9.558649152E0
6.352547500E0,-2.362088013E-1,-1.038390656E0,-2.662513275E0,2.867582029E0
6.362488500E0,-6.251000977E-1,6.646179199E-2,8.280780029E-1,1.039654020E0
6.372428500E0,-1.242715759E0,-4.758604431E-1,1.341510315E0,1.889559617E0
6.382368500E0,-1.453627167E0,-8.855584717E-1,1.552721100E0,2.303950642E0
6.392308500E0,-1.548230438E0,-8.391549683E-1,1.692081299E0,2.442199352E0
6.402248500E0,-1.520987091E0,-8.065228271E-1,1.598675537E0,2.349392320E0
6.412188500E0,-1.425036621E0,-7.488926697E-1,1.632505188E0,2.292736965E0
6.422128500E0,-1.322350159E0,-5.373825073E-1,2.380649414E0,2.775766837E0
6.432069500E0,-1.496737518E0,-4.565505981E-1,2.878364410E0,3.276223943E0
6.442009500E0,-1.595382385E0,-3.215313721E-1,2.931204529E0,3.352698520E0
6.451949500E0,-1.740281067E0,-3.040177917E-1,3.393443298E0,3.825762986E0
6.461889500E0,-2.045646057E0,-3.335064697E-1,3.872297516E0,4.392104553E0
6.471829500E0,-2.068698120E0,-3.523672485E-1,4.250411224E0,4.740218367E0
6.481769500E0,-1.922003174E0,-3.406915283E-1,4.876259766E0,5.252435266E0
6.491709500E0,-1.650318146E0,-4.258644104E-1,5.677842865E0,5.928137151E0
6.501650500E0,-1.539398804E0,-6.659651184E-1,6.409671021E0,6.625491741E0
6.511590500E0,-1.507964172E0,-1.119821320E0,6.821165314E0,7.075044309E0
6.521530500E0,-1.056203613E0,-1.495839386E0,6.620732117E0,6.869293654E0
6.531470500E0,-6.755451965E-1,-1.701661377E0,6.151308289E0,6.417990839E0
6.541410500E0,-1.016386414E-1,-1.472787323E0,5.501659241E0,5.696287152E0
6.551350500E0,4.567002869E-1,-4.456233215E-1,4.969066772E0,5.009868250E0
6.561290500E0,1.080752563E0,9.439370728E-1,5.024002533E0,5.224906196E0
6.571231500E0,2.232457581E0,1.344055023E0,5.895340576E0,6.445571446E0
6.581171500E0,6.929539948E0,9.190887451E-1,9.208999786E0,1.156152780E1
6.591111500E0,1.968511459E1,-4.818479919E-1,1.637040756E1,2.560715052E1
6.601051500E0,4.138503937E1,-3.162623291E0,2.286495209E1,4.738702041E1
6.610991500E0,6.022052078E1,-5.698499908E0,2.049403244E1,6.386696635E1
6.620931500E0,6.875457413E1,-6.441854095E0,1.186447769E1,7.006750159E1
6.630871500E0,6.481072540E1,-5.184618530E0,2.347418518E0,6.506013196E1
6.640812500E0,4.850064240E1,-3.816463623E0,-1.930685120E0,4.868886169E1
6.650752500E0,3.265773788E1,-4.067042542E0,-3.109483795E0,3.305658132E1
6.660692500E0,2.102258331E1,-3.759432220E0,-5.112618256E0,2.195953563E1
6.670632500E0,1.216669922E1,-3.711382141E0,-9.191186829E0,1.569333752E1
6.680572500E0,3.908222809E0,-4.403991852E0,-1.434047882E1,1.550221541E1
6.690512500E0,-1.151854706E1,-4.420906677E0,-2.878918259E1,3.132153215E1
6.700452500E0,-2.057740906E1,-3.120111694E0,-3.675950821E1,4.224247039E1
6.710393500E0,-1.081530945E1,-2.211950226E0,-1.952854019E1,2.243273332E1
6.720333500E0,-3.658841400E0,-1.898801422E0,-7.176526337E0,8.276176502E0
6.730273500E0,-1.268761597E0,-1.456920319E0,-2.443818054E0,3.115223826E0
6.740213500E0,-1.196162567E0,-1.116079102E0,-7.857160950E-1,1.814879398E0
6.750153500E0,-7.842192078E-1,-7.915539551E-1,2.523751831E-1,1.142475673E0
6.760093500E0,-3.830534363E-1,-5.584886169E-1,1.086740112E0,1.280485666E0
6.770033500E0,-2.303709412E-1,-4.438270569E-1,1.692530365E0,1.764854743E0
6.779974500E0,-1.264869690E-1,-3.405418396E-1,1.994901581E0,2.027708069E0
6.789914500E0,4.056564331E-2,-2.520758057E-1,2.234104156E0,2.248646074E0
6.799854500E0,1.707948303E-1,-2.005828857E-1,2.456092529E0,2.470181143E0
6.809794500E0,2.838098145E-1,-1.996847534E-1,2.739453278E0,2.761345011E0
6.819734500E0,5.016069031E-1,-1.549278259E-1,2.980601807E0,3.026482983E0
6.829674500E0,7.226971436E-1,-8.472381592E-2,3.093018036E0,3.177456507E0
6.839614500E0,9.598040771E-1,-3.592529297E-2,3.108286285E0,3.253299575E0
6.849555500E0,1.064137115E0,-3.233276367E-2,2.974464569E0,3.159251918E0
6.859495500E0,8.515791321E-1,-1.751358032E-1,2.923570404E0,3.050102207E0
6.869435500E0,5.141807556E-1,-2.695893860E-1,2.962190094E0,3.018547737E0
6.879375500E0,2.381547546E-1,-3.426374817E-1,2.970572662E0,2.999736667E0
6.889315500E0,1.646575928E-1,-4.472698975E-1,3.034190369E0,3.071396047E0
6.899255500E0,3.222798157E-1,-5.599855042E-1,3.201242981E0,3.265793115E0
6.909195500E0,1.020727386E0,-5.730084229E-1,3.432661743E0,3.626760220E0
6.919136500E0,1.997895355E0,-5.062472534E-1,4.001778259E0,4.501344396E0
6.929076500E0,3.518134003E0,-1.297801208E-1,5.429958344E0,6.471364412E0
6.939016500E0,6.829248505E0,3.339555359E-1,8.420439606E0,1.084684123E1
6.948956500E0,1.525133469E1,5.957611084E-1,1.478774872E1,2.125172118E1
6.958896500E0,3.174134354E1,-3.662882996E-1,2.258787827E1,3.895971382E1
6.968836500E0,4.846471710E1,-2.675087128E0,2.568748260E1,5.491658818E1
6.978776500E0,5.479175995E1,-1.304237823E0,2.256078461E1,5.926910660E1
6.988717500E0,5.780200012E1,1.939516754E0,1.786310349E1,6.053035114E1
6.998657500E0,5.258489914E1,-1.128652954E-1,9.943372650E0,5.351686665E1
7.008597500E0,3.999742493E1,-2.056124268E0,1.941762085E0,4.009728280E1
7.018537500E0,2.646376831E1,-2.372715912E0,-3.341501312E0,2.677921666E1
7.028477500E0,1.475391907E1,-3.992946625E0,-9.532776489E0,1.801376080E1
7.038417500E0,4.125121765E0,-6.078110504E0,-2.333841751E1,2.446715735E1
7.048357500E0,-9.067394257E0,-8.698710938E0,-5.226890625E1,5.375801123E1
7.058297500E0,-1.137065460E1,-8.872649231E0,-3.674873062E1,3.947765055E1
7.068238500E0,-4.674778748E-1,-4.751569061E0,-6.180347900E0,7.809778760E0
7.078178500E0,3.168161774E0,-3.588188324E0,-9.626481628E-1,4.882523524E0
7.088118500E0,3.045866089E0,-3.064427490E0,1.196611633E0,4.483290697E0
7.098058500E0,2.288890228E0,-2.623594208E0,2.034419403E0,4.032508816E0
7.107998500E0,1.665137329E0,-2.294279022E0,2.396815796E0,3.712293700E0
7.117938500E0,1.027613068E0,-2.087558899E0,2.462828522E0,3.388128554E0
7.127878500E0,4.379891968E-1,-1.880389709E0,2.365381165E0,3.053314273E0
7.137819500E0,1.332229614E-1,-1.583107910E0,2.268233185E0,2.769270805E0
7.147759500E0,-1.127156067E-1,-1.298399963E0,2.098336487E0,2.470134265E0
7.157699500E0,-3.143463135E-1,-1.066681824E0,1.944007416E0,2.239595622E0
7.167639708E0,-3.722758484E-1,-8.205935669E-1,1.877395935E0,2.082445343E0
7.177579708E0,-4.320016479E-1,-6.149212646E-1,1.849553833E0,1.996397497E0
7.187519708E0,-4.715194702E-1,-4.354444885E-1,1.821861420E0,1.931611127E0
7.197459708E0,-5.617817688E-1,-2.764750671E-1,1.743424530E0,1.852448734E0
7.207399708E0,-6.468049622E-1,-1.535806274E-1,1.568737793E0,1.703784591E0
7.217340708E0,-6.572831726E-1,-5.089416504E-2,1.294058990E0,1.452308526E0
7.227280708E0,-6.475534058E-1,-1.586700439E-2,1.047072601E0,1.231234424E0
7.237220708E0,-5.884263611E-1,2.829116821E-2,7.933502197E-1,9.881551213E-1
7.247160708E0,-4.414320374E-1,1.318757629E-1,7.057823181E-1,8.428417058E-1
7.257100708E0,-2.136058044E-1,2.841091919E-1,8.494834900E-1,9.208516017E-1
7.267040708E0,2.418969727E-1,4.364923096E-1,1.386566620E0,1.473637226E0
7.276980708E0,9.033714294E-1,6.776408386E-1,2.450703735E0,2.698374667E0
7.286921708E0,1.722917175E0,1.098864899E0,4.048930206E0,4.535392318E0
7.296861708E0,3.261417847E0,1.352886658E0,6.164780273E0,7.104341243E0
7.306801708E0,7.263944550E0,1.623673553E0,9.968670044E0,1.244088376E1
7.316741708E0,1.917048477E1,1.799408112E0,1.595142883E1,2.500386846E1
7.326681708E0,4.034694809E1,3.716770935E-1,2.279804123E1,4.634398610E1
7.336621708E0,5.489848801E1,6.572831726E-1,2.608760056E1,6.078518659E1
7.346561708E0,6.921935760E1,3.880530396E0,2.530622543E1,7.380232401E1
7.356502708E0,7.699658478E1,1.589993591E0,1.696033081E1,7.885844893E1
7.366442708E0,5.702960632E1,-2.456840973E0,2.268382874E0,5.712755575E1
7.376382708E0,3.134391998E1,-2.642604675E0,-4.995112610E0,3.184926733E1
7.386322708E0,1.421474030E1,-4.871769104E0,-1.173619446E1,1.906649512E1
7.396262708E0,-2.439926147E-2,-7.003785553E0,-2.516282364E1,2.611936640E1
7.406202708E0,-1.273207352E1,-7.677534485E0,-3.945435425E1,4.216273593E1
7.416142708E0,-1.106828339E1,-5.534441071E0,-2.102797211E1,2.439902756E1
7.426082708E0,-2.495011597E0,-2.752476196E0,-4.594994659E0,5.908907175E0
7.436023708E0,8.711883545E-2,-1.523382111E0,-1.086440735E0,1.873135397E0
7.445963708E0,6.198609924E-1,-7.596702576E-1,5.260061646E-1,1.112658544E0
7.455903708E0,6.956034851E-1,-4.528083801E-1,1.323697357E0,1.562393782E0
7.465843708E0,4.206253052E-1,-3.619473267E-1,1.624421997E0,1.716589159E0
7.475783708E0,1.661544800E-1,-3.311114502E-1,1.839973755E0,1.876897845E0
7.485723708E0,-5.194198608E-2,-3.049159241E-1,2.019899597E0,2.043444659E0
7.495663708E0,-1.510359192E-1,-3.007246399E-1,2.204016724E0,2.229559794E0
7.505604708E0,-2.424957275E-2,-3.251239014E-1,2.550246735E0,2.571002139E0
7.515544708E0,5.134323120E-2,-3.977229309E-1,2.861599274E0,2.889562261E0
7.525484708E0,7.634124756E-3,-4.833448792E-1,2.935395813E0,2.974933467E0
7.535424708E0,-9.819580078E-2,-5.740562439E-1,2.889740753E0,2.947844061E0
7.545364708E0,-1.751358032E-1,-6.092330933E-1,2.800077209E0,2.870935369E0
7.555304708E0,-2.439926147E-1,-5.619314575E-1,2.802023163E0,2.868210795E0
7.565244708E0,-3.255729675E-1,-4.616400146E-1,2.848726044E0,2.904195126E0
7.575184708E0,-3.118016052E-1,-3.490740967E-1,2.780018921E0,2.819144935E0
7.585125708E0,-2.553689575E-1,-1.706451416E-1,2.763253784E0,2.780270588E0
7.595065708E0,-6.960525513E-2,7.783813477E-3,2.758164368E0,2.759053490E0
7.605005708E0,2.799179077E-2,6.810836792E-2,2.918031921E0,2.918960874E0
7.614945708E0,-1.269360352E-1,-1.601669312E-2,3.104544067E0,3.107179293E0
7.624885708E0,-5.514532471E-1,-2.291734314E-1,3.322341156E0,3.375584676E0
7.634825708E0,-1.108444977E0,-2.284249878E-1,3.768563232E0,3.934831264E0
7.644765708E0,-1.160237274E0,-1.490899658E-1,4.541256409E0,4.689497640E0
7.654705708E0,-3.053649902E-1,-1.197509766E-1,5.700745239E0,5.710173759E0
7.664646708E0,1.556313629E0,-3.297642517E-1,7.096442871E0,7.272575747E0
7.674586708E0,6.916067963E0,-1.011746063E0,9.464967499E0,1.176610538E1
7.684526708E0,2.328288300E1,-4.763843536E0,1.641516449E1,2.888329052E1
7.694466708E0,5.793731873E1,-1.307590851E1,2.216351074E1,6.339505890E1
7.704406708E0,7.758171799E1,-1.984887405E1,1.988330246E1,8.251209901E1
7.714346708E0,6.806151535E1,-9.273216248E0,1.034229309E1,6.946456246E1
7.724286708E0,6.297599075E1,-1.282832336E-1,4.421655121E0,6.313115635E1
7.734227708E0,5.892930588E1,-4.539609833E0,-2.926414490E0,5.917630481E1
7.744167708E0,3.595118912E1,-4.853507080E0,-1.045455963E1,3.775370640E1
7.754107708E0,1.169503006E1,-6.565047913E0,-2.420391769E1,2.767134283E1
7.764047708E0,-4.336033173E0,-7.155869293E0,-3.373624512E1,3.475833546E1
7.773987708E0,-5.820196838E0,-3.979025574E0,-2.178165482E1,2.289427488E1
7.783927708E0,-2.971021729E0,-1.372795258E0,-7.060068512E0,7.781780280E0
7.793867708E0,-2.787054291E0,-4.210743713E-1,-2.467618561E0,3.746213636E0
7.803807708E0,-1.570983124E0,-1.119671631E-1,-4.131408691E-2,1.575509909E0
7.813748708E0,-7.201524353E-1,-5.972579956E-2,1.146016846E0,1.354821506E0
7.823688708E0,-6.897656250E-1,2.052232361E-1,1.476828918E0,1.642838047E0
7.833628708E0,-8.059240723E-1,2.993774414E-1,1.499431915E0,1.728420242E0
7.843568708E0,-1.013093262E0,3.026705933E-1,1.992356873E0,2.255538373E0
7.853508708E0,-1.145418091E0,2.472857666E-1,2.384840698E0,2.657178581E0
7.863448708E0,-1.373394012E0,2.276765442E-1,2.934797058E0,3.248242832E0
7.873388708E0,-1.668430481E0,2.348616028E-1,3.574716339E0,3.951887795E0
7.883328708E0,-1.779499512E0,1.914518738E-1,3.905977478E0,4.296502344E0
7.893269708E0,-1.877246246E0,1.571731567E-2,3.940854950E0,4.365161880E0
7.903209708E0,-1.895208893E0,-3.076103210E-1,3.617677002E0,4.095610791E0
7.913149708E0,-1.974394226E0,-6.846762085E-1,3.292403412E0,3.899606941E0
7.923089708E0,-2.130968628E0,-7.801776123E-1,3.009641418E0,3.769303101E0
7.933029708E0,-2.295326843E0,-5.846841431E-1,2.840193787E0,3.698253860E0
7.942969708E0,-2.297422485E0,-1.628613281E-1,2.709964600E0,3.556484503E0
7.952909708E0,-2.470762024E0,2.656974792E-1,2.795736237E0,3.740508152E0
7.962849708E0,-2.826123047E0,5.195695496E-1,2.998564453E0,4.153108808E0
7.972790708E0,-2.987487488E0,5.845344543E-1,3.152444458E0,4.382313097E0
7.982730708E0,-3.013383636E0,5.599855042E-1,3.397933960E0,4.576026650E0
7.992670708E0,-2.780767365E0,5.792953491E-1,4.036805420E0,4.935995162E0
8.002610708E0,-1.946402435E0,6.484515381E-1,4.894372101E0,5.306962417E0
8.012550708E0,-8.345146179E-1,6.833290100E-1,5.731431427E0,5.832037327E0
8.022490708E0,7.011419678E-1,7.206015015E-1,6.978787537E0,7.050839813E0
8.032430708E0,6.081553345E0,2.827619934E-1,1.243748611E1,1.384761013E1
8.042370708E0,2.301089859E1,-2.571502533E0,2.179677338E1,3.179958190E1
8.052311708E0,4.375655777E1,-6.469995575E0,2.475716721E1,5.068939257E1
8.062251708E0,7.288987473E1,-1.070094727E1,2.316777237E1,7.722816705E1
8.072191708E0,7.558082886E1,-8.957822113E0,1.827774124E1,7.827375098E1
8.082131708E0,7.177708878E1,-4.197122040E0,8.530909882E0,7.240402427E1
8.092071708E0,5.618311661E1,-5.549260254E0,1.293909302E0,5.647132974E1
8.102011708E0,3.442481323E1,-4.459526367E0,-6.891968079E0,3.539003201E1
8.111951708E0,1.648357224E1,-3.817960510E0,-1.396700546E1,2.193996850E1
8.121892708E0,-9.295669556E-2,-3.636537781E0,-2.834715179E1,2.857960921E1
8.131832708E0,-1.218017120E1,-3.574117584E0,-3.982932449E1,4.180318142E1
8.141772708E0,-1.271545807E1,-2.944077759E0,-2.844504822E1,3.129650517E1
8.151712708E0,-8.490044861E0,-1.425934753E0,-1.386237305E1,1.631807397E1
8.161651958E0,-3.203787689E0,-1.080902252E0,-5.442232819E0,6.407066668E0
8.171591958E0,-9.253756714E-1,-9.704319763E-1,-1.303489380E0,1.870064950E0
8.181531958E0,-4.281097412E-1,-8.467890930E-1,2.101629639E-1,9.718529673E-1
8.191471958E0,-1.787283325E-1,-6.721023560E-1,9.741741943E-1,1.196946429E0
8.201412958E0,-1.194515991E-1,-4.046086121E-1,1.561552734E0,1.617536323E0
8.211352958E0,-1.053808594E-1,-8.547225952E-2,1.936522980E0,1.941270688E0
8.221292958E0,-1.330732727E-1,2.146536255E-1,2.021097107E0,2.036815699E0
8.231232958E0,-6.122268677E-2,2.460882568E-1,1.706451416E0,1.725191028E0
8.241172958E0,-1.444496155E-1,2.035766602E-1,1.895358582E0,1.911725216E0
8.251112958E0,-8.053253174E-2,1.561253357E-1,2.455643463E0,2.461919054E0
8.261052958E0,1.697470093E-1,1.646575928E-1,2.769241333E0,2.779320732E0
8.270992958E0,3.960763550E-1,2.763253784E-1,3.190465393E0,3.226809821E0
8.280933958E0,8.122109985E-1,4.736151123E-1,3.768263855E0,3.883788159E0
8.290873958E0,1.502126312E0,5.301974487E-1,3.896547089E0,4.209580978E0
8.300813958E0,2.153421936E0,4.043092346E-1,4.048181763E0,4.603093262E0
8.310753958E0,2.414329376E0,-1.055305481E-1,4.558620300E0,5.159568013E0
8.320693958E0,2.971321106E0,-5.216651917E-1,5.860912170E0,6.591750538E0
8.330633958E0,4.828209686E0,-6.979985046E-1,7.719746704E0,9.131993203E0
8.340573958E0,9.536818085E0,-1.893562317E0,9.347910919E0,1.348776913E1
8.350513958E0,1.828836914E1,-4.653522949E0,1.084300186E1,2.176442995E1
8.360454958E0,2.481000732E1,-7.438032532E0,1.074330917E1,2.804067552E1
8.370394958E0,3.327086288E1,-9.280251617E0,1.376657227E1,3.718322067E1
8.380334958E0,5.486376022E1,-1.247146545E1,1.524968811E1,5.829341836E1
8.390274958E0,5.408597763E1,-1.173305099E1,1.614976639E1,5.765216749E1
8.400214958E0,5.112318878E1,-4.057612152E0,1.363230148E1,5.306490640E1
8.410154958E0,4.883998672E1,-2.861748962E0,9.969717865E0,4.992924178E1
8.420094958E0,4.067790985E1,-3.689677277E0,3.537892914E0,4.099783841E1
8.430034958E0,2.603041946E1,-2.815944214E0,-4.262536011E0,2.652699554E1
8.439975958E0,1.316557205E1,-3.060535583E0,-9.950408020E0,1.678421238E1
8.449915958E0,2.618504791E0,-3.722010040E0,-1.678489563E1,1.739087828E1
8.459855958E0,-5.948031006E0,-3.110232239E0,-2.282363800E1,2.379014647E1
8.469795958E0,-1.236967712E1,-2.854713593E0,-2.287932220E1,2.616527635E1
8.479735958E0,-9.628277893E0,-2.444416809E0,-1.197225357E1,1.555679158E1
8.489675958E0,-3.757037201E0,-1.476828918E0,-2.988984375E0,5.022985146E0
8.499615958E0,-2.375859375E0,-9.464817810E-1,-1.562750244E-1,2.562217285E0
8.509555958E0,-2.167193298E0,-3.788621521E-1,7.105723572E-1,2.311963753E0
8.519495958E0,-1.871707764E0,9.879455566E-2,9.434880066E-1,2.098385078E0
8.529436958E0,-1.732197876E0,1.465452576E-1,7.765850830E-1,1.903961498E0
8.539376958E0,-1.566342773E0,4.760101318E-2,7.713459778E-1,1.746616775E0
8.549316958E0,-1.403631134E0,-4.954696655E-2,1.129102020E0,1.802083970E0
8.559256958E0,-1.314566345E0,-1.353186035E-1,1.542392578E0,2.031100851E0
8.569196958E0,-1.419348450E0,-1.375639343E-1,1.877845001E0,2.357917663E0
8.579136958E0,-1.445693665E0,-1.761836243E-1,2.037862244E0,2.504786092E0
8.589076958E0,-1.520088959E0,-2.637515259E-1,2.283651123E0,2.755956778E0
8.599016958E0,-1.685345306E0,-3.056643677E-1,2.638712769E0,3.145890110E0
8.608957958E0,-1.659449158E0,-3.186872864E-1,2.927013245E0,3.379754374E0
8.618897958E0,-1.769919434E0,-2.951861572E-1,3.120261383E0,3.599413948E0
8.628837958E0,-1.777852936E0,-2.408491516E-1,3.256178741E0,3.717723681E0
8.638777958E0,-1.594933319E0,-1.944456482E-1,3.439547424E0,3.796328211E0
8.648717958E0,-1.336869965E0,-5.044509888E-2,3.670367432E0,3.906579462E0
8.658657958E0,-1.163081360E0,1.939965820E-1,4.069886627E0,4.237259737E0
8.668597958E0,-4.851411438E-1,5.367837524E-1,4.859195251E0,4.912766758E0
8.678537958E0,6.882687378E-1,7.194039917E-1,6.375691681E0,6.452960589E0
8.688478958E0,3.209625549E0,4.803511047E-1,8.912616119E0,9.485101973E0
8.698418958E0,9.390123138E0,-8.825646973E-1,1.273461823E1,1.584688721E1
8.708358958E0,1.945818649E1,-3.151097260E0,1.674867096E1,2.586635681E1
8.718298958E0,3.248933807E1,-5.141657867E0,1.774724442E1,3.737590692E1
8.728238958E0,6.259323669E1,-6.656807098E0,1.648955978E1,6.507020780E1
8.738178958E0,7.315841629E1,-4.196223907E0,1.382899246E1,7.457213422E1
8.748118958E0,7.851323090E1,-2.732567596E0,8.620274048E0,7.903229388E1
8.758058958E0,6.723089264E1,-5.151237946E0,1.346599731E0,6.744139314E1
8.767999958E0,3.825265320E1,-4.215533752E0,-8.177045746E0,3.934336385E1
8.777939958E0,1.699565735E1,-4.566404114E0,-1.535926025E1,2.335832380E1
8.787879958E0,1.401086426E-1,-5.637576599E0,-2.755799286E1,2.812907518E1
8.797819958E0,-9.890981598E0,-4.724325714E0,-3.235252258E1,3.415898839E1
8.807759958E0,-8.599617004E0,-3.117566986E0,-1.911465088E1,2.119062327E1
8.817699958E0,-3.920197906E0,-1.843266907E0,-7.307204590E0,8.494752700E0
8.827639958E0,-1.661544800E0,-1.185983734E0,-1.790576477E0,2.715410219E0
8.837579958E0,-7.214996338E-1,-9.183403015E-1,6.535409546E-1,1.338292349E0
8.847519958E0,-6.694079590E-1,-4.086502075E-1,1.776954803E0,1.942336320E0
8.857460958E0,-1.053958282E0,5.343887329E-1,2.175276489E0,2.475525638E0
8.867400958E0,-1.366807709E0,7.015910339E-1,2.078577576E0,2.584739451E0
8.877340958E0,-1.351090393E0,1.300794983E-1,1.422940979E0,1.966501197E0
8.887280958E0,-1.239871674E0,-2.245330811E-2,1.616787872E0,2.037593910E0
8.897220958E0,-1.414259033E0,-1.417552185E-1,2.393822021E0,2.783991204E0
8.907160958E0,-1.469643860E0,-2.430944824E-1,2.972967682E0,3.325279663E0
8.917100958E0,-1.272653503E0,-2.942880249E-1,3.040177917E0,3.308917368E0
8.927040958E0,-1.470242615E0,-3.791615295E-1,3.204236755E0,3.545773540E0
8.936981958E0,-1.742077332E0,-4.810995483E-1,3.468886414E0,3.911452819E0
8.946921958E0,-1.655557251E0,-5.828878784E-1,3.346141663E0,3.778530418E0
8.956861958E0,-1.742676086E0,-6.821315002E-1,3.339555359E0,3.828165791E0
8.966801958E0,-1.593436432E0,-7.488926697E-1,3.432212677E0,3.857455606E0
8.976741958E0,-1.520388336E0,-7.147636414E-1,3.562441864E0,3.938712961E0
8.986681958E0,-1.642833710E0,-6.954537964E-1,3.962559814E0,4.345622955E0
8.996621958E0,-1.510957947E0,-6.168672180E-1,4.412823486E0,4.704947418E0
9.006561958E0,-1.462608490E0,-4.839436340E-1,4.775219879E0,5.017584073E0
9.016502958E0,-1.975292358E0,-3.941304016E-1,4.993915100E0,5.384821882E0
9.026442958E0,-2.450853424E0,-3.089575195E-1,5.101391602E0,5.668009662E0
9.036382958E0,-2.013163605E0,-4.041595459E-3,5.321883087E0,5.689928262E0
9.046322958E0,-1.149609375E-1,4.655319214E-1,7.000342712E0,7.016746688E0
9.056262958E0,4.368216248E0,-1.425036621E-1,1.124716141E1,1.206649329E1
9.066202958E0,1.138771912E1,-1.899100800E0,1.485675522E1,1.881515097E1
9.076142958E0,2.055300980E1,-3.690425720E0,1.724863129E1,2.708432637E1
9.086082958E0,3.535348206E1,-5.364244995E0,1.669463333E1,3.946333235E1
9.096022958E0,7.243586884E1,-1.027972321E1,4.918022919E0,7.332676696E1
9.105963958E0,7.925239380E1,-1.091859467E1,-4.607418823E-1,8.000231194E1
9.115903958E0,7.021927826E1,-5.125192108E0,7.008425903E-1,7.040955769E1
9.125843958E0,4.883175385E1,-8.948391724E-1,-2.045646057E0,4.888277394E1
9.135783958E0,3.166814575E1,-2.995570679E0,-7.164102173E0,3.260627637E1
9.145723958E0,1.587089630E1,-4.504432983E0,-1.950354218E1,2.554532097E1
9.155663958E0,-2.829416199E0,-5.497168579E0,-4.169714035E1,4.215300668E1
9.165603958E0,-1.298804123E1,-4.752018127E0,-4.166555603E1,4.390090489E1
9.175543958E0,-8.131240997E0,-2.571203156E0,-1.676423859E1,1.880871769E1
9.185483958E0,-3.636238403E0,-1.348545685E0,-5.702092438E0,6.895988933E0
9.195424958E0,-2.089055786E0,-9.523196411E-1,-1.802252197E0,2.918763396E0
9.205364958E0,-1.196761322E0,-7.565267944E-1,4.644841003E-1,1.490072459E0
9.215304958E0,-7.297325134E-1,-3.475772095E-1,1.309776306E0,1.539101501E0
9.225244958E0,-8.208929443E-1,9.729766846E-2,1.354383545E0,1.586722045E0
9.235184958E0,-7.348219299E-1,2.781216431E-1,1.347198486E0,1.559570030E0
9.245124958E0,-7.029382324E-1,6.197113037E-2,1.733395386E0,1.871529359E0
9.255064958E0,-9.211843872E-1,-1.463955688E-1,2.489323425E0,2.658334714E0
9.265004958E0,-1.068029022E0,-1.847158813E-1,3.072061615E0,3.257663045E0
9.274944958E0,-1.022373962E0,-2.540217590E-1,3.027154999E0,3.205221203E0
9.284885958E0,-7.494914246E-1,-3.496728516E-1,2.654430084E0,2.780289116E0
9.294825958E0,-7.340734863E-1,-5.041516113E-1,2.865940247E0,3.001107500E0
9.304765958E0,-9.654922485E-1,-7.792794800E-1,3.586990814E0,3.795517737E0
9.314705958E0,-1.320104828E0,-1.152303772E0,4.154161377E0,4.508607045E0
9.324645958E0,-1.460812225E0,-1.477128296E0,4.262236633E0,4.741575843E0
9.334585958E0,-1.038390656E0,-1.523681488E0,4.100273438E0,4.495787216E0
9.344525958E0,-5.008584595E-1,-1.146166534E0,4.206402740E0,4.388437186E0
9.354465958E0,-5.538482666E-3,-6.080355835E-1,4.499493256E0,4.540393981E0
9.364406958E0,3.135978699E-1,-2.677931213E-1,4.975353699E0,4.992414367E0
9.374346958E0,7.298822021E-1,7.200027466E-2,5.879473572E0,5.925041903E0
9.384286958E0,2.207459564E0,2.634521484E-1,7.609426117E0,7.927524872E0
9.394226958E0,6.006409607E0,-4.393363953E-1,1.139161102E1,1.288560338E1
9.404166958E0,1.073717194E1,-1.902244263E0,1.438822952E1,1.805343577E1
9.414106958E0,1.580458420E1,-3.363355865E0,1.621742569E1,2.289327282E1
9.424046958E0,2.247306702E1,-4.040547638E0,1.605022339E1,2.791011353E1
9.433986958E0,4.900763809E1,-4.474944305E0,1.445678696E1,5.129105582E1
9.443926958E0,6.819279236E1,-6.406826935E0,1.427012512E1,6.996385375E1
9.453867958E0,6.739704712E1,-3.529660034E-1,1.011506561E1,6.815277762E1
9.463807958E0,6.284621063E1,3.248993683E0,4.158652039E0,6.306739679E1
9.473747958E0,4.738127014E1,4.755610657E-1,-3.390000458E0,4.750476841E1
9.483687958E0,2.911715057E1,-1.409319305E0,-1.106319397E1,3.117994386E1
9.493627958E0,1.060320053E1,-5.333409119E0,-2.554647583E1,2.816905291E1
9.503567958E0,-7.176226959E0,-9.609267426E0,-4.590054932E1,4.744150800E1
9.513507958E0,-1.053284683E1,-6.856042786E0,-3.483750504E1,3.703509069E1
9.523447958E0,-4.927602997E0,-3.256627808E0,-1.295451096E1,1.423749452E1
9.533387958E0,-2.077230377E0,-2.197580109E0,-5.003046112E0,5.845914366E0
9.543328958E0,-6.367758179E-1,-1.683549042E0,-7.623646545E-1,1.954743125E0
9.553268958E0,-3.727249146E-1,-1.266516266E0,1.540746002E0,2.029010980E0
9.563208958E0,-6.435118103E-1,-7.027885437E-1,2.100132751E0,2.306203972E0
9.573148958E0,-9.867480469E-1,-4.863386536E-1,1.810335388E0,2.118374663E0
9.583088958E0,-1.098864899E0,-5.454656982E-1,1.659449158E0,2.063688058E0
9.593028958E0,-8.809181213E-1,-6.390211487E-1,1.708547058E0,2.025709213E0
9.602968958E0,-9.178912354E-1,-7.083270264E-1,2.199675751E0,2.486528686E0
9.612908958E0,-1.082997894E0,-7.957452393E-1,2.872227173E0,3.171085596E0
9.622849958E0,-1.193917236E0,-8.836125183E-1,3.274291077E0,3.595440377E0
9.632789958E0,-1.455124054E0,-1.034798126E0,3.453019409E0,3.887355941E0
9.642729958E0,-1.572929077E0,-1.181792450E0,3.645668793E0,4.142661007E0
9.652669958E0,-1.709594879E0,-1.345851288E0,3.894152069E0,4.460767947E0
9.662609958E0,-1.787133636E0,-1.507066040E0,4.272116089E0,4.869914841E0
9.672549958E0,-1.631607056E0,-1.507066040E0,4.788991241E0,5.278998650E0
9.682489958E0,-1.487456818E0,-1.372495880E0,5.458099823E0,5.821265017E0
9.692429958E0,-1.563199310E0,-1.235830078E0,6.156248016E0,6.470723121E0
9.702369958E0,-1.569785614E0,-1.110989685E0,6.372997284E0,6.656847552E0
9.712309958E0,-1.246008911E0,-9.274713135E-1,6.121669922E0,6.315661792E0
9.722250958E0,-9.680369568E-1,-6.417155457E-1,5.982309723E0,6.094007221E0
9.732190958E0,-8.539741516E-1,-6.406677246E-2,6.079158325E0,6.139180918E0
9.742130958E0,-3.555107117E-1,5.081932068E-1,6.129603424E0,6.160899799E0
9.752070958E0,5.541476440E-1,7.896080017E-1,6.019133148E0,6.095943263E0
9.762010958E0,2.988684998E0,3.921844482E-1,7.364086304E0,7.957123459E0
9.771950958E0,1.237117401E1,-1.465153198E0,1.561956894E1,1.997907791E1
9.781890958E0,2.972249176E1,-5.073549500E0,2.126283371E1,3.689546745E1
9.791830958E0,6.278693390E1,-9.525890808E0,1.715911743E1,6.578280151E1
9.801771958E0,7.943351715E1,-1.427955551E1,6.958130493E0,8.100620305E1
9.811711958E0,7.090335571E1,-7.408693542E0,-1.629511414E0,7.130799323E1
9.821651958E0,5.305492172E1,-2.472408600E0,-3.515439606E0,5.322871254E1
9.831591958E0,4.000745407E1,-3.242557068E0,-5.248236237E0,4.048029819E1
9.841531958E0,2.803430237E1,-4.141437836E0,-1.003887405E1,3.006414158E1
9.851471958E0,1.195444061E1,-5.903423767E0,-2.129366959E1,2.512328456E1
9.861411958E0,-4.667893066E0,-7.717950439E0,-4.032389603E1,4.132036514E1
9.871351958E0,-1.043599823E1,-5.400619354E0,-3.569013199E1,3.757475575E1
9.881291958E0,-7.330705719E0,-2.874023438E0,-1.540551407E1,1.730113062E1
9.891232958E0,-3.866010590E0,-1.473386078E0,-5.681734772E0,7.028443244E0
9.901172958E0,-1.913919983E0,-8.488847351E-1,-1.376986542E0,2.505950305E0
9.911112958E0,-1.503174133E0,-4.673281860E-1,9.716294861E-1,1.849862689E0
9.921052958E0,-1.247805176E0,-1.249900818E-1,1.760339355E0,2.161350255E0
9.930992958E0,-1.140628052E0,-8.187973022E-2,1.652862854E0,2.009898569E0
9.940932958E0,-1.147813110E0,-1.811233521E-1,1.528621216E0,1.920146720E0
9.950872958E0,-1.391656036E0,-3.224295044E-1,1.938618622E0,2.408092496E0
9.960812958E0,-1.649569702E0,-5.102888489E-1,2.505639496E0,3.042976207E0
9.970752958E0,-1.772464142E0,-6.884184265E-1,3.000809784E0,3.552521418E0
9.980692958E0,-1.923949127E0,-9.120533752E-1,3.166066132E0,3.815415620E0
9.990633958E0,-1.586251373E0,-1.122964783E0,3.217409363E0,3.758851730E0
1.000057396E1,-1.450334015E0,-1.284029846E0,3.412154388E0,3.923646132E0
1.001051396E1,-1.539249115E0,-1.488055573E0,3.588038635E0,4.178231501E0
1.002045396E1,-1.552571411E0,-1.584006042E0,4.005520477E0,4.578618506E0
1.003039396E1,-1.541793823E0,-1.570384369E0,4.835394745E0,5.312652595E0
1.004033396E1,-1.686093750E0,-1.604513397E0,5.792205048E0,6.242356501E0
1.005027396E1,-1.973945160E0,-1.756148071E0,6.309229889E0,6.840094834E0
1.006021396E1,-2.235151978E0,-1.736538849E0,6.303392029E0,6.909719430E0
1.007015396E1,-2.468816071E0,-1.289418640E0,6.321204987E0,6.907625185E0
1.008009496E1,-2.275717621E0,-6.101312256E-1,6.826105042E0,7.221278338E0
1.009003496E1,-1.020128632E0,1.252894592E-1,7.565267944E0,7.634765153E0
1.009997496E1,6.869215393E-1,7.322772217E-1,8.174950104E0,8.236376651E0
1.010991496E1,4.371210022E0,5.174739075E-1,1.230082031E1,1.306466366E1
1.011985496E1,1.384979919E1,-9.153465271E-1,1.961341370E1,2.402791697E1
1.012979496E1,2.892075897E1,-2.661914520E0,2.092019623E1,3.579316553E1
1.013973496E1,6.245597214E1,-5.167254639E0,2.025752426E1,6.586210037E1
1.014967496E1,7.856906479E1,-6.971452789E0,1.369352417E1,8.005755242E1
1.015961496E1,7.747484024E1,-3.557202759E0,9.288185120E-1,7.756202206E1
1.016955613E1,6.278663452E1,-3.492686920E0,-5.569767609E0,6.312988712E1
1.017949612E1,3.820565094E1,-4.565955048E0,-1.603989487E1,4.168690366E1
1.018943612E1,1.309566742E1,-1.041998154E1,-3.602094406E1,3.971877304E1
1.019937613E1,-6.598578186E0,-1.251023483E1,-5.232982956E1,5.420754810E1
1.020931612E1,-4.125870209E0,-6.522386627E0,-3.263004547E1,3.353034744E1
1.021925612E1,-3.435356140E-1,-3.572171631E0,-1.270976990E1,1.320669064E1
1.022919613E1,1.272803192E0,-2.521955566E0,-4.225263519E0,5.082631174E0
1.023913612E1,2.248773651E0,-1.812281342E0,7.608677673E-1,2.986681495E0
1.024907613E1,1.987866211E0,-1.483564911E0,2.789748688E0,3.732998079E0
1.025901713E1,1.093326416E0,-1.387913818E0,3.391197968E0,3.823858140E0
1.026895712E1,3.764671326E-1,-1.256187744E0,3.638783112E0,3.867877672E0
1.027889712E1,-2.095642090E-3,-1.210832062E0,4.009711761E0,4.188544745E0
1.028883713E1,-1.318757629E-1,-1.270108795E0,4.334985352E0,4.519144340E0
1.029877712E1,-1.980381775E-1,-1.303040314E0,4.655319214E0,4.838298271E0
1.030871713E1,-2.962339783E-1,-1.374142456E0,4.813091125E0,5.014166754E0
1.031865712E1,-4.161346436E-1,-1.544488220E0,4.812941437E0,5.071786389E0
1.032859712E1,-7.399113464E-1,-1.891167297E0,4.838687897E0,5.247559729E0
1.033853713E1,-9.063652039E-1,-2.152823181E0,4.669539642E0,5.221182433E0
1.034847712E1,-1.121916962E0,-2.160457306E0,4.410578156E0,5.037804393E0
1.035841812E1,-1.256786499E0,-2.017205200E0,4.324956207E0,4.934964571E0
1.036835813E1,-1.255588989E0,-1.830393677E0,4.061204681E0,4.628199238E0
1.037829812E1,-1.333576813E0,-1.634301453E0,3.772455139E0,4.322127500E0
1.038823812E1,-1.463057556E0,-1.476978607E0,3.789819031E0,4.322583892E0
1.039817813E1,-1.530118103E0,-1.216969299E0,4.022734680E0,4.472658045E0
1.040811812E1,-1.634900208E0,-7.403604126E-1,4.149970093E0,4.521424997E0
1.041805812E1,-1.831291809E0,-2.143542480E-1,4.142036591E0,4.533877430E0
1.042799813E1,-1.729952545E0,2.263293457E-1,4.062402191E0,4.421207114E0
1.043793812E1,-1.297352142E0,6.379733276E-1,4.150868225E0,4.395433946E0
1.044787912E1,-6.240522766E-1,9.666897583E-1,4.490811310E0,4.635872793E0
1.045781913E1,1.582209778E-1,1.040635986E0,5.214556274E0,5.319732538E0
1.046775912E1,1.701511688E0,8.672964478E-1,6.886429596E0,7.146345761E0
1.047769912E1,5.899382172E0,3.724255371E-1,9.203760681E0,1.093849265E1
1.048763912E1,1.891571457E1,-1.201551361E0,1.555535248E1,2.451972622E1
1.049757912E1,5.254448318E1,-7.033423920E0,2.376024033E1,5.809424055E1
1.050751913E1,7.783618881E1,-1.633777542E1,2.057606186E1,8.215089480E1
1.051745912E1,7.857026230E1,-9.078920288E0,1.085931793E1,7.983506559E1
1.052739912E1,7.504449417E1,-4.718637543E0,6.096821594E-1,7.519516845E1
1.053733913E1,5.552538437E1,-8.506211243E0,-1.356119934E1,5.778693682E1
1.054728012E1,2.068743027E1,-1.287113434E1,-4.389337326E1,5.020223189E1
1.055722012E1,4.699477386E0,-1.150851791E1,-4.762705902E1,4.922263527E1
1.056716013E1,6.529571686E0,-3.791315918E0,-2.470238113E1,2.583054425E1
1.057710012E1,4.334685974E0,-1.020727386E0,-1.255154892E1,1.331813678E1
1.058704012E1,3.269051971E0,-5.881269836E-1,-4.708458710E0,5.762133074E0
1.059698013E1,3.788322144E0,-4.704716492E-1,-1.451980591E-1,3.820184644E0
1.060692012E1,3.610342255E0,-6.158193970E-1,2.272125092E0,4.310029832E0
1.061686013E1,2.470013580E0,-5.465135193E-1,3.252436523E0,4.120435347E0
1.062680012E1,1.374890900E0,-5.462141418E-1,3.600612488E0,3.892696387E0
1.063674012E1,6.316864014E-1,-5.733078003E-1,3.871249695E0,3.964124587E0
1.064668112E1,4.005670166E-1,-3.836521912E-1,3.697910156E0,3.739275660E0
1.065662113E1,3.814068604E-1,-1.492396545E-1,3.395838318E0,3.420447566E0
1.066656112E1,3.195854187E-1,-1.829196167E-1,3.178340607E0,3.199600512E0
1.067650113E1,6.945556641E-2,-4.575984192E-1,3.217708740E0,3.250826037E0
1.068644112E1,-3.106040955E-1,-8.270301819E-1,3.336860962E0,3.451824866E0
1.069638112E1,-6.824308777E-1,-1.115480347E0,3.392395477E0,3.635705624E0
1.070632113E1,-1.078656921E0,-1.366807709E0,3.488345947E0,3.898746146E0
1.071626112E1,-1.335373077E0,-1.582060089E0,3.802692261E0,4.329734843E0
1.072620112E1,-1.270108795E0,-1.797013092E0,4.287983093E0,4.819671297E0
1.073614113E1,-1.036744080E0,-2.099234619E0,4.613705750E0,5.173770870E0
1.074608212E1,-1.097368011E0,-2.159259796E0,5.050048370E0,5.600857788E0
1.075602212E1,-1.380279694E0,-2.181413727E0,5.363646240E0,5.952515340E0
1.076596213E1,-1.305585022E0,-1.907483368E0,5.720204773E0,6.169585699E0
1.077590212E1,-1.056353302E0,-1.401385803E0,6.123915253E0,6.370408346E0
1.078584212E1,-9.997709656E-1,-9.711804199E-1,6.251000977E0,6.404509864E0
1.079578213E1,-1.452279968E0,8.711883545E-2,6.267766113E0,6.434407420E0
1.080572212E1,-1.567540283E0,1.299148407E0,6.423891449E0,6.738794438E0
1.081566213E1,-4.023632813E-1,1.771416321E0,6.662794647E0,6.905986135E0
1.082560212E1,3.342998199E0,1.879341888E0,1.047042664E1,1.115066800E1
1.083554212E1,1.703487579E1,1.873653717E0,1.976894028E1,2.616311471E1
1.084548312E1,4.164070770E1,2.893482971E-1,2.981874161E1,5.121708320E1
1.085542313E1,6.943550812E1,-2.408790894E0,3.223501694E1,7.659104633E1
1.086536312E1,7.906243881E1,-5.848338318E0,2.524545181E1,8.320099236E1
1.087530313E1,7.366660950E1,-9.036408691E0,5.008434906E0,7.438756924E1
1.088524312E1,4.714491165E1,-8.540340271E0,-4.266577606E0,4.810180653E1
1.089518312E1,2.314487000E1,-6.660249939E0,-1.218286560E1,2.699011209E1
1.090512313E1,4.143982544E0,-9.877958679E0,-3.828857849E1,3.975879653E1
1.091506312E1,-1.375968658E1,-1.444256653E1,-6.125172638E1,6.441809286E1
1.092500312E1,-1.014171021E1,-1.018586838E1,-3.080848343E1,3.399660059E1
1.093494313E1,-1.853745117E0,-6.126160583E0,-7.252867584E0,9.673174383E0
1.094488412E1,-5.261558533E-1,-3.099754028E0,-1.025966492E0,3.307252978E0
1.095482412E1,2.383044434E-1,-8.801696777E-1,1.241518250E0,1.540407489E0
1.096476413E1,-4.995112610E-1,-1.971400452E-1,2.629432068E0,2.683708013E0
1.097470412E1,-1.348695374E0,-9.909393311E-2,2.163750458E0,2.551590653E0
1.098464412E1,-1.675914917E0,-3.216810608E-1,1.554816742E0,2.308597976E0
1.099458413E1,-1.907633057E0,-4.433779907E-1,1.695224762E0,2.590257693E0
1.100452412E1,-2.074985046E0,-5.034031677E-1,2.096240845E0,2.992190397E0
1.101446413E1,-2.130070496E0,-6.478527832E-1,2.323917389E0,3.218307875E0
1.102440412E1,-1.979483643E0,-8.529263306E-1,2.243684235E0,3.111263049E0
1.103434412E1,-1.917811890E0,-1.044827271E0,2.235301666E0,3.125098400E0
1.104428512E1,-1.985920258E0,-1.316063232E0,2.273472290E0,3.293110681E0
1.105422513E1,-2.172432404E0,-1.556163940E0,2.484084320E0,3.648531714E0
1.106416512E1,-2.501747589E0,-1.775607605E0,2.787503357E0,4.145081221E0
1.107410513E1,-2.761307831E0,-2.035766602E0,3.107837219E0,4.629019202E0
1.108404512E1,-2.919079742E0,-2.239792328E0,3.564238129E0,5.122644791E0
1.109398512E1,-3.109483795E0,-2.462529144E0,3.907025299E0,5.567565531E0
1.110392513E1,-3.208428040E0,-2.601889343E0,4.184997253E0,5.880309571E0
1.111386512E1,-3.000809784E0,-2.570155334E0,4.715643768E0,6.152060952E0
1.112380512E1,-2.631078644E0,-2.430944824E0,5.424868927E0,6.500866899E0
1.113374513E1,-2.403252411E0,-2.218536530E0,6.141428833E0,6.958065435E0
1.114368612E1,-2.026934967E0,-1.850451965E0,6.939868469E0,7.462868899E0
1.115362612E1,-7.295828247E-1,-1.522483978E0,8.175099792E0,8.347604757E0
1.116356613E1,2.719844055E0,-1.648521881E0,1.116153946E1,1.160582350E1
1.117350658E1,1.276769943E1,-3.410208435E0,1.734039047E1,2.180212861E1
1.118344658E1,3.615551422E1,-6.844067688E0,2.161894318E1,4.267834551E1
1.119338658E1,5.975199509E1,-1.024289978E1,2.533077438E1,6.570286176E1
1.120332658E1,6.874903564E1,-6.572382660E0,1.832534225E1,7.145239173E1
1.121326658E1,7.860499008E1,-3.348985748E0,5.664370880E0,7.887994212E1
1.122320658E1,6.493197327E1,-3.990850983E0,-3.045566711E0,6.512575159E1
1.123314658E1,3.980462585E1,-3.144510956E0,-7.644902344E0,4.065391396E1
1.124308758E1,2.299098999E1,-2.634072418E0,-1.143966110E1,2.581452700E1
1.125302758E1,7.667056274E0,-3.917653198E0,-2.091016708E1,2.261342181E1
1.126296758E1,-6.168223114E0,-4.464615784E0,-3.214939499E1,3.303881609E1
1.127290758E1,-1.501587433E1,-4.870421906E0,-3.262809952E1,3.624624628E1
1.128284758E1,-1.410681473E1,-3.030298462E0,-1.570399338E1,2.132604836E1
1.129278758E1,-5.019062805E0,-1.052162018E0,-4.862638092E0,7.067056358E0
1.130272758E1,-1.110989685E0,-3.288661194E-1,-1.112486572E0,1.606261927E0
1.131266758E1,-1.817071381E0,2.348616028E-1,5.195695496E-1,1.904431908E0
1.132260758E1,-1.808389435E0,6.903643799E-1,9.620494080E-1,2.161576829E0
1.133254758E1,-1.743873596E0,5.652246094E-1,1.353036346E0,2.278438354E0
1.134248758E1,-1.956581268E0,2.357597351E-1,1.600022736E0,2.538477037E0
1.135242858E1,-2.284998322E0,-5.269042969E-2,1.753154297E0,2.880545712E0
1.136236858E1,-2.329755249E0,-2.127076721E-1,1.562301178E0,2.813145756E0
1.137230858E1,-2.010618896E0,-2.251318359E-1,1.217717743E0,2.361378663E0
1.138224858E1,-1.985920258E0,-2.695893860E-1,1.123114471E0,2.297377597E0
1.139218858E1,-1.927391968E0,-2.302212524E-1,1.534309387E0,2.474256842E0
1.140212858E1,-1.986818390E0,-3.287164307E-1,2.147733765E0,2.944191252E0
1.141206858E1,-1.860630798E0,-3.655398560E-1,2.613415375E0,3.228855258E0
1.142200858E1,-1.967209167E0,-2.896476746E-1,2.905907135E0,3.521094143E0
1.143194858E1,-2.023192749E0,-1.658551025E-1,2.939587097E0,3.572392632E0
1.144188858E1,-2.071242828E0,-2.031275940E-1,2.954855347E0,3.614205002E0
1.145182958E1,-2.173929291E0,-5.559439087E-1,3.131338348E0,3.852313856E0
1.146176958E1,-2.387535095E0,-1.083596649E0,3.426973572E0,4.314933764E0
1.147170958E1,-2.577041016E0,-1.550924835E0,3.734883270E0,4.795400013E0
1.148164958E1,-2.731070709E0,-1.833986206E0,4.028871918E0,5.201351897E0
1.149158958E1,-2.647544403E0,-1.955683136E0,4.230203247E0,5.359926063E0
1.150152958E1,-2.229463806E0,-1.893262939E0,4.552483063E0,5.411104828E0
1.151146958E1,-5.454656982E-1,-1.580563202E0,6.411766663E0,6.626195334E0
1.152140958E1,4.109703827E0,-1.756896515E0,1.079824493E1,1.168667808E1
1.153134958E1,1.316931427E1,-3.221450958E0,1.477921646E1,2.005576784E1
1.154128958E1,3.329211868E1,-5.380710754E0,1.872875336E1,3.857568427E1
1.155122958E1,6.154736160E1,-9.108558655E0,1.783451294E1,6.472336064E1
1.156117058E1,7.377124191E1,-8.045319672E0,9.558373260E0,7.482169339E1
1.157111058E1,7.836518875E1,-8.294401703E0,-1.822609863E0,7.882399263E1
1.158105058E1,6.031961472E1,-7.265591125E0,-4.866230621E0,6.095018404E1
1.159099058E1,3.356066025E1,-4.286785583E0,-6.085744629E0,3.437631066E1
1.160093058E1,1.970891510E1,-2.615361328E0,-7.613767090E0,2.128968996E1
1.161087058E1,9.909542999E0,-1.329385529E0,-1.001148102E1,1.414906571E1
1.162081058E1,-6.721023560E-2,-1.268611908E0,-1.772359360E1,1.776906479E1
1.163075058E1,-1.534189636E1,-1.829345856E0,-2.525607971E1,2.960726013E1
1.164069058E1,-2.249836441E1,-1.407373352E0,-2.585648117E1,3.430327564E1
1.165063058E1,-5.724845123E0,-3.019221497E-1,-1.034573593E1,1.182790178E1
1.166057158E1,-3.727398834E0,6.765930176E-2,-5.105582886E0,6.321792187E0
1.167051158E1,-2.461032257E0,2.859054565E-1,-2.141297150E0,3.274687036E0
1.168045158E1,-1.500928802E0,2.718347168E-1,-6.923103333E-1,1.675104469E0
1.169039158E1,-1.468146973E0,2.097138977E-1,2.107617188E-1,1.497950585E0
1.170033158E1,-1.703307953E0,1.561253357E-1,7.414082336E-1,1.864220822E0
1.171027158E1,-1.761237488E0,1.170565796E-1,7.746391296E-1,1.927621724E0
1.172021158E1,-1.672172699E0,9.789642334E-2,6.447093201E-1,1.794824602E0
1.173015158E1,-1.580263824E0,4.535568237E-2,6.489006042E-1,1.708906928E0
1.174009158E1,-1.604663086E0,8.232879639E-3,7.634124756E-1,1.777022793E0
1.175003158E1,-1.679357758E0,-5.134323120E-2,9.372010803E-1,1.923856666E0
1.175997158E1,-1.723366241E0,-1.356179810E-1,1.052760773E0,2.024027837E0
1.176991258E1,-1.669777679E0,-1.901046753E-1,1.103804626E0,2.010642171E0
1.177985258E1,-1.558259583E0,-1.932481384E-1,1.061742096E0,1.895471986E0
1.178979258E1,-1.607806549E0,-1.145118713E-1,1.290316772E0,2.064720863E0
1.179973258E1,-1.967209167E0,-1.196012878E-1,1.857337646E0,2.708121029E0
1.180967258E1,-2.160906372E0,-1.667532349E-1,2.066752167E0,2.994793400E0
1.181961258E1,-2.362088013E0,-2.544708252E-1,2.431543579E0,3.399502810E0
1.182955258E1,-2.600392456E0,-3.701802063E-1,2.811004486E0,3.847183454E0
1.183949258E1,-2.833757172E0,-5.541476440E-1,3.102448425E0,4.238212542E0
1.184943258E1,-3.330873413E0,-6.527925110E-1,3.904929657E0,5.173908714E0
1.185937258E1,-1.335073700E0,-5.028044128E-1,6.513854370E0,6.668248107E0
1.186931258E1,4.204007721E0,-1.335522766E0,1.061173279E1,1.149200482E1
1.187925358E1,1.058149567E1,-3.072810059E0,1.389934616E1,1.773702444E1
1.188919358E1,2.236184830E1,-5.762117615E0,1.754217087E1,2.899968995E1
1.189913358E1,5.002582077E1,-8.393196259E0,9.477092285E0,5.160274959E1
1.190907358E1,6.768355133E1,-6.014492798E0,1.361867981E0,6.796390166E1
1.191901358E1,7.489570358E1,-9.443861389E-1,-2.930905151E0,7.495897868E1
1.192895358E1,7.672849228E1,-1.304537201E0,-3.446882172E0,7.681695348E1
1.193889358E1,5.406517090E1,-2.951861572E0,-7.107070770E0,5.461013318E1
1.194883358E1,2.784344925E1,-3.680097198E0,-1.009919861E1,2.984618224E1
1.195877358E1,1.118683685E1,-3.722309418E0,-1.325583435E1,1.774029454E1
1.196871358E1,7.265890503E-1,-2.786156158E0,-1.558364365E1,1.584741452E1
1.197865358E1,-5.886808319E0,-2.996468811E0,-1.689806030E1,1.814325714E1
1.198859458E1,-1.246682510E1,-2.938389587E0,-1.839434875E1,2.241445800E1
1.199853458E1,-9.400301971E0,-2.143243103E0,-8.974138184E0,1.317172442E1
1.200847458E1,-7.931556244E0,-1.089434509E0,-2.569855957E0,8.408365575E0
1.201841458E1,-9.850266266E0,-1.740879822E-1,-1.734143829E0,1.000326481E1
1.202835458E1,-7.942333832E0,4.017645264E-1,-6.837780762E-1,7.981831487E0
1.203829458E1,-3.886967010E0,1.621128845E-1,1.329235840E-1,3.892616319E0
1.204823458E1,-1.632355499E0,-4.355941772E-2,5.810916138E-1,1.733248211E0
1.205817458E1,-1.385518799E0,-1.002914429E-1,7.743397522E-1,1.590384472E0
1.206811458E1,-1.562151489E0,-1.218466187E-1,7.262896729E-1,1.727038090E0
1.207805458E1,-1.505419464E0,-1.399589539E-1,6.457571411E-1,1.644043356E0
1.208799458E1,-1.720671844E0,-3.022215271E-1,7.905061340E-1,1.917537326E0
1.209793458E1,-1.840123444E0,-3.421884155E-1,7.827223206E-1,2.028743806E0
1.210787558E1,-1.451980591E0,-1.893562317E-1,6.403683472E-1,1.598178663E0
1.211781558E1,-1.582509155E0,-2.165995789E-1,1.074016571E0,1.924775883E0
1.212775558E1,-2.043101349E0,-3.595523071E-1,1.840871887E0,2.773508660E0
1.213769558E1,-2.422262878E0,-3.579057312E-1,2.119891663E0,3.238733491E0
1.214763558E1,-2.927462311E0,-5.601351929E-1,2.423759766E0,3.841666099E0
1.215757558E1,-3.496728516E0,-6.965016174E-1,2.875520325E0,4.580484904E0
1.216751546E1,-4.587360535E0,-8.663983154E-1,3.841311951E0,6.045676159E0
1.217745546E1,-5.903124390E0,-1.449735260E0,5.319637756E0,8.077571154E0
1.218739546E1,-2.418221283E0,-1.634750519E0,6.487209778E0,7.113655469E0
1.219733546E1,1.750759277E0,-1.169218597E0,8.923244019E0,9.168233962E0
1.220727546E1,4.195325775E0,-1.495839386E0,9.461674347E0,1.045760849E1
1.221721646E1,6.300098877E0,-2.052831116E0,7.958649902E0,1.035593886E1
1.222715646E1,1.251861740E1,-3.538192291E0,8.474776611E0,1.552599191E1
1.223709646E1,3.052407486E1,-6.986122284E0,3.466641083E0,3.150464491E1
1.224703646E1,5.776981705E1,-8.718170471E0,-5.729635162E0,5.870423304E1
1.225697646E1,6.892477020E1,-5.872288513E0,-9.337133331E0,6.980178922E1
1.226691646E1,7.878536499E1,-3.661685486E0,-9.904154205E0,7.948983550E1
1.227685646E1,6.534032410E1,-4.974455566E0,-1.441188034E1,6.709549505E1
1.228679646E1,3.359089737E1,-4.765939178E0,-1.671558975E1,3.782160101E1
1.229673646E1,1.114372650E1,-4.025429077E0,-2.448218903E1,2.719860840E1
1.230667646E1,-6.370003510E0,-4.345014496E0,-3.173146408E1,3.265489103E1
1.231661646E1,-1.251727020E1,-3.506907349E0,-2.079745148E1,2.452579133E1
1.232655746E1,-4.758005676E0,-1.958377533E0,-6.825805664E0,8.547835021E0
1.233649746E1,-1.985171814E0,-9.108558655E-1,-2.620600433E0,3.411467744E0
1.234643746E1,-3.209326172E0,-2.615061951E-1,-6.261479187E-1,3.280277608E0
1.235637746E1,-3.011138306E0,2.146536255E-1,8.373587036E-1,3.132762307E0
1.236631746E1,-2.194586334E0,2.585124207E-1,1.007854156E0,2.428746148E0
1.237625746E1,-1.552421722E0,3.397933960E-2,8.330177307E-1,1.762125517E0
1.238619746E1,-1.517544250E0,-1.225950623E-1,1.301393738E0,2.002896843E0
1.239613746E1,-1.913171539E0,-1.161584473E-1,1.864672394E0,2.674083256E0
1.240607746E1,-2.018103333E0,2.365081787E-2,2.180216217E0,2.970966707E0
1.241601746E1,-1.941612396E0,1.284329224E-1,2.177821198E0,2.920489493E0
1.242595746E1,-2.180964661E0,3.879931641E-1,3.076552277E0,3.791084206E0
1.243589746E1,-2.282154236E0,7.638615417E-1,3.899540863E0,4.582371804E0
1.244583846E1,-2.324965210E0,7.708969116E-1,4.449646912E0,5.079281732E0
1.245577846E1,-2.361638947E0,1.414558411E-1,4.733756104E0,5.292050181E0
1.246571846E1,-2.783761139E0,-4.567002869E-1,4.386478271E0,5.215274955E0
1.247565846E1,-3.486250305E0,-6.707551575E-1,4.298161926E0,5.574769019E0
1.248559846E1,-4.101770325E0,-8.458909607E-1,4.499792633E0,6.147209534E0
1.249553846E1,-4.447102203E0,-8.855584717E-1,4.898413696E0,6.674982289E0
1.250547846E1,-4.006418610E0,-7.125183105E-1,5.441783752E0,6.795004255E0
1.251541846E1,-3.135829010E0,-5.221142578E-1,5.757327576E0,6.576689721E0
1.252535846E1,-2.280507660E0,-3.311114502E-1,5.694608002E0,6.143200328E0
1.253529846E1,-1.297501831E0,-3.263214111E-2,5.729335785E0,5.874509715E0
1.254523846E1,2.287243652E-1,1.293310547E-1,6.387666779E0,6.393068765E0
1.255517846E1,4.339326324E0,-5.222639465E-1,9.073980560E0,1.007172457E1
1.256511946E1,1.260319153E1,-2.859503632E0,1.224139389E1,1.780081240E1
1.257505946E1,2.604314301E1,-6.278394012E0,1.555684937E1,3.097868769E1
1.258499946E1,6.243022568E1,-1.219663696E1,1.047910858E1,6.446784274E1
1.259493946E1,7.843778778E1,-1.638148453E1,6.030958557E-1,8.013241112E1
1.260487946E1,7.514538437E1,-7.964487762E0,-6.658902740E0,7.585909862E1
1.261481946E1,7.283404083E1,-5.658083954E0,-8.365653534E0,7.353091579E1
1.262475946E1,5.280583969E1,-6.524033203E0,-1.403960449E1,5.502844909E1
1.263469946E1,2.625136002E1,-5.020260315E0,-2.188464066E1,3.454380426E1
1.264463946E1,3.729494476E0,-3.380420380E0,-3.449696320E1,3.486225524E1
1.265457946E1,-1.121288269E1,-2.727328491E0,-3.561214417E1,3.743516891E1
1.266451946E1,-4.691992950E0,-1.748214569E0,-1.158934982E1,1.262474084E1
1.267445946E1,-2.885998535E-1,-1.026415558E0,-2.197131042E0,2.442171900E0
1.268440046E1,-8.884025574E-1,-7.616162109E-1,-2.707868958E-1,1.201101120E0
1.269434046E1,-1.860630798E0,-1.718426514E-1,8.208929443E-1,2.040916973E0
1.270428046E1,-2.602039032E0,5.298980713E-1,1.617236938E0,3.109156542E0
1.271422046E1,-2.940185852E0,1.034498749E0,1.645827484E0,3.524716813E0
1.272416046E1,-2.688110046E0,8.363108826E-1,1.761985931E0,3.321136242E0
1.273410046E1,-2.234553223E0,2.086660767E-1,2.024090881E0,3.022203423E0
1.274404046E1,-2.373614044E0,2.380050659E-2,2.373464355E0,3.356775706E0
1.275398046E1,-2.530188446E0,5.239105225E-3,2.442620544E0,3.516856003E0
1.276392046E1,-2.527943115E0,-5.089416504E-2,2.247426453E0,3.382899979E0
1.277386046E1,-2.293081512E0,-7.334747314E-2,2.260898438E0,3.221065727E0
1.278380046E1,-2.373164978E0,-1.779798889E-1,2.896476746E0,3.748755312E0
1.279374046E1,-2.539768524E0,-4.957690430E-1,3.606150970E0,4.438528576E0
1.280368146E1,-2.541115723E0,-1.000070343E0,4.140839081E0,4.960237706E0
1.281362146E1,-1.980381775E0,-1.480421448E0,4.701872406E0,5.312359528E0
1.282356146E1,-1.522933044E0,-1.924098816E0,5.197192383E0,5.747372441E0
1.283350146E1,-1.735191650E0,-2.345921631E0,6.136339417E0,6.794770033E0
1.284344146E1,-2.405797119E0,-2.496957550E0,6.954388275E0,7.770854076E0
1.285338146E1,-2.997067566E0,-2.273921356E0,6.866970062E0,7.829968721E0
1.286332146E1,-3.021466827E0,-2.007625122E0,5.765261078E0,6.811611830E0
1.287326146E1,-2.710563354E0,-1.750160522E0,4.143683167E0,5.251697415E0
1.288320146E1,-2.144590302E0,-1.531465302E0,2.533182220E0,3.655361226E0
1.289314146E1,-1.654359741E0,-1.376387787E0,1.849104767E0,2.837346988E0
1.290308146E1,1.869612122E-1,-7.689509583E-1,4.018244019E0,4.095427336E0
1.291302146E1,4.587360535E0,-5.372328186E-1,8.049361267E0,9.280340111E0
1.292296246E1,1.200353851E1,-7.719447327E-1,1.237222183E1,1.725551241E1
1.293290246E1,2.904290497E1,-4.074526978E-1,2.006397675E1,3.530183437E1
1.294284246E1,6.902835480E1,-2.098635864E0,2.153631500E1,7.234038224E1
1.295278246E1,7.956284821E1,-3.206332397E0,1.226414658E1,8.056634951E1
1.296272246E1,7.808332489E1,-6.613247681E-1,6.384223938E-1,7.808873516E1
1.297266246E1,7.172843994E1,-2.078876953E0,-5.255720673E0,7.195077085E1
1.298260246E1,4.469989609E1,-2.208208008E0,-9.660610657E0,4.578519729E1
1.299254246E1,2.118873779E1,-2.424208832E0,-1.633418289E1,2.686344968E1
1.300248246E1,-4.448748779E-1,-3.027454376E0,-3.230746628E1,3.245205342E1
1.301242246E1,-3.000061340E1,-5.935008087E0,-5.547134674E1,6.334296674E1
1.302236246E1,-9.870324554E0,-3.496279449E0,-1.893292877E1,2.163568970E1
1.303230246E1,1.098715210E-1,-1.462309113E0,-3.822750549E0,4.094367039E0
1.304224346E1,-8.170010376E-1,-1.220112762E0,-1.096619568E0,1.832686641E0
1.305218346E1,-8.569679260E-1,-1.224154358E0,5.224136353E-2,1.495218070E0
1.306212346E1,-1.091979218E0,-1.287023621E0,8.678952026E-1,1.897917410E0
1.307206346E1,-1.589993591E0,-1.226848755E0,1.576820984E0,2.553351112E0
1.308200346E1,-2.129771118E0,-1.132694550E0,2.086062012E0,3.189134158E0
1.309194346E1,-2.290237427E0,-9.578581238E-1,2.030377808E0,3.207041269E0
1.310188346E1,-2.172582092E0,-8.066725159E-1,1.849254456E0,2.964890476E0
1.311182346E1,-1.957180023E0,-7.282356262E-1,1.858235779E0,2.795339153E0
1.312176346E1,-2.025887146E0,-6.712042236E-1,2.417023773E0,3.224397271E0
1.313170346E1,-2.438429260E0,-6.259982300E-1,3.428320770E0,4.253374466E0
1.314164346E1,-2.404150543E0,-5.667214966E-1,4.080664215E0,4.770003514E0
1.315158346E1,-2.312690735E0,-5.938151550E-1,4.539759521E0,5.129383139E0
1.316152346E1,-2.465522919E0,-7.402107239E-1,4.993765411E0,5.618221085E0
1.317146433E1,-2.483485565E0,-9.141490173E-1,5.027595062E0,5.681556221E0
1.318140433E1,-2.360591125E0,-1.093176727E0,4.917124786E0,5.562871739E0
1.319134433E1,-2.400108948E0,-1.228195953E0,5.073250122E0,5.745159272E0
1.320128433E1,-2.610271912E0,-1.194815369E0,5.406606903E0,6.121478696E0
1.321122433E1,-2.768792267E0,-1.154399414E0,5.639372864E0,6.387595394E0
1.322116433E1,-2.480192413E0,-1.199605408E0,5.020709381E0,5.726947724E0
1.323110433E1,-1.811383209E0,-1.348845062E0,3.835923157E0,4.451381650E0
1.324104433E1,-1.440753937E0,-1.112486572E0,3.345692596E0,3.808813100E0
1.325098433E1,-1.260229340E0,-8.656498718E-1,2.948568420E0,3.321382757E0
1.326092433E1,-9.710307312E-1,-9.101074219E-1,2.838247833E0,3.134780210E0
1.327086433E1,-2.436932373E-1,-1.058598633E0,2.878514099E0,3.076663920E0
1.328080433E1,2.979404297E0,-2.078577576E0,6.111042023E0,7.109301605E0
1.329074433E1,9.387578430E0,-4.282743988E0,1.109223358E1,1.514946107E1
1.330068433E1,1.867920639E1,-6.583309937E0,1.395547943E1,2.422825060E1
1.331062533E1,4.083628052E1,-1.211550568E1,1.353754852E1,4.469510604E1
1.332056533E1,7.611372070E1,-2.353181534E1,1.106798401E0,7.967603037E1
1.333050533E1,7.743008331E1,-2.426529007E1,-8.048313446E0,8.154138491E1
1.334044533E1,6.271313736E1,-8.041278076E0,-8.364456024E0,6.377745585E1
1.335038533E1,4.479599625E1,2.912942505E0,-1.001911514E1,4.599509954E1
1.336032533E1,3.269141785E1,-1.887275391E0,-2.606814102E1,4.185497086E1
1.337026533E1,3.207080841E0,-6.429878998E0,-6.060477173E1,6.102923126E1
1.338020533E1,-2.134561157E0,-4.875211945E0,-3.997946228E1,4.033213913E1
1.339014533E1,2.849474487E0,-2.077230377E0,-1.805216034E1,1.839333803E1
1.340008533E1,1.738933868E0,-1.572629700E0,-7.778424683E0,8.124096609E0
1.341002533E1,1.826801147E0,-1.033001862E0,-8.099656677E-1,2.249519873E0
1.341996533E1,2.998265076E-1,-7.991880798E-1,1.228046265E0,1.495558474E0
1.342990633E1,-1.070723419E0,-5.848338318E-1,1.830842743E0,2.200105543E0
1.343984633E1,-1.489552460E0,-6.355783081E-1,2.647993469E0,3.103964518E0
1.344978633E1,-1.774260406E0,-7.285350037E-1,3.337908783E0,3.849727040E0
1.345972633E1,-1.807341614E0,-6.750961304E-1,3.043620758E0,3.603590683E0
1.346966633E1,-2.000290375E0,-5.876779175E-1,3.974834290E0,4.488411138E0
1.347960633E1,-2.032024384E0,-4.914280701E-1,6.024372253E0,6.376808425E0
1.348954633E1,-1.598974915E0,-4.156855774E-1,7.708819427E0,7.883870385E0
1.349948633E1,-1.253493347E0,-4.135899353E-1,7.991731110E0,8.100004218E0
1.350942633E1,-1.653012543E0,-6.279441833E-1,7.098538513E0,7.315463990E0
1.351936633E1,-1.650916901E0,-1.253193970E0,6.303242340E0,6.635275860E0
1.352930633E1,-1.542691956E0,-1.835782471E0,5.669310608E0,6.155572964E0
1.353924633E1,-1.434017944E0,-1.704655151E0,5.351371765E0,5.796502085E0
1.354918633E1,-1.478176117E0,-1.110241241E0,5.293891296E0,5.607399157E0
1.355912633E1,-1.887874146E0,-9.662406921E-1,5.354215851E0,5.758933690E0
1.356906733E1,-2.512076111E0,-1.259331207E0,5.320386200E0,6.016888797E0
1.357900733E1,-3.078198853E0,-1.425785065E0,5.156177673E0,6.172061197E0
1.358894733E1,-3.290457458E0,-1.285975800E0,4.497996368E0,5.719511813E0
1.359888733E1,-3.287164307E0,-1.149908752E0,3.580554199E0,4.994808074E0
1.360882733E1,-3.001857605E0,-6.788383484E-1,2.758912811E0,4.133227611E0
1.361876733E1,-1.998344421E0,6.400689697E-1,2.142494659E0,2.998891808E0
1.362870733E1,-5.457650757E-1,1.778900757E0,1.948198700E0,2.694035188E0
1.363864733E1,7.370672607E-1,2.372566223E0,2.270328827E0,3.365521002E0
1.364858733E1,3.041525116E0,1.986069946E0,3.950734406E0,5.366903316E0
1.365852733E1,1.283475998E1,4.523593140E-1,1.246667542E1,1.789842699E1
1.366846733E1,3.961317398E1,-1.884281616E0,2.176084808E1,4.523592134E1
1.367840733E1,7.629050308E1,-8.977581024E0,2.084759720E1,7.959560371E1
1.368834733E1,7.879240036E1,-1.031340317E1,1.341630066E1,8.058911690E1
1.369828833E1,7.295753403E1,-3.118764496E0,-2.158511353E-1,7.302448257E1
1.370822833E1,5.393583984E1,-2.790197754E0,-6.588848419E0,5.440839041E1
1.371816833E1,3.244847305E1,-6.174809418E0,-2.522928543E1,4.156378854E1
1.372810833E1,-8.831634521E-3,-7.914192352E0,-6.116700256E1,6.167687347E1
1.373804833E1,-1.776475800E1,-7.991581421E0,-5.904666183E1,6.217684677E1
1.374798833E1,-3.890110474E0,-4.584067383E0,-1.619811584E1,1.727789311E1
1.375792833E1,-2.869532776E-1,-3.280128937E0,-4.889432373E0,5.894755038E0
1.376786833E1,2.701881409E-1,-2.404300232E0,-5.189707947E-1,2.474468008E0
1.377780833E1,3.034190369E-1,-2.016157379E0,1.268162842E0,2.401081149E0
1.378774833E1,-3.471281433E-1,-1.764979706E0,1.847907257E0,2.578839379E0
1.379768833E1,-8.120613098E-1,-1.555116119E0,2.323917389E0,2.911772956E0
1.380762833E1,-9.800120544E-1,-1.353784790E0,2.778671722E0,3.242556619E0
1.381756833E1,-1.070124664E0,-1.206341400E0,2.997067566E0,3.403357220E0
1.382750833E1,-8.479866028E-1,-1.056952057E0,2.913092194E0,3.212839096E0
1.383744933E1,-6.515950012E-1,-1.080453186E0,3.601360931E0,3.815986857E0
1.384738933E1,-5.789959717E-1,-1.197360077E0,4.336182861E0,4.535569346E0
1.385732933E1,9.235794067E-2,-1.177900543E0,4.564757538E0,4.715187277E0
1.386726933E1,9.648934937E-1,-1.005010071E0,4.782255249E0,4.981067151E0
1.387720933E1,1.318009186E0,-9.406439209E-1,5.254672852E0,5.498503976E0
1.388714933E1,1.319057007E0,-1.078357544E0,6.265820160E0,6.493324931E0
1.389708933E1,7.674540710E-1,-1.280437317E0,7.616910553E0,7.761818849E0
1.390702933E1,-1.766326904E-2,-1.867067413E0,8.873397675E0,9.067714100E0
1.391696933E1,-6.792874146E-1,-2.414928131E0,9.071735229E0,9.412209589E0
1.392690933E1,-8.708889771E-1,-2.289788361E0,8.067024536E0,8.430804423E0
1.393684933E1,-1.168470154E0,-1.937421112E0,7.151378632E0,7.500742590E0
1.394678933E1,-1.931134186E0,-1.567689972E0,5.789660339E0,6.301356833E0
1.395672933E1,-2.054028625E0,-9.957293701E-1,3.936364288E0,4.550326844E0
1.396667033E1,-1.008303223E0,1.317260742E-2,3.344345398E0,3.493063848E0
1.397661033E1,3.583547974E-1,8.921447754E-1,4.333488464E0,4.438858269E0
1.398655033E1,3.191064148E0,1.324146423E0,6.599326630E0,7.448984234E0
1.399649033E1,1.137409744E1,4.544549561E-1,1.238913666E1,1.682460487E1
1.400643033E1,2.910742081E1,-9.885443115E-1,2.036155792E1,3.553606910E1
1.401637033E1,5.752342941E1,-4.392016754E0,2.296180069E1,6.209250384E1
1.402631033E1,7.406627838E1,-6.378535767E0,1.733934265E1,7.633578529E1
1.403625033E1,7.523025787E1,-2.115550690E0,3.402723999E0,7.533688197E1
1.404619033E1,6.357085373E1,9.583071899E-1,-7.059469757E0,6.396880419E1
1.405613033E1,4.471426620E1,-1.237326965E0,-1.749486923E1,4.803089662E1
1.406607033E1,1.630304764E1,-4.366120605E0,-5.131868225E1,5.402276853E1
1.407601033E1,-8.216862946E0,-7.370373230E0,-7.021314102E1,7.107548389E1
1.408595033E1,-3.972289581E0,-5.408552856E0,-2.917867264E1,2.994038185E1
1.409589033E1,2.631527710E-1,-4.340074768E0,-8.619525604E0,9.654103791E0
1.410583033E1,1.101110229E0,-2.818638611E0,-1.595981140E0,3.421158160E0
1.411577133E1,1.110690308E-1,-1.818717957E0,7.292834473E-1,1.962632335E0
1.412571133E1,1.390608215E-1,-1.732796631E0,1.499731293E0,2.295891118E0
1.413565133E1,6.885681152E-3,-1.902393951E0,2.081870728E0,2.820165932E0
1.414559133E1,-2.728825378E-1,-1.738185425E0,2.358944550E0,2.942851141E0
1.415553133E1,-3.073109436E-1,-1.353186035E0,2.226619720E0,2.623621131E0
1.416547133E1,-4.656816101E-1,-1.151405640E0,2.051783295E0,2.398418020E0
1.417541100E1,-4.605921936E-1,-1.074016571E0,2.262395325E0,2.546387514E0
1.418535100E1,-5.535488892E-1,-1.256337433E0,2.567161560E0,2.911205694E0
1.419529100E1,-6.569837952E-1,-1.505269775E0,2.773582306E0,3.223386978E0
1.420523100E1,-8.415499878E-1,-1.797911224E0,2.886746979E0,3.503426790E0
1.421517100E1,-1.190624084E0,-2.020348663E0,2.920277252E0,3.745318900E0
1.422511100E1,-1.430874481E0,-2.360740814E0,2.962339783E0,4.049192013E0
1.423505100E1,-1.755249939E0,-2.699935455E0,3.206631775E0,4.544561712E0
1.424499100E1,-1.924847260E0,-2.920576630E0,3.737727356E0,5.119122055E0
1.425493200E1,-2.184856567E0,-3.376229095E0,3.916755066E0,5.613687858E0
1.426487200E1,-2.166893921E0,-3.377127228E0,4.028273163E0,5.685719150E0
1.427481200E1,-2.249372406E0,-3.306623840E0,4.671635284E0,6.149602725E0
1.428475200E1,-2.546953583E0,-3.235671387E0,5.308710480E0,6.718552585E0
1.429469200E1,-2.658920746E0,-2.665357361E0,5.918841705E0,7.014747075E0
1.430463200E1,-2.710413666E0,-1.891316986E0,6.705306244E0,7.475597234E0
1.431457200E1,-2.088906097E0,-1.215322723E0,7.987988892E0,8.345567958E0
1.432451200E1,2.085163879E-1,-7.773335266E-1,1.067310516E1,1.070340602E1
1.433445200E1,6.209836578E0,-8.057743835E-1,1.533336411E1,1.656271105E1
1.434439200E1,1.876647491E1,-1.431024170E0,1.919338715E1,2.688149031E1
1.435433200E1,4.087804367E1,-9.379495239E-1,2.212833389E1,4.649255171E1
1.436427200E1,6.500846420E1,-2.592608643E-1,2.088367218E1,6.828100320E1
1.437421200E1,7.720869370E1,1.185684357E0,1.282877243E1,7.827621370E1
1.438415200E1,7.594576996E1,1.004411316E-1,7.737409973E-1,7.594977774E1
1.439409200E1,5.296465942E1,-8.782237244E-1,-4.792134705E0,5.318825979E1
1.440403300E1,2.659968567E1,-1.276545410E0,-1.880240021E1,3.259912728E1
1.441397300E1,2.565964050E0,-2.368075562E0,-4.394262085E1,4.408112839E1
1.442391300E1,-3.252182053E1,-7.033573608E0,-6.875307724E1,7.638144800E1
1.443385300E1,-1.033346146E1,-3.638932800E0,-2.230766098E1,2.485264565E1
1.444379300E1,3.946692810E0,-1.504371643E-1,-1.760039978E0,4.323974584E0
1.445373300E1,4.039649506E0,-1.734892273E-1,1.483714600E0,4.307003094E0
1.446367300E1,1.827100525E0,-4.959187317E-1,3.552861786E0,4.025799124E0
1.447361300E1,3.143463135E-3,-6.509962463E-1,3.221750336E0,3.286864953E0
1.448355300E1,-6.704557800E-1,-6.433621216E-1,2.875819702E0,3.022211894E0
1.449349300E1,-1.079255676E0,-6.944059753E-1,2.820883942E0,3.099093204E0
1.450343300E1,-1.404828644E0,-5.953120422E-1,2.812201996E0,3.199440578E0
1.451337300E1,-1.797911224E0,-5.944139099E-1,3.308569794E0,3.812144639E0
1.452331300E1,-2.265239410E0,-6.727011108E-1,4.041445770E0,4.681572416E0
1.453325300E1,-2.680475922E0,-8.020321655E-1,4.352498932E0,5.174210443E0
1.454319400E1,-3.027454376E0,-1.144220581E0,4.641996918E0,5.658874104E0
1.455313400E1,-3.274141388E0,-1.711989899E0,4.547243958E0,5.859039072E0
1.456307400E1,-3.316203918E0,-2.221081238E0,4.290228424E0,5.859732948E0
1.457301400E1,-3.190914459E0,-2.613864441E0,3.925886078E0,5.694453784E0
1.458295400E1,-3.023562469E0,-2.948418732E0,3.592080231E0,5.544199077E0
1.459289400E1,-2.776127014E0,-2.975811768E0,3.302582245E0,5.241124532E0
1.460283400E1,-2.561922455E0,-2.770887909E0,3.154390411E0,4.918479982E0
1.461277400E1,-2.476450195E0,-2.584525452E0,3.075354767E0,4.719150805E0
1.462271400E1,-2.511926422E0,-2.262545013E0,2.833607483E0,4.411146751E0
1.463265400E1,-2.647694092E0,-1.872456207E0,2.659070435E0,4.193689525E0
1.464259400E1,-2.713407440E0,-1.728305969E0,2.380649414E0,4.002138565E0
1.465253400E1,-2.727178802E0,-1.634301453E0,2.020498352E0,3.767075663E0
1.466247400E1,-2.718496857E0,-1.340911560E0,1.876797180E0,3.565197979E0
1.467241400E1,-2.550097046E0,-8.539741516E-1,2.200723572E0,3.474974969E0
1.468235500E1,-1.602268066E0,-2.944377136E-1,3.496728516E0,3.857598584E0
1.469229500E1,5.206173706E-1,1.544787598E-1,5.978567505E0,6.003180452E0
1.470223500E1,7.349267120E0,-8.382568359E-2,1.259510834E1,1.458271264E1
1.471217500E1,2.919424026E1,-8.521778870E-1,2.146805695E1,3.624785981E1
1.472211500E1,6.849636108E1,-1.400038605E0,2.243160324E1,7.208944731E1
1.473205500E1,7.948486038E1,9.015751648E-1,2.004556503E1,8.197853710E1
1.474199500E1,7.820247711E1,3.367996216E0,6.283932495E0,7.852680200E1
1.475193500E1,7.350629288E1,4.224215698E-1,-1.990859985E0,7.353446169E1
1.476187500E1,4.387720688E1,-1.944007416E0,-1.834300552E1,4.759678876E1
1.477181500E1,5.870941315E0,-4.542453918E0,-5.875342163E1,5.922048964E1
1.478175500E1,-2.279340088E1,-8.031398621E0,-6.941051010E1,7.349735641E1
1.479169500E1,-6.152206421E-1,-3.178639984E0,-1.659718597E1,1.691002161E1
1.480163500E1,4.531676331E0,-1.475930786E0,-2.144590302E0,5.226253879E0
1.481157500E1,1.842668152E0,-1.313967590E0,2.062710571E-1,2.272550218E0
1.482151500E1,1.573527832E0,-1.572929077E0,1.902244263E0,2.927222054E0
1.483145500E1,-1.243913269E-1,-1.823358307E0,2.333796844E0,2.964239604E0
1.484139500E1,-9.430389404E-1,-1.481768646E0,2.571502533E0,3.114094739E0
1.485133600E1,-1.119372253E0,-1.159788208E0,2.554288330E0,3.020346305E0
1.486127600E1,-1.214274902E0,-1.061891785E0,2.388582916E0,2.882257110E0
1.487121600E1,-1.214574280E0,-1.051563263E0,2.190844116E0,2.716757979E0
1.488115600E1,-1.143023071E0,-1.033899994E0,2.442620544E0,2.888225418E0
1.489109600E1,-1.285975800E0,-1.118623810E0,2.787952423E0,3.267679865E0
1.490103600E1,-1.503922577E0,-1.321452026E0,2.959795074E0,3.573290564E0
1.491097600E1,-1.587448883E0,-1.710792389E0,3.195405121E0,3.956945595E0
1.492091600E1,-1.782044220E0,-2.152523804E0,3.626808014E0,4.578512498E0
1.493085600E1,-1.892813873E0,-2.687211914E0,4.305796051E0,5.416985496E0
1.494079600E1,-1.649869080E0,-3.197201385E0,5.107678528E0,6.247603110E0
1.495073600E1,-1.580413513E0,-3.350782013E0,6.257437592E0,7.271930430E0
1.496067600E1,-1.515149231E0,-3.310815125E0,7.551646271E0,8.383587262E0
1.497061600E1,-1.620380402E0,-3.165018311E0,8.781937866E0,9.474460736E0
1.498055600E1,-2.249522095E0,-2.912343750E0,9.848320312E0,1.051339663E1
1.499049600E1,-3.558250580E0,-2.740351410E0,1.004126907E1,1.099989807E1
1.500043700E1,-4.247267761E0,-2.358345795E0,8.969797211E0,1.020089900E1
1.501037700E1,-3.879482574E0,-1.732646942E0,7.477550354E0,8.600361025E0
1.502031700E1,-2.278262329E0,-7.807763672E-1,5.696703644E0,6.184862438E0
1.503025700E1,-1.511407013E0,5.393284607E-1,5.240003357E0,5.480224587E0
1.504019700E1,-1.020727386E0,1.491049347E0,5.259163513E0,5.560927388E0
1.505013700E1,1.556762695E-1,2.191592560E0,5.367987213E0,5.800224114E0
1.506007700E1,3.178041229E0,2.323168945E0,7.529492340E0,8.496488387E0
1.507001700E1,1.274973679E1,1.211281128E0,1.543006302E1,2.005267650E1
1.507995700E1,3.383114777E1,7.035369873E-1,2.135818542E1,4.001516723E1
1.508989700E1,6.456209244E1,9.999206543E-2,2.203537720E1,6.821899755E1
1.509983700E1,7.725928848E1,1.141376495E0,1.343920303E1,7.842775386E1
1.510977700E1,7.857565109E1,7.708969116E-2,-3.344345398E0,7.864682787E1
1.511971700E1,6.559943527E1,-4.517904968E0,-9.163045349E0,6.639020088E1
1.512965700E1,3.493809586E1,-6.231541443E0,-1.612401993E1,3.898059350E1
1.513959700E1,2.073787537E0,-9.254056091E0,-4.905419128E1,4.996250426E1
1.514953700E1,-3.227049316E1,-1.323427917E1,-7.250936600E1,8.046203472E1
1.515947700E1,-1.896107025E0,-6.342311096E0,-2.099219650E1,2.201118911E1
1.516941871E1,4.702171783E0,-3.212469635E0,-4.114044800E0,7.025364421E0
1.517935871E1,3.911815338E0,-2.087259521E0,-5.239105225E-1,4.464687423E0
1.518929871E1,2.913690948E0,-1.605561218E0,1.682052155E0,3.727830632E0
1.519923871E1,1.242266693E0,-1.541494446E0,2.195783844E0,2.956501032E0
1.520917871E1,1.797761536E-1,-1.407822418E0,2.919079742E0,3.245814223E0
1.521911871E1,-4.426295471E-1,-1.153501282E0,3.159030762E0,3.392043849E0
1.522905871E1,-6.339317322E-1,-8.512797546E-1,2.863395538E0,3.053781372E0
1.523899871E1,-7.891589355E-1,-6.965016174E-1,2.738255768E0,2.933586709E0
1.524893871E1,-9.036708069E-1,-6.207591248E-1,2.695145416E0,2.909599909E0
1.525887871E1,-9.337582397E-1,-5.119354248E-1,2.916385345E0,3.104719925E0
1.526881871E1,-9.635462952E-1,-4.589456177E-1,3.361110535E0,3.526487852E0
1.527875871E1,-9.544152832E-1,-4.683760071E-1,3.723955994E0,3.872742292E0
1.528869871E1,-1.037791901E0,-4.932243347E-1,3.878434753E0,4.045063462E0
1.529863871E1,-1.453327789E0,-7.349716187E-1,4.072880402E0,4.386422199E0
1.530857871E1,-1.878144379E0,-1.178199921E0,4.014202423E0,4.585782644E0
1.531851971E1,-2.243235168E0,-1.953737183E0,4.070635071E0,5.041751965E0
1.532845971E1,-2.417023773E0,-2.917582855E0,4.230802002E0,5.679258686E0
1.533839971E1,-2.426903229E0,-3.363954620E0,4.557273102E0,6.162368708E0
1.534833971E1,-2.503843231E0,-3.423530731E0,5.285359039E0,6.776784914E0
1.535827971E1,-2.479443970E0,-3.361559601E0,6.038592682E0,7.342501408E0
1.536821971E1,-2.209854584E0,-3.190615082E0,6.772815857E0,7.806056400E0
1.537815971E1,-1.900148621E0,-2.747686157E0,7.146588593E0,7.888857491E0
1.538809971E1,-1.578018494E0,-1.600771179E0,7.190447388E0,7.533601023E0
1.539803971E1,-6.559359741E-1,-5.854325867E-1,7.418722687E0,7.470637832E0
1.540797971E1,1.122216339E0,-3.113525391E-2,8.057444458E0,8.135278121E0
1.541791971E1,4.856201477E0,-1.460961914E-1,1.038929535E1,1.146915405E1
1.542785971E1,1.382180740E1,-2.004032593E0,1.609872253E1,2.131261067E1
1.543779971E1,2.967833359E1,-3.877237244E0,2.016157379E1,3.608774738E1
1.544773971E1,5.557672760E1,-6.306535492E0,1.679163162E1,5.839951997E1
1.545767971E1,6.840041061E1,-8.310568085E0,1.139250916E1,6.983889302E1
1.546761971E1,6.971916824E1,-6.538553009E0,3.265908508E0,7.010122149E1
1.547755971E1,5.809494095E1,-5.837860107E0,6.336323547E-1,5.839096047E1
1.548749971E1,4.079601425E1,-5.106181641E0,-3.791016541E0,4.128873546E1
1.549744071E1,2.595542542E1,-4.636308746E0,-9.811496887E0,2.813263120E1
1.550738071E1,9.983938293E0,-4.518803101E0,-2.557312042E1,2.782234881E1
1.551732071E1,-2.068249054E1,-4.475992126E0,-6.451883240E1,6.790051292E1
1.552726071E1,-1.878279099E1,-3.949686584E0,-4.365806259E1,4.769087639E1
1.553720071E1,-2.315684509E-1,-1.793570251E0,-7.344028015E0,7.563416271E0
1.554714071E1,1.363664246E0,-1.545985107E0,-3.498973846E0,4.061091984E0
1.555708071E1,2.646496582E0,-1.346749420E0,-4.095483398E-1,2.997567014E0
1.556702071E1,2.190095673E0,-1.463656311E0,4.593946838E-1,2.673920778E0
1.557696071E1,1.810934143E0,-1.288819885E0,8.996292114E-1,2.397889048E0
1.558690071E1,1.382225647E0,-8.882528687E-1,1.206940155E0,2.038687184E0
1.559684071E1,1.020278320E0,-5.846841431E-1,1.444795532E0,1.862862724E0
1.560678071E1,8.298742676E-1,-3.941304016E-1,1.564546509E0,1.814341713E0
1.561672071E1,7.494914246E-1,-2.941383362E-1,1.673819275E0,1.857397567E0
1.562666071E1,8.210426331E-1,-2.531236267E-1,1.849553833E0,2.039370481E0
1.563660071E1,9.147477722E-1,-1.987866211E-1,1.993554382E0,2.202393853E0
1.564654071E1,8.292755127E-1,-2.531236267E-1,1.967059479E0,2.149672635E0
1.565648071E1,1.077609100E0,-2.288740540E-1,2.146536255E0,2.412725140E0
1.566642171E1,1.258582764E0,-3.302133179E-1,2.888692932E0,3.168220047E0
1.567636171E1,9.253756714E-1,-7.042854309E-1,3.518134003E0,3.705348157E0
1.568630171E1,6.827302551E-1,-9.039701843E-1,3.872147827E0,4.034453060E0
1.569624171E1,1.270857239E-1,-1.166823578E0,4.147575073E0,4.310453228E0
1.570618171E1,-4.034111023E-1,-1.251996460E0,4.196822662E0,4.398130979E0
1.571612171E1,-7.075785828E-1,-1.136436768E0,4.053420868E0,4.268767587E0
1.572606171E1,-8.786727905E-1,-1.316512299E0,4.021686859E0,4.321948137E0
1.573600171E1,-6.001020813E-1,-1.177301788E0,4.214336243E0,4.416649406E0
1.574594171E1,-3.049159241E-1,-1.079255676E0,5.237758026E0,5.356479784E0
1.575588171E1,3.053649902E-2,-1.087787933E0,7.389832764E0,7.469527652E0
1.576582171E1,1.440454559E0,-8.731343079E-1,1.054931259E1,1.068294290E1
1.577576171E1,6.084547119E0,-8.689430237E-1,1.443553116E1,1.568952948E1
1.578570171E1,1.653521484E1,-1.409768372E0,2.003538620E1,2.601571596E1
1.579564171E1,3.479454437E1,-2.412982178E0,2.661300797E1,4.387180181E1
1.580558171E1,5.309399048E1,-3.151546326E0,2.588432327E1,5.915151951E1
1.581552171E1,6.952262695E1,-4.133803711E0,1.986563919E1,7.242325326E1
1.582546171E1,6.991121887E1,-6.266119537E0,8.480913849E0,7.070197082E1
1.583540171E1,5.027654938E1,-6.055507507E0,7.854167175E-1,5.064600150E1
1.584534271E1,3.106983994E1,-4.076472931E0,-4.788841553E0,3.169993042E1
1.585528271E1,1.737945923E1,-4.148772583E0,-1.320164703E1,2.221579171E1
1.586522271E1,2.911146240E0,-5.084476776E0,-3.632571030E1,3.679516144E1
1.587516271E1,-1.881212997E1,-8.641829224E0,-6.912864624E1,7.216195104E1
1.588510271E1,-1.087997498E1,-5.217699738E0,-2.743210464E1,2.996862712E1
1.589504271E1,2.154020691E0,-2.538421326E0,-3.291355591E0,4.681496512E0
1.590498271E1,3.305875397E0,-2.397115173E0,-1.289568329E0,4.282284410E0
1.591492271E1,3.257226562E0,-2.194436646E0,9.111552429E-1,4.031783842E0
1.592486271E1,2.145488434E0,-2.033371582E0,1.095721436E0,3.152511074E0
1.593480271E1,1.381626892E0,-1.792821808E0,1.369801483E0,2.645649071E0
1.594474271E1,7.833210754E-1,-1.470841370E0,1.602268066E0,2.311758897E0
1.595468271E1,2.794688416E-1,-1.106349335E0,1.730102234E0,2.072526338E0
1.596462271E1,3.936813354E-2,-8.120613098E-1,1.685345306E0,1.871198071E0
1.597456271E1,-1.333726501E-1,-7.027885437E-1,1.658101959E0,1.805824495E0
1.598450271E1,-3.493734741E-1,-7.300318909E-1,1.688339081E0,1.872297316E0
1.599444271E1,-5.557942200E-1,-8.129594421E-1,1.715881805E0,1.978398504E0
1.600438271E1,-6.532415771E-1,-8.011340332E-1,2.082319794E0,2.324778704E0
1.601432271E1,-7.089257812E-1,-8.610095215E-1,2.632725220E0,2.859222839E0
1.602426371E1,-6.137237549E-1,-9.369017029E-1,2.833008728E0,3.046371629E0
1.603420371E1,-5.132826233E-1,-9.671388245E-1,3.057092743E0,3.247250005E0
1.604414371E1,-6.872209167E-1,-1.061742096E0,3.503165131E0,3.724477789E0
1.605408371E1,-6.709048462E-1,-1.203197937E0,4.194577332E0,4.415005955E0
1.606402371E1,-7.705975342E-1,-1.355581055E0,5.466632080E0,5.684671218E0
1.607396371E1,-1.055604858E0,-1.428180084E0,6.794371033E0,7.022640365E0
1.608390371E1,-1.008153534E0,-1.378633118E0,7.265591125E0,7.463632978E0
1.609384371E1,-6.123765564E-1,-1.408870239E0,7.354655914E0,7.513380332E0
1.610378371E1,-6.939569092E-1,-1.162332916E0,7.807913361E0,7.924399349E0
1.611372371E1,-1.257235565E0,-1.574725342E-1,8.559051361E0,8.652329112E0
1.612366371E1,-6.954537964E-1,8.810678101E-1,8.752748566E0,8.824428816E0
1.613360371E1,1.301393738E0,1.697170715E0,9.572144623E0,9.808158175E0
1.614354371E1,7.055128784E0,2.421514435E0,1.364203125E1,1.554810570E1
1.615348371E1,2.322854599E1,2.836002502E0,2.298230804E1,3.279931009E1
1.616342371E1,4.927198837E1,1.325343933E0,2.899141205E1,5.718380319E1
1.617336321E1,6.964701828E1,8.240364075E-1,2.408566360E1,7.369874750E1
1.618330321E1,7.884030075E1,-3.817062378E-1,1.161060562E1,7.969156094E1
1.619324321E1,6.944029816E1,-3.595822449E0,1.182840271E0,6.954339694E1
1.620318321E1,4.379472839E1,-3.753893738E0,-5.075944519E0,4.424743118E1
1.621312421E1,2.314666626E1,-5.131179657E0,-1.579425568E1,2.848781627E1
1.622306421E1,-5.343887329E-1,-8.971593475E0,-5.312138351E1,5.387630692E1
1.623300421E1,-2.145383652E1,-1.487337067E1,-7.073211182E1,7.539572865E1
1.624294421E1,-2.799478455E0,-6.663842468E0,-1.749726425E1,1.893140598E1
1.625288421E1,3.623664551E0,-3.909869385E0,-2.908451843E0,6.072653086E0
1.626282421E1,3.284170532E0,-3.492986298E0,-7.577243042E-1,4.853954623E0
1.627276421E1,2.367476807E0,-2.949167175E0,9.913883972E-1,3.909652723E0
1.628270421E1,1.184935913E0,-2.673739929E0,1.477876740E0,3.276748081E0
1.629264421E1,1.538800049E-1,-2.299667816E0,1.872306519E0,2.969458338E0
1.630258421E1,-3.981719971E-1,-1.824705505E0,2.090103607E0,2.802967037E0
1.631252421E1,-5.698649597E-1,-1.404080200E0,2.188598785E0,2.661982705E0
1.632246421E1,-6.629713440E-1,-1.175804901E0,2.135010223E0,2.525928903E0
1.633240421E1,-7.894583130E-1,-1.183588715E0,2.173180847E0,2.597468319E0
1.634234421E1,-9.336085510E-1,-1.330283661E0,2.251168671E0,2.776515789E0
1.635228421E1,-1.094224548E0,-1.409768372E0,2.478695526E0,3.054293001E0
1.636222421E1,-1.134490814E0,-1.524130554E0,3.127895508E0,3.659750492E0
1.637216421E1,-1.283580780E0,-1.732197876E0,3.463647308E0,4.079821292E0
1.638210421E1,-1.204245758E0,-1.777553558E0,3.675606537E0,4.256757911E0
1.639204421E1,-6.497987366E-1,-1.579066315E0,4.080514526E0,4.423379661E0
1.640198521E1,-1.796264648E-1,-1.393003235E0,4.696184235E0,4.901721131E0
1.641192521E1,-1.038839722E-1,-1.387764130E0,5.503455505E0,5.676680690E0
1.642186521E1,-5.402265930E-1,-1.511107635E0,6.587052155E0,6.779715860E0
1.643180521E1,-7.409591675E-1,-1.426982574E0,7.545059967E0,7.714481814E0
1.644174521E1,-6.914122009E-1,-1.441652069E0,8.517886963E0,8.666649285E0
1.645168521E1,-7.101232910E-1,-1.578317871E0,9.224717102E0,9.385668224E0
1.646162521E1,-1.007405090E0,-1.263672180E0,9.298663330E0,9.438054467E0
1.647156521E1,-8.366102600E-1,-4.034111023E-1,8.848998413E0,8.897608115E0
