"Time (s)","Acceleration x (m/s^2)","Acceleration y (m/s^2)","Acceleration z (m/s^2)","Absolute acceleration (m/s^2)"
2.236541652E-3,3.996239777E0,-3.969295807E0,9.490264893E0,1.103586740E1
1.217554166E-2,4.111799469E0,-3.714076538E0,-4.198319550E0,6.951772899E0
2.211554165E-2,5.273234253E0,-4.022584991E0,-5.055586853E0,8.339493266E0
3.205554164E-2,8.420589294E0,-5.870641937E0,-4.186494141E0,1.108591422E1
4.199554166E-2,1.184202438E1,-8.134833527E0,-4.611460419E0,1.508889079E1
5.193554165E-2,1.500000732E1,-9.851014709E0,-5.394631805E0,1.873885703E1
6.187454166E-2,1.839210342E1,-1.130673752E1,-5.862558746E0,2.237144110E1
7.181454165E-2,2.294787964E1,-1.382899246E1,-5.626200256E0,2.737700389E1
8.175454166E-2,2.968836273E1,-1.781699936E1,-4.882397003E0,3.496687216E1
9.169454165E-2,4.026461929E1,-2.387175842E1,-5.568420410E-1,4.681250357E1
1.016345416E-1,4.347978333E1,-2.621723099E1,1.039932449E1,5.182644796E1
1.115735417E-1,3.137999496E1,-2.155951675E1,3.200195160E1,4.973571908E1
1.215135416E-1,2.124532013E1,-1.769844589E1,8.582253113E0,2.895261099E1
1.314535417E-1,1.747136810E1,-1.522933044E1,-4.555776215E0,2.362067539E1
1.413935416E-1,1.453522385E1,-1.183843185E1,-7.715854797E0,2.027204026E1
1.513335417E-1,1.202659058E1,-9.051078186E0,-6.666387177E0,1.646212669E1
1.612725416E-1,8.706943817E0,-7.347919922E0,-3.107088776E0,1.180918280E1
1.712125417E-1,4.771028595E0,-6.350993042E0,4.757107544E-1,7.957645832E0
1.811525417E-1,3.040776672E0,-5.114564209E0,1.059347076E0,6.043782429E0
1.910925416E-1,3.248095551E0,-4.079317017E0,2.700384521E-1,5.221481858E0
2.010325417E-1,3.391946411E0,-3.315605164E0,-2.088157654E-1,4.747856578E0
2.109715416E-1,3.075205078E0,-2.406994629E0,-2.266287231E-1,3.911760473E0
2.209115417E-1,2.369871826E0,-1.209035797E0,2.371069336E-1,2.671007250E0
2.308515417E-1,1.425485687E0,5.915698242E-1,4.393363953E-1,1.604674662E0
2.407915416E-1,1.881587219E-1,2.317031708E0,6.340814209E-1,2.409584796E0
2.507315417E-1,-4.890330505E-1,2.892584839E0,9.274713135E-1,3.076752088E0
2.606705416E-1,-5.197192383E-1,2.729873199E0,8.725355530E-1,2.912667860E0
2.706105417E-1,-2.880010986E-1,2.370769958E0,6.042933655E-1,2.463466115E0
2.805505416E-1,-2.356100464E-1,1.828148346E0,-1.913021851E-1,1.853168906E0
2.904905417E-1,-1.368154907E-1,1.234782257E0,-1.129700775E0,1.679175257E0
3.004305417E-1,-9.400451660E-2,8.482859802E-1,-1.585053864E0,1.800228237E0
3.103705416E-1,-2.713856506E-1,7.216493225E-1,-1.676214294E0,1.845026362E0
3.203095417E-1,-5.375321960E-1,7.379653931E-1,-1.646126862E0,1.882356881E0
3.302495416E-1,-7.450007629E-1,1.038240967E0,-1.121617584E0,1.700293047E0
3.401895417E-1,-7.429051208E-1,1.844913483E0,3.580554199E-1,2.020845729E0
3.501295416E-1,-2.200424194E-2,1.953138428E0,1.381477203E0,2.392428299E0
3.600695417E-1,7.453001404E-1,1.605112152E0,2.380499725E0,2.966249528E0
3.700085416E-1,1.253044281E0,8.086184692E-1,3.925137634E0,4.198891431E0
3.799485417E-1,1.971400452E0,-7.140151978E-1,5.879772949E0,6.242432809E0
3.898885417E-1,2.670596466E0,-2.165397034E0,6.356830902E0,7.227055342E0
3.998285416E-1,3.419189758E0,-2.906954956E0,2.234104156E0,5.013229209E0
4.097685417E-1,3.788322144E0,-3.069666595E0,-2.610720978E0,5.530831917E0
4.197075416E-1,5.004093933E0,-3.649560699E0,-3.516487427E0,7.122214067E0
4.296475417E-1,7.754923553E0,-5.018913116E0,-3.469934235E0,9.867561593E0
4.395875417E-1,1.197345108E1,-7.598498840E0,-3.321443024E0,1.456477597E1
4.495275416E-1,1.607073074E1,-9.731263733E0,-3.970942383E0,1.920245463E1
4.594675417E-1,2.091405899E1,-1.200758011E1,-4.557871857E0,2.454290202E1
4.694065416E-1,2.911505493E1,-1.617671036E1,-4.109404449E0,3.355979122E1
4.793465417E-1,4.031237000E1,-2.187281525E1,-8.331674194E-1,4.587157496E1
4.892865416E-1,5.047623413E1,-2.744363068E1,8.000263367E0,5.800868289E1
4.992265417E-1,4.189323257E1,-2.778626816E1,1.873309433E1,5.364744595E1
5.091665417E-1,2.379392029E1,-2.092798004E1,9.481283569E0,3.307605976E1
5.191065416E-1,1.727841934E1,-1.643642029E1,-7.988887024E-1,2.386080279E1
5.290455417E-1,1.406714722E1,-1.357571915E1,-6.221661987E0,2.051569787E1
5.389855416E-1,1.018976028E1,-1.143277542E1,-5.034780121E0,1.612106012E1
5.489255417E-1,6.277346191E0,-9.536668396E0,-1.074166260E0,1.146764808E1
5.588655417E-1,5.938750305E0,-7.296876068E0,-4.314028931E-1,9.418028668E0
5.688045417E-1,6.060447235E0,-5.118456116E0,-1.665287018E0,8.105602664E0
5.787445416E-1,5.080135803E0,-3.350482635E0,-2.737207947E0,6.672767118E0
5.886845417E-1,4.062252502E0,-2.101180573E0,-3.349584503E0,5.668912730E0
5.986245417E-1,2.553240509E0,-1.169817352E0,-2.766546936E0,3.942244498E0
6.085645416E-1,1.434916077E0,-1.148112488E-1,-1.194965057E0,1.870857359E0
6.185045417E-1,9.925859070E-1,9.030720520E-1,5.819897461E-1,1.462695450E0
6.284435416E-1,8.196954346E-1,1.598376160E0,1.798959045E0,2.542235355E0
6.383835417E-1,5.620811462E-1,2.338137817E0,2.370769958E0,3.376888192E0
6.483235417E-1,2.665956116E-1,2.916684723E0,2.168839874E0,3.644446377E0
6.582635416E-1,8.517288208E-2,3.005899200E0,1.161434784E0,3.223602826E0
6.682035417E-1,-1.178050232E-1,2.793341217E0,-2.439926147E-1,2.806450708E0
6.781425416E-1,-3.917353821E-1,2.719694366E0,-1.199306030E0,2.998087559E0
6.880825417E-1,-6.661148071E-1,2.778671722E0,-1.285975800E0,3.133442075E0
6.980225416E-1,-7.845185852E-1,2.875220947E0,-5.686674500E-1,3.034097489E0
7.079625417E-1,-1.240769806E0,3.062930603E0,1.175206146E0,3.507443952E0
7.179025417E-1,-1.758393402E0,2.863844604E0,3.189716949E0,4.633340857E0
7.278415417E-1,-1.263821869E0,2.115999756E0,3.874991913E0,4.592413636E0
7.377815417E-1,6.092330933E-2,1.310225372E0,2.818039856E0,3.108335697E0
7.477215416E-1,9.198371887E-1,6.251000977E-1,1.026265869E0,1.513298457E0
7.576615417E-1,1.020577698E0,-4.281097412E-2,-5.373825073E-1,1.154206037E0
7.676015417E-1,8.587641907E-1,-6.985972595E-1,-1.265618134E0,1.681458690E0
7.775405417E-1,1.196012878E0,-1.124162292E0,-1.037193146E0,1.941637785E0
7.874805417E-1,2.009421387E0,-1.960473175E0,2.827619934E-1,2.821556968E0
7.974205417E-1,4.025878143E0,-4.087699585E0,5.427114258E0,7.897502889E0
8.073605417E-1,5.207969971E0,-4.869673462E0,4.409530334E0,8.383354258E0
8.173005416E-1,4.892276459E0,-3.862717438E0,-2.663261719E0,6.778489355E0
8.272395417E-1,6.066734161E0,-4.087250519E0,-4.696034546E0,8.692733784E0
8.371795416E-1,8.898395691E0,-5.307962036E0,-4.676125946E0,1.136758817E1
8.471195417E-1,1.348111588E1,-7.294481049E0,-5.443280640E0,1.626589202E1
8.570595417E-1,2.111778534E1,-1.096709381E1,-5.550757141E0,2.443458428E1
8.669995416E-1,3.729479507E1,-1.766551437E1,-5.054988098E-1,4.127017890E1
8.769385417E-1,4.352992905E1,-2.183524338E1,-5.693111115E0,4.903105231E1
8.868785416E-1,5.444852371E1,-2.717449036E1,4.514761505E0,6.102030590E1
8.968185417E-1,4.561868546E1,-2.745710266E1,1.932496353E1,5.664283860E1
9.067585416E-1,2.501298523E1,-2.099818405E1,6.853348389E0,3.336976997E1
9.166985417E-1,1.896765656E1,-1.725641510E1,-2.393372955E0,2.575430239E1
9.266385417E-1,1.323832077E1,-1.475496689E1,-4.298161926E0,2.028389461E1
9.365775417E-1,7.273824005E0,-1.277698013E1,4.550537109E-2,1.470244224E1
9.465175417E-1,6.578669586E0,-1.037732025E1,1.236428833E-1,1.228751223E1
9.564579583E-1,7.464228058E0,-8.357270966E0,-1.478026428E0,1.130235553E1
9.663979583E-1,6.814728699E0,-6.620432739E0,-1.497785339E0,9.618420755E0
9.763379583E-1,5.773493958E0,-5.142705688E0,-1.646575928E0,7.905179730E0
9.862769583E-1,4.912185059E0,-3.735182648E0,-2.020348663E0,6.493301178E0
9.962169583E-1,4.132456512E0,-2.476001129E0,-2.046544189E0,5.234130447E0
1.006156958E0,3.178939362E0,-1.460363159E0,-1.762135620E0,3.917070074E0
1.016096958E0,1.992057495E0,-5.909710693E-1,-9.470805359E-1,2.283528281E0
1.026036958E0,7.897576904E-1,5.936654663E-1,1.024020538E0,1.422945522E0
1.035975958E0,1.649569702E-1,1.881287842E0,2.651136932E0,3.254993361E0
1.045915958E0,3.158432007E-2,2.623743896E0,2.054028625E0,3.332275979E0
1.055855958E0,-1.511856079E-1,2.859503632E0,1.642085266E-1,2.868201971E0
1.065795958E0,-4.816983032E-1,3.187172241E0,-1.724414062E-1,3.227977105E0
1.075735958E0,-6.831793213E-1,4.203858032E0,1.972298584E0,4.693518727E0
1.085674958E0,-1.106049957E0,5.615572357E0,4.591402130E0,7.337504544E0
1.095614958E0,-1.696422272E0,5.791007538E0,2.775228882E0,6.641950931E0
1.105554958E0,-1.960622864E0,4.872218170E0,-3.614982605E-1,5.264335941E0
1.115494958E0,-9.334588623E-1,3.781286774E0,-1.989662476E0,4.373583414E0
1.125434958E0,1.104702759E-1,3.028053131E0,-2.606230316E0,3.996716891E0
1.135373958E0,5.629792786E-1,2.374063110E0,-2.690056000E0,3.631738234E0
1.145313958E0,1.040486298E0,1.790277100E0,-1.996099091E0,2.876128545E0
1.155253958E0,1.152752838E0,1.260528717E0,-1.382525024E0,2.197532069E0
1.165193958E0,1.190773773E0,7.014413452E-1,-6.450086975E-1,1.525122408E0
1.175133958E0,2.432441711E0,-2.953358459E-1,4.107458496E0,4.782803701E0
1.185072958E0,2.685415649E0,-2.884202271E0,1.425380905E1,1.478854802E1
1.195012958E0,2.473905487E0,-4.224515076E0,1.076651093E1,1.182727752E1
1.204952958E0,2.604284363E0,-3.199895782E0,9.868977356E-1,4.242121781E0
1.214892958E0,2.786754913E0,-2.252515869E0,-4.328698425E0,5.619382595E0
1.224832958E0,4.366719360E0,-3.181783447E0,-4.000131683E0,6.722576691E0
1.234771958E0,7.436086578E0,-4.791835327E0,-3.671564941E0,9.577967348E0
1.244711958E0,1.259450958E1,-7.289541321E0,-4.395908661E0,1.520141761E1
1.254651958E0,2.028761169E1,-1.131287476E1,-5.577252045E0,2.388878532E1
1.264591958E0,3.085009689E1,-1.701631439E1,-6.782545624E0,3.587877310E1
1.274531958E0,4.560730911E1,-2.320339828E1,-3.053799591E0,5.126158433E1
1.284470958E0,5.767566284E1,-2.753643768E1,2.000440063E0,6.394325019E1
1.294410958E0,4.751658875E1,-2.565889206E1,5.868097229E0,5.431978933E1
1.304350958E0,2.966276596E1,-1.928140411E1,1.603450607E1,3.884272923E1
1.314290958E0,1.937855209E1,-1.586850128E1,6.354136505E0,2.584013670E1
1.324230958E0,1.400861893E1,-1.352317841E1,-7.997868347E-1,1.948736558E1
1.334170958E0,1.141376495E1,-1.146091690E1,-4.023632812E0,1.666782132E1
1.344109958E0,7.005432129E0,-9.594448242E0,4.171824646E-1,1.188711730E1
1.354049958E0,3.854634247E0,-7.800578613E0,4.346062317E0,9.726021260E0
1.363989958E0,4.211641846E0,-6.217321014E0,3.758085022E0,8.397393087E0
1.373929958E0,5.316045227E0,-4.818330231E0,1.084345093E0,7.256200614E0
1.383869958E0,5.396727448E0,-3.664379883E0,-1.241069183E0,6.640225884E0
1.393808958E0,4.508773956E0,-2.645448761E0,-2.324067078E0,5.720902859E0
1.403748958E0,3.343896332E0,-1.343156891E0,-2.484683075E0,4.377140973E0
1.413688958E0,2.175276489E0,1.029858398E-1,-2.167941742E0,3.072849701E0
1.423628958E0,1.277144165E0,1.271455994E0,-1.537602539E0,2.368948951E0
1.433568958E0,6.210585022E-1,2.098186798E0,-1.159189453E0,2.476251540E0
1.443507958E0,3.188369751E-1,2.744991760E0,-1.811981964E0,3.304529531E0
1.453447958E0,2.960842896E-1,3.259022827E0,-3.148851929E0,4.541383508E0
1.463387958E0,4.225712585E-1,3.763473816E0,-3.399430847E0,5.089050178E0
1.473327958E0,3.344046021E-1,4.055516510E0,-2.728076935E0,4.899126898E0
1.483267958E0,2.031275940E-1,4.377496948E0,-1.250649261E0,4.557177188E0
1.493206958E0,-1.086740112E-1,5.340743866E0,2.370320892E0,5.844123220E0
1.503146958E0,-9.084608459E-1,6.021677856E0,4.773722992E0,7.737850898E0
1.513086958E0,-1.413809967E0,5.669460297E0,3.553610229E0,6.838843787E0
1.523026958E0,-1.775457916E0,4.471501465E0,1.379680939E0,5.005007058E0
1.532966958E0,-1.553469543E0,3.258873138E0,2.559677124E-2,3.610287655E0
1.542905958E0,-1.190324707E0,2.349514160E0,-3.876937866E-1,2.662216402E0
1.552845958E0,-7.059320068E-1,1.370699615E0,7.005432129E-2,1.543394001E0
1.562785958E0,-3.552113342E-1,2.986289978E-1,1.248254242E0,1.331725581E0
1.572725958E0,2.035766602E-2,-1.845961304E0,8.276738434E0,8.480117138E0
1.582665958E0,1.976938934E0,-5.118755493E0,1.689042618E1,1.775940432E1
1.592604958E0,3.766916656E0,-5.249882812E0,7.384743347E0,9.812510634E0
1.602544958E0,2.387385406E0,-3.016377411E0,-5.071753235E0,6.365596802E0
1.612484958E0,3.880829773E0,-3.486549683E0,-5.422623596E0,7.524740200E0
1.622424958E0,6.867119751E0,-4.943619690E0,-4.591252441E0,9.626853499E0
1.632364958E0,1.102367615E1,-6.649622040E0,-5.244643707E0,1.390126601E1
1.642304958E0,1.758094025E1,-9.448202362E0,-6.650370483E0,2.103771412E1
1.652243958E0,2.795811081E1,-1.483370316E1,-8.337661743E0,3.272936468E1
1.662183958E0,4.101485916E1,-2.174288544E1,-8.684041443E0,4.722694480E1
1.672123958E0,5.629104218E1,-2.772175232E1,-3.503314819E0,6.284465129E1
1.682063958E0,5.960425232E1,-2.699396576E1,2.126283371E1,6.880006671E1
1.692003958E0,3.763608536E1,-1.917722076E1,2.015543655E1,4.680258903E1
1.701942958E0,2.429163528E1,-1.496108826E1,-1.778601379E0,2.858463100E1
1.711882958E0,1.849074829E1,-1.229318619E1,-3.977678375E0,2.255775087E1
1.721822958E0,1.011835876E1,-1.037372772E1,1.906285858E0,1.461606434E1
1.731762958E0,5.015919342E0,-9.325607300E0,4.828209686E0,1.163778360E1
1.741702958E0,5.581892395E0,-8.058492279E0,8.414002991E-1,9.838941761E0
1.751641958E0,5.929469604E0,-6.522835693E0,-8.044271851E-1,8.851728553E0
1.761581958E0,5.429060211E0,-5.006788330E0,-1.901795197E0,7.626234269E0
1.771521958E0,4.292623444E0,-3.447929993E0,-2.243384857E0,5.945385848E0
1.781461958E0,3.259022827E0,-2.199975128E0,-2.849923553E0,4.856252116E0
1.791401958E0,2.670147400E0,-1.171014862E0,-3.221750336E0,4.345185631E0
1.801340958E0,2.130818939E0,-7.783813477E-3,-2.293979645E0,3.130941160E0
1.811280958E0,1.594184875E0,1.179098053E0,-9.919871521E-1,2.217145946E0
1.821220958E0,1.231339417E0,2.380350037E0,1.751358032E-2,2.680031675E0
1.831160958E0,9.279203796E-1,3.892655182E0,1.039887543E0,4.134630177E0
1.841100958E0,1.127156067E0,5.217849426E0,1.412013702E0,5.521794648E0
1.851039958E0,1.417851562E0,5.515430603E0,-1.106199646E-1,5.695833088E0
1.860979958E0,1.652713165E0,5.589077454E0,-6.216572571E-1,5.861374014E0
1.870919958E0,2.035916290E0,6.637646942E0,2.886447601E0,7.518968801E0
1.880859958E0,-6.810836792E-2,8.710536346E0,1.075109299E1,1.383705469E1
1.890799958E0,-3.339106293E0,6.805597687E0,7.846682739E0,1.091037216E1
1.900738958E0,-3.026107178E0,4.087400208E0,2.565215607E0,5.696007041E0
1.910678958E0,-2.250869293E0,2.153272247E0,1.710942078E-1,3.119658182E0
1.920618958E0,-1.441801758E0,9.577084351E-1,-2.328707428E0,2.901529948E0
1.930558958E0,-1.153650970E0,1.889071655E-1,-3.411405945E0,3.606145726E0
1.940498958E0,-9.786648560E-1,-3.519181824E-1,-3.162623291E0,3.329236758E0
1.950437958E0,-1.231938171E-1,-7.406597900E-1,-2.686912537E0,2.789848136E0
1.960377542E0,8.930429077E-1,-1.479074249E0,-2.064955902E0,2.692439256E0
1.970317542E0,2.190544739E0,-2.889591064E0,-7.444020081E-1,3.701669505E0
1.980257542E0,4.090094604E0,-4.519102478E0,1.570833435E0,6.294337039E0
1.990197542E0,5.228776703E0,-4.861290894E0,1.483265533E0,7.291936067E0
2.000136542E0,9.213640137E0,-7.649542694E0,6.912325745E0,1.382703566E1
2.010076542E0,1.320479050E1,-9.221124573E0,4.741240540E0,1.678913316E1
2.020016542E0,1.563618439E1,-9.388476563E0,-2.836451569E0,1.845749744E1
2.029956542E0,2.171130112E1,-1.174667267E1,-6.522386627E0,2.553245860E1
2.039896542E0,3.623844177E1,-1.732886444E1,-3.731590118E0,4.034152909E1
2.049836542E0,5.130700653E1,-2.258099258E1,-1.647773438E0,5.608052516E1
2.059775542E0,5.604480423E1,-2.394286057E1,-2.525099030E0,6.099718664E1
2.069715542E0,4.589141830E1,-1.783151917E1,4.149970093E0,4.940857822E1
2.079655542E0,2.694187408E1,-1.085557571E1,1.194605804E1,3.140726677E1
2.089595542E0,1.696556992E1,-8.761580200E0,6.784940643E0,2.026403883E1
2.099535542E0,1.272967850E1,-8.275540924E0,-1.775906982E0,1.528669807E1
2.109474542E0,9.448501740E0,-6.914720764E0,-3.296744385E0,1.216371949E1
2.119414542E0,5.669909363E0,-5.393284607E0,-1.038540344E0,7.893918994E0
2.129354542E0,3.235671387E0,-4.123924255E0,9.994715881E-1,5.336221888E0
2.139294542E0,2.045945435E0,-2.889890442E0,1.178648987E0,3.731832381E0
2.149234542E0,1.152902527E0,-1.762434998E0,4.984634399E-1,2.164215137E0
2.159173542E0,1.039139099E0,-7.535330200E-1,-3.385958862E-1,1.327504898E0
2.169113542E0,1.056053925E0,3.128494263E-1,-7.638615417E-1,1.340376481E0
2.179053542E0,8.562194824E-1,1.277742920E0,-5.884263611E-1,1.646810358E0
2.188993542E0,2.694396973E-1,2.115850067E0,8.509803772E-1,2.296429154E0
2.198933542E0,-2.200424194E-1,3.047961731E0,2.136357422E0,3.728607302E0
2.208872542E0,-9.116043091E-2,3.387306061E0,1.339714050E0,3.643759914E0
2.218812542E0,7.080276489E-2,3.347039795E0,2.330653381E-1,3.355891517E0
2.228752542E0,4.819976807E-2,3.521127777E0,2.067201233E-1,3.527519986E0
2.238692542E0,1.085243225E-1,3.892655182E0,7.816744995E-1,3.971845530E0
2.248632542E0,2.975811768E-1,4.321513367E0,1.035546570E0,4.453806129E0
2.258571542E0,3.357518005E-1,4.377946014E0,4.466711426E-1,4.413463004E0
2.268511542E0,9.774673462E-2,4.261338501E0,-2.655477905E-1,4.270723109E0
2.278451542E0,-4.442761230E-1,4.165837097E0,-7.352709961E-1,4.253493086E0
2.288391542E0,-8.583151245E-1,3.441493378E0,-1.652713165E0,3.913060481E0
2.298331542E0,-9.725276184E-1,2.327809296E0,-2.161954193E0,3.322431642E0
2.308270542E0,-1.303938446E0,1.150208130E0,-1.075812836E0,2.044653386E0
2.318210542E0,-9.539662170E-1,-2.474354553E-1,1.910926208E0,2.150096468E0
2.328150542E0,1.743873596E0,-2.986439667E0,9.744586029E0,1.034006160E1
2.338090542E0,2.699935455E0,-2.963986359E0,4.894970856E0,6.327369617E0
2.348030542E0,1.828896790E0,-1.334175568E0,-4.058809662E0,4.647453473E0
2.357969542E0,4.226760406E0,-2.724334717E0,-3.219355316E0,5.970908795E0
2.367909542E0,1.070483917E1,-6.067332916E0,9.289682007E-1,1.233973632E1
2.377849542E0,2.593851059E1,-1.398032776E1,1.069930069E1,3.134853954E1
2.387789542E0,3.216511230E1,-1.564022598E1,-8.572673035E-1,3.577633332E1
2.397729542E0,4.278926926E1,-1.961700623E1,-4.894372101E0,4.732550449E1
2.407668542E0,5.438251099E1,-2.387130936E1,-4.184548187E0,5.953828478E1
2.417608542E0,5.365637100E1,-2.183150116E1,-1.971849518E0,5.796126968E1
2.427548542E0,3.965433838E1,-1.334699478E1,3.790567474E0,4.201163201E1
2.437488542E0,2.320444611E1,-6.746770020E0,7.070097656E0,2.517839363E1
2.447428542E0,1.342872482E1,-4.471052399E0,4.262985077E0,1.478154260E1
2.457368542E0,7.794591064E0,-3.654949493E0,8.779243469E-1,8.653615246E0
2.467307542E0,4.728666687E0,-3.125650177E0,5.924679565E-1,5.699210116E0
2.477247542E0,2.634970551E0,-3.012335815E0,1.232237549E0,4.187558506E0
2.487187542E0,1.126108246E0,-2.746189270E0,2.092648315E0,3.631645944E0
2.497127542E0,-6.511459351E-2,-2.048041077E0,2.906505890E0,3.556190188E0
2.507067542E0,-1.396595764E0,-1.269809418E0,3.221301270E0,3.733587759E0
2.517006542E0,-1.990710297E0,-5.023553467E-1,2.969674530E0,3.610298491E0
2.526946542E0,-1.573378143E0,3.197351074E-1,2.621947632E0,3.074468849E0
2.536886542E0,-2.157014465E-1,1.182989960E0,1.751807098E0,2.124810690E0
2.546826542E0,1.527274017E0,1.413510590E0,-8.472381592E-2,2.082728075E0
2.556766542E0,2.725232849E0,1.169817352E0,-1.748364258E0,3.442694337E0
2.566705542E0,2.484234009E0,1.266366577E0,-2.072440338E0,3.474206654E0
2.576645542E0,1.769170990E0,1.917063446E0,-1.308878174E0,2.918605887E0
2.586585542E0,7.125183105E-1,2.755170593E0,-1.960922241E-1,2.852560166E0
2.596525542E0,-2.167492676E-1,3.691922607E0,1.558409271E0,4.013217193E0
2.606465542E0,-1.085542603E0,4.772974548E0,3.961961060E0,6.297366451E0
2.616404542E0,-1.562301178E0,4.706662445E0,2.470312958E0,5.540388294E0
2.626344542E0,-1.518442383E0,3.292553101E0,-6.860234070E-1,3.690149225E0
2.636284542E0,-1.127605133E0,2.016157379E0,-1.748813324E0,2.897366383E0
2.646224542E0,-8.379574585E-1,8.271798706E-1,-1.325493622E0,1.772944608E0
2.656164542E0,1.142124939E-1,-7.951464844E-1,9.129515076E-1,1.216052170E0
2.666103542E0,1.570384369E0,-2.813249817E0,3.855382690E0,5.024386260E0
2.676043542E0,2.839894409E0,-4.725972290E0,5.096900940E0,7.508542704E0
2.685983542E0,3.920048218E0,-5.529800720E0,2.328557739E0,7.167123215E0
2.695923542E0,5.154980164E0,-4.788991241E0,-2.883753204E0,7.604228438E0
2.705863542E0,7.880362701E0,-5.481301575E0,-3.519032135E0,1.022391170E1
2.715802542E0,1.450498672E1,-9.022936707E0,-6.822811890E-1,1.709600931E1
2.725742542E0,2.512899399E1,-1.320404205E1,1.970502319E0,2.845515673E1
2.735682542E0,3.258424072E1,-1.495195724E1,-1.128802643E0,3.586876028E1
2.745622542E0,4.242672318E1,-1.744367569E1,-1.034049683E0,4.588439734E1
2.755562542E0,5.346387131E1,-1.914398987E1,2.359543304E0,5.683700668E1
2.765502542E0,5.122512680E1,-1.574440933E1,1.655557251E0,5.361567784E1
2.775441542E0,3.225148270E1,-9.193581848E0,1.827699280E0,3.358601745E1
2.785381542E0,1.869851624E1,-6.192023621E0,4.610412598E0,2.022947281E1
2.795321542E0,1.193872330E1,-5.836363220E0,4.673880615E0,1.408692335E1
2.805261542E0,7.910150757E0,-6.123166809E0,1.871707764E0,1.017678469E1
2.815201542E0,5.971681824E0,-6.097120972E0,3.153941345E-1,8.540219049E0
2.825140542E0,4.189188538E0,-5.827082520E0,6.574328613E-1,7.206691978E0
2.835080542E0,2.784958649E0,-5.558241577E0,1.023571472E0,6.300614467E0
2.845020542E0,1.871558075E0,-4.765041046E0,5.845344543E-1,5.152671766E0
2.854960542E0,6.535409546E-1,-3.636537781E0,2.820135498E-1,3.705543746E0
2.864900542E0,-1.594184875E-1,-2.447111206E0,3.053649902E-1,2.471237602E0
2.874839542E0,-2.646496582E-1,-1.337618408E0,-7.634124756E-2,1.365683138E0
2.884779542E0,1.743873596E-1,-4.646337891E-1,-1.035845947E0,1.148595810E0
2.894719542E0,5.676196289E-1,-4.535568237E-2,-1.851948853E0,1.937514834E0
2.904659542E0,7.020401001E-1,2.368075562E-1,-2.171384583E0,2.294307984E0
2.914599542E0,4.697232056E-1,7.041357422E-1,-2.362686768E0,2.509728231E0
2.924538542E0,1.380130005E-1,1.231189728E0,-2.554438019E0,2.839019078E0
2.934478542E0,-2.209405518E-1,1.785037994E0,-2.512225800E0,3.089733619E0
2.944418542E0,-3.129991150E-1,2.441872101E0,-2.307451630E0,3.374172614E0
2.954358958E0,-1.441502380E-1,2.988684998E0,-2.223176880E0,3.727671223E0
2.964298958E0,1.751358032E-2,3.280727692E0,-1.864672394E0,3.773656589E0
2.974237958E0,4.842430115E-1,4.056264954E0,1.122515717E0,4.236486540E0
2.984177958E0,7.334747314E-1,5.268593903E0,6.621330872E0,8.493414473E0
2.994117958E0,3.574566650E-1,5.156027985E0,9.571695557E0,1.087794814E1
3.004057958E0,-1.389111328E-1,2.922821960E0,9.187743988E0,9.642449072E0
3.013997958E0,6.526428223E-1,4.537065125E-1,8.462352448E0,8.499600061E0
3.023936958E0,2.799777832E0,-1.813927917E0,6.778504028E0,7.554945881E0
3.033876958E0,3.290607147E0,-2.581082611E0,6.233038330E-1,4.228308233E0
3.043816958E0,2.391726379E0,-1.444346466E0,-5.003644867E0,5.730877223E0
3.053756958E0,4.583318939E0,-2.188449097E0,-4.861440582E0,7.030627745E0
3.063696958E0,9.251810760E0,-4.041894836E0,-4.743934937E0,1.115517077E1
3.073636958E0,1.686482941E1,-7.076234894E0,-4.765190735E0,1.889980460E1
3.083575958E0,2.534080353E1,-9.991273041E0,-5.999673615E0,2.789225598E1
3.093515958E0,3.651925781E1,-1.422432037E1,-6.137237549E0,3.966929752E1
3.103455958E0,4.900943436E1,-1.839300156E1,-3.065325623E0,5.243685139E1
3.113395958E0,5.705894531E1,-2.015828064E1,5.223088531E0,6.074010349E1
3.123335958E0,4.542932922E1,-1.706885513E1,1.541180099E1,5.091849742E1
3.133274958E0,2.633084473E1,-1.285571640E1,7.654332733E0,3.028484172E1
3.143214958E0,1.844165039E1,-1.152782776E1,8.936416626E-2,2.174840840E1
3.153154958E0,1.227597198E1,-1.098760117E1,-1.414857788E0,1.653567931E1
3.163094958E0,6.860832825E0,-1.028421387E1,1.304237823E0,1.243129592E1
3.173034958E0,4.546944580E0,-8.704698486E0,2.172582092E0,1.005816055E1
3.182973958E0,4.627626801E0,-6.436315613E0,9.157955933E-1,7.979960529E0
3.192913958E0,4.715793457E0,-4.323609009E0,-2.502795410E-1,6.402729312E0
3.202853958E0,4.427343292E0,-2.922821960E0,-1.312770081E0,5.465127823E0
3.212793958E0,4.042792969E0,-1.971699829E0,-1.933080139E0,4.895771035E0
3.222733958E0,3.101699982E0,-1.207089844E0,-2.045346680E0,3.906539608E0
3.232672958E0,1.716181183E0,-2.427951050E-1,-1.796264648E0,2.496155845E0
3.242612958E0,6.737489319E-1,5.361849976E-1,-1.981728973E0,2.160713238E0
3.252552958E0,1.676513672E-1,9.491761780E-1,-2.543660431E0,2.720156390E0
3.262492958E0,-2.263293457E-1,1.329086151E0,-2.336790619E0,2.697829751E0
3.272432958E0,-4.085005188E-1,1.801354065E0,-1.792821808E0,2.574093855E0
3.282371958E0,-2.634521484E-1,2.262844391E0,-1.483415222E0,2.718527633E0
3.292311958E0,-2.841091919E-1,2.535726929E0,-1.396296387E0,2.908654790E0
3.302251958E0,-3.427871704E-1,2.676134949E0,-1.315614166E0,3.001673190E0
3.312191958E0,-3.742218018E-1,2.611768799E0,-1.170865173E0,2.886572963E0
3.322131958E0,-3.718267822E-1,2.429447937E0,-9.012757874E-1,2.617779685E0
3.332070958E0,-5.069956970E-1,2.020498352E0,-5.745053101E-1,2.160905962E0
3.342010958E0,-7.735913086E-1,1.450783081E0,-3.417393494E-1,1.679285814E0
3.351950958E0,-1.049018555E0,9.737251282E-1,-4.056564331E-2,1.431861070E0
3.361890958E0,-1.642534332E0,4.561015320E-1,1.462009735E0,2.245756021E0
3.371830958E0,-4.267924805E0,-2.249671783E0,1.029633865E1,1.137061102E1
3.381770958E0,-3.097359009E0,-4.104913788E0,1.254316635E1,1.355636279E1
3.391709958E0,1.945055237E0,-2.962938538E0,6.409671021E0,7.324351660E0
3.401649958E0,3.394940186E0,-1.156495056E0,-8.867559814E-1,3.694514291E0
3.411589958E0,3.178490295E0,-5.242098999E-1,-5.598956909E0,6.459559973E0
3.421529958E0,4.183949432E0,-8.048762512E-1,-5.555547180E0,7.001240112E0
3.431468958E0,6.330635376E0,-1.387165375E0,-5.353018341E0,8.405710999E0
3.441408958E0,1.157557846E1,-2.869532776E0,-6.337521057E0,1.350527335E1
3.451348958E0,2.376637756E1,-6.314319305E0,-5.115462341E0,2.511731048E1
3.461288958E0,4.116260193E1,-1.098176331E1,-4.588558044E0,4.284873146E1
3.471228958E0,5.502871719E1,-1.613509689E1,-5.899831238E0,5.764814894E1
3.481168958E0,7.058257278E1,-2.466585709E1,1.026355682E1,7.546949506E1
3.491107958E0,5.425632339E1,-2.802023163E1,3.190704895E1,6.889805354E1
3.501047958E0,2.889935349E1,-2.016980667E1,1.180310532E1,3.716593909E1
3.510987958E0,2.152134613E1,-1.366074234E1,-3.124901733E0,2.568169059E1
3.520927958E0,1.542602142E1,-9.519304504E0,-5.732928314E0,1.901172697E1
3.530867958E0,9.428593140E0,-5.737868042E0,-5.710175629E0,1.242689036E1
3.540806958E0,5.823939056E0,-2.890339508E0,-4.587360535E0,7.957148062E0
3.550746958E0,2.429897003E0,-1.021176453E0,-3.066223755E0,4.043380876E0
3.560686958E0,-7.424560547E-2,2.537223816E-1,-2.147883453E0,2.164091215E0
3.570626958E0,-1.043031006E0,9.189390564E-1,-1.779499512E0,2.258092376E0
3.580566958E0,-1.232686615E0,1.159788208E0,-1.716181183E0,2.410374002E0
3.590505958E0,-1.266067200E0,1.289867706E0,-1.814676361E0,2.561197991E0
3.600445958E0,-1.232387238E0,1.356329498E0,-2.013163605E0,2.722358483E0
3.610385958E0,-1.169817352E0,1.521885223E0,-1.934577026E0,2.725288158E0
3.620325958E0,-1.109343109E0,1.936822357E0,-1.589993591E0,2.740438395E0
3.630265958E0,-1.046473846E0,2.300565948E0,-1.136586456E0,2.771198291E0
3.640204958E0,-1.171613617E0,2.669997711E0,-3.953279114E-1,2.942422540E0
3.650144958E0,-1.609602814E0,3.630999298E0,1.580114136E0,4.274545333E0
3.660084958E0,-2.589764557E0,5.146447906E0,4.184847565E0,7.120797403E0
3.670024958E0,-2.833308105E0,5.517526245E0,4.037104797E0,7.400604423E0
3.679964958E0,-2.779120789E0,5.197342072E0,3.065475311E0,6.643268461E0
3.689903958E0,-3.052153015E0,4.704716492E0,2.221230927E0,6.031903690E0
3.699843958E0,-2.654130707E0,3.608695679E0,-1.796264648E-3,4.479631406E0
3.709783958E0,-1.686842194E0,2.465971985E0,-1.381626892E0,3.291708870E0
3.719723958E0,-1.364562378E0,1.461261292E0,-2.499801636E-1,2.014895811E0
3.729663958E0,-6.313870239E-1,-2.396516418E-1,3.933669891E0,3.991220527E0
3.739602958E0,1.638941803E0,-2.081571350E0,8.935668182E0,9.320152112E0
3.749542958E0,3.662284241E0,-2.642604675E0,7.084318085E0,8.401383699E0
3.759482958E0,1.891017609E0,-5.969586182E-1,-1.855840759E0,2.715962465E0
3.769422958E0,1.360071716E0,-1.178050232E-1,-3.569776611E0,3.821907659E0
3.779362958E0,2.372266846E0,-3.576063538E-1,-3.703448639E0,4.412602873E0
3.789301958E0,4.042044525E0,-5.319937134E-1,-4.828808441E0,6.319693997E0
3.799241958E0,1.019799316E1,-2.014211426E0,-5.672603760E0,1.184206678E1
3.809181958E0,2.422652069E1,-5.394332428E0,-5.618715820E0,2.544785049E1
3.819121958E0,4.334251877E1,-1.009096573E1,-4.234394531E0,4.470270260E1
3.829061958E0,6.383235992E1,-1.713352066E1,-3.611539764E0,6.619041413E1
3.839000958E0,7.772766449E1,-2.411066162E1,1.577419739E0,8.139657292E1
3.848940958E0,5.745621918E1,-2.166295166E1,2.217339020E1,6.528521907E1
3.858880958E0,2.661974396E1,-1.499177444E1,1.828417786E1,3.560442710E1
3.868820958E0,1.760114822E1,-1.177975388E1,6.277944946E-1,2.118860888E1
3.878760958E0,1.267249741E1,-8.843459930E0,-5.108576660E0,1.627564222E1
3.888700958E0,7.780370636E0,-6.373895416E0,-5.071453857E0,1.126411800E1
3.898639958E0,2.720293121E0,-4.358486481E0,-1.031205597E0,5.240208398E0
3.908579958E0,-7.560777283E-1,-2.953358459E0,1.510808258E0,3.402428738E0
3.918519958E0,-1.920506287E0,-1.959425354E0,6.291416931E-1,2.814873245E0
3.928459958E0,-2.079775085E0,-1.232087860E0,-6.068380737E-1,2.492339734E0
3.938399958E0,-2.123633881E0,-6.014492798E-1,-1.438059540E0,2.634307753E0
3.948338958E0,-2.151925049E0,-1.095721436E-1,-1.556014252E0,2.657812601E0
3.958278833E0,-2.203268280E0,3.474275208E-1,-1.147663422E0,2.508431447E0
3.968218833E0,-2.076631622E0,8.529263306E-1,-6.048921204E-1,2.325032623E0
3.978158833E0,-1.698667603E0,1.377136230E0,-1.761836243E-1,2.193858813E0
3.988098833E0,-1.232387238E0,1.730850677E0,2.739303589E-2,2.124940646E0
3.998037833E0,-9.330097961E-1,2.025887146E0,1.881587219E-1,2.238331904E0
4.007977833E0,-7.279362488E-1,2.211052094E0,3.177891541E-1,2.349389812E0
4.017917833E0,-6.107299805E-1,2.301314392E0,2.140548706E-1,2.390577028E0
4.027857833E0,-6.011499023E-1,2.325114899E0,-2.359094238E-1,2.413129452E0
4.037797833E0,-5.400769043E-1,2.307451630E0,-6.545887756E-1,2.458557006E0
4.047736833E0,-4.492158508E-1,2.295775909E0,-8.680448914E-1,2.495172106E0
4.057676833E0,-4.291575623E-1,2.333347778E0,-9.589059448E-1,2.558942883E0
4.067616833E0,-3.550616455E-1,2.315834198E0,-8.728349304E-1,2.500199516E0
4.077556833E0,-3.692820740E-1,2.060165863E0,-1.122665405E-1,2.096009640E0
4.087496833E0,6.715036011E-1,9.448352051E-1,5.914351044E0,6.026871404E0
4.097435833E0,3.047812042E0,-8.439450073E-1,1.161644348E1,1.203923422E1
4.107375833E0,2.240989838E0,-6.905140686E-1,5.486091614E-1,2.408280952E0
4.117315833E0,1.403780823E0,-1.613644409E-1,-2.800376587E0,3.136677878E0
4.127255833E0,3.513942719E0,-1.103355560E0,-1.916015625E-2,3.683144585E0
4.137195833E0,9.630672913E0,-3.300486603E0,4.530478821E0,1.114308355E1
4.147134833E0,1.659164749E1,-4.774621124E0,9.991722107E-1,1.729387517E1
4.157074833E0,2.653651703E1,-6.896758118E0,-4.741390228E0,2.782503890E1
4.167014833E0,4.496843765E1,-1.098819992E1,-4.136498108E0,4.647592429E1
4.176954833E0,6.344631271E1,-1.563184341E1,-1.315614166E0,6.535686625E1
4.186894833E0,7.107235428E1,-1.851290222E1,3.864813080E0,7.354552244E1
4.196833833E0,4.641667603E1,-1.414618286E1,9.708511047E0,4.948613432E1
4.206773833E0,2.257021500E1,-9.108109589E0,4.948559418E0,2.483667662E1
4.216713833E0,1.333891159E1,-6.871610413E0,-4.022135925E-1,1.501024210E1
4.226653833E0,8.538244629E0,-5.594017181E0,-1.748064880E0,1.035617595E1
4.236593833E0,4.954996033E0,-4.549189911E0,-4.396357727E-1,6.740949054E0
4.246532833E0,2.988385620E0,-3.566633148E0,7.976911926E-1,4.720977851E0
4.256472833E0,1.531016235E0,-2.623444519E0,1.398242340E0,3.343882997E0
4.266412833E0,2.487826538E-1,-1.965861969E0,1.384770355E0,2.417456313E0
4.276352833E0,-5.411247253E-1,-1.462309113E0,7.188052368E-1,1.716928909E0
4.286292833E0,-7.851173401E-1,-1.016835480E0,-1.254391479E-1,1.290774423E0
4.296232833E0,-4.293072510E-1,-4.483177185E-1,-8.461903381E-1,1.049443462E0
4.306171833E0,-1.749861145E-1,1.242416382E-1,-1.140328674E0,1.160347194E0
4.316111833E0,-1.178050232E-1,6.825805664E-1,-1.382375336E0,1.546206914E0
4.326051833E0,3.188369751E-2,1.035845947E0,-1.716031494E0,2.004683887E0
4.335991833E0,1.152603149E-2,1.368304596E0,-1.850302277E0,2.301305897E0
4.345931833E0,-2.682421875E-1,1.745520172E0,-1.867815857E0,2.570511742E0
4.355870833E0,-6.131250000E-1,2.129322052E0,-1.901196442E0,2.919671656E0
4.365810833E0,-7.340734863E-1,2.489473114E0,-1.765728149E0,3.139129842E0
4.375750833E0,-5.893244934E-1,2.856809235E0,-1.234482880E0,3.167429611E0
4.385690833E0,-4.724176025E-1,3.348536682E0,-2.694396973E-3,3.381698325E0
4.395630833E0,-4.764591980E-1,4.048032074E0,2.032772827E0,4.554749434E0
4.405569833E0,-8.575666809E-1,4.591402130E0,3.935615845E0,6.107820087E0
4.415509833E0,-1.349743195E0,3.710184631E0,4.919220428E0,6.307614947E0
4.425449833E0,-2.456391907E-1,1.258882141E0,6.294111328E0,6.423469488E0
4.435389833E0,2.081571350E0,-1.415905609E0,9.459578705E0,9.788838402E0
4.445329833E0,4.277804260E0,-2.580483856E0,6.736591187E0,8.386904497E0
4.455268833E0,3.459156647E0,-1.069825287E0,-1.893861694E0,4.086196638E0
4.465208833E0,3.337160339E0,-4.553530884E-1,-5.021008759E0,6.046032957E0
4.475148833E0,7.498955841E0,-1.843865662E0,-3.373235321E0,8.426914964E0
4.485088833E0,1.519729706E1,-3.575913849E0,-3.039429474E0,1.590544338E1
4.495028833E0,2.447470459E1,-5.434598694E0,-6.112987976E0,2.580532212E1
4.504967833E0,3.988934967E1,-8.594677277E0,-6.663842468E0,4.134532006E1
4.514907833E0,5.992204147E1,-1.262669266E1,-1.176403656E0,6.124923140E1
4.524847833E0,6.797888718E1,-1.515822830E1,8.206534424E0,7.013022312E1
4.534787833E0,4.314627686E1,-1.242685822E1,1.099358871E1,4.622647515E1
4.544727833E0,2.283980438E1,-9.171876984E0,3.287763062E0,2.483121780E1
4.554666833E0,1.707005264E1,-8.108937378E0,-1.261426849E0,1.894024182E1
4.564606833E0,1.136002670E1,-7.404502258E0,-2.190844116E0,1.373596223E1
4.574546833E0,6.977590027E0,-6.495143280E0,-4.453239441E-1,9.543163114E0
4.584486833E0,5.072351990E0,-4.998854828E0,3.390449524E-1,7.129674311E0
4.594426833E0,4.466861115E0,-3.394341431E0,-1.251397705E-1,5.611600656E0
4.604365833E0,3.436403961E0,-2.290087738E0,-5.554948425E-1,4.166767158E0
4.614305833E0,2.387684784E0,-1.257085876E0,-6.616241455E-1,2.778317843E0
4.624245833E0,1.315763855E0,-4.337979126E-1,-8.062234497E-1,1.602938365E0
4.634185833E0,2.859054565E-1,9.984237671E-2,-1.010847931E0,1.055236452E0
4.644125833E0,-2.944377136E-1,3.629951477E-1,-1.370400238E0,1.447914313E0
4.654064833E0,-4.020639038E-1,4.480183411E-1,-1.834435272E0,1.930680860E0
4.664004833E0,-6.430627441E-1,5.697152710E-1,-1.715283051E0,1.918411094E0
4.673944833E0,-8.792715454E-1,9.286688232E-1,-1.298849030E0,1.822787161E0
4.683884833E0,-9.265731812E-1,1.300345917E0,-1.049168243E0,1.910547400E0
4.693824833E0,-1.253493347E0,1.665586395E0,-7.524851990E-1,2.216225978E0
4.703764833E0,-1.977238312E0,2.116748199E0,-2.335144043E-2,2.896660072E0
4.713703833E0,-2.336341553E0,2.381996613E0,3.561094666E-1,3.355475177E0
4.723643833E0,-2.152374115E0,2.322570190E0,2.649490356E-1,3.177616184E0
4.733583833E0,-1.957778778E0,2.159259796E0,4.098477173E-1,2.943344316E0
4.743523833E0,-2.247276764E0,2.123184814E0,1.062490540E0,3.269105804E0
4.753463833E0,-2.893183594E0,1.936073914E0,2.190993805E0,4.113313428E0
4.763402833E0,-2.327509918E0,1.244811401E0,3.116668854E0,4.084174652E0
4.773342833E0,4.164340210E-1,4.730163574E-1,3.801644440E0,3.853525946E0
4.783282833E0,3.945345612E0,-2.374063110E-1,5.595813446E0,6.850930001E0
4.793222833E0,4.254452820E0,-4.101470947E-2,1.627415771E0,4.555275304E0
4.803162833E0,1.613943787E0,4.691244507E-1,-3.419938202E0,3.810625881E0
4.813101833E0,2.213896179E0,1.326242065E-1,-3.035836945E0,3.759685017E0
4.823041833E0,5.888454895E0,-1.337768097E0,-9.110055542E-1,6.106836796E0
4.832981833E0,1.442041260E1,-3.736978912E0,1.584006042E0,1.498073383E1
4.842921833E0,2.353720413E1,-5.132975922E0,-2.300266571E0,2.419997203E1
4.852861833E0,3.557397354E1,-7.499404907E0,-6.780749359E0,3.698279640E1
4.862800833E0,5.734110855E1,-1.245290405E1,-8.548722839E-1,5.868397018E1
4.872740833E0,7.290559204E1,-1.779050446E1,5.079986115E0,7.521657835E1
4.882680833E0,5.186848892E1,-1.695314575E1,1.199755096E1,5.587209073E1
4.892620833E0,2.504651550E1,-1.212074478E1,7.586224365E0,2.884079044E1
4.902560833E0,1.686453003E1,-9.294172668E0,1.103056183E0,1.928758024E1
4.912499833E0,1.219813385E1,-7.022646332E0,-1.316661987E0,1.413667676E1
4.922439833E0,7.971523132E0,-5.017116852E0,-2.270478516E0,9.688741675E0
4.932379833E0,4.974605255E0,-3.316802673E0,-1.489103394E0,6.161599333E0
4.942319833E0,3.988006897E0,-2.013313293E0,-1.305884399E0,4.654348880E0
4.952259833E0,3.410058746E0,-1.106199646E0,-1.707948303E0,3.971053477E0
4.962198708E0,2.990181885E0,-3.344046021E-1,-2.635120239E0,3.999609083E0
4.972138708E0,2.855312347E0,1.898052979E-1,-3.464246063E0,4.493310076E0
4.982078708E0,2.589914246E0,4.668791199E-1,-3.431763611E0,4.324654136E0
4.992018708E0,2.158960419E0,7.084767151E-1,-3.060086517E0,3.811453639E0
5.001958708E0,1.399589539E0,1.032852173E0,-2.652633820E0,3.172081441E0
5.011897708E0,7.473957825E-1,1.312321014E0,-2.392175446E0,2.829008707E0
5.021837708E0,1.068777466E-1,1.497485962E0,-1.804497528E0,2.347359876E0
5.031777708E0,-3.183879089E-1,1.763931885E0,-1.356030121E0,2.247586315E0
5.041717708E0,-4.676275635E-1,2.125879211E0,-1.142574005E0,2.458355816E0
5.051657708E0,-5.340893555E-1,2.355052643E0,-9.804611206E-1,2.606305508E0
5.061596708E0,-5.349874878E-1,2.455044708E0,-7.851173401E-1,2.632463745E0
5.071536708E0,-6.366261292E-1,2.405497742E0,-5.619314575E-1,2.550976122E0
5.081476708E0,-6.965016174E-1,2.307751007E0,-2.853067017E-1,2.427391425E0
5.091416708E0,-7.785310364E-1,2.205663300E0,1.323248291E-1,2.342769947E0
5.101356708E0,-9.714797974E-1,2.042352905E0,4.730163574E-1,2.310567649E0
5.111295708E0,-2.014959869E0,1.374441833E0,3.880081329E0,4.583032266E0
5.121235708E0,-5.326673126E0,-1.646426239E0,1.982267853E1,2.059181269E1
5.131175708E0,-2.800077209E0,-3.563639374E0,1.798285446E1,1.854516143E1
5.141115708E0,5.117857361E-1,-1.911075897E0,3.660637665E0,4.161058019E0
5.151055708E0,5.611830139E-1,8.078700256E-1,-5.595065002E0,5.680874293E0
5.160995708E0,1.758393402E0,3.047662354E-1,-4.807103577E0,5.127677312E0
5.170934708E0,2.868185577E0,-3.128494263E-2,-5.090763702E0,5.843230470E0
5.180874708E0,4.677323456E0,-2.951861572E-1,-5.342839508E0,7.107068565E0
5.190814708E0,9.760902100E0,-1.261875916E0,-2.977608032E0,1.028268886E1
5.200754708E0,1.479044312E1,-1.799557800E0,-7.204967194E0,1.655014103E1
5.210694708E0,2.503184601E1,-3.623365173E0,-9.747280426E0,2.710593229E1
5.220633708E0,5.263414673E1,-1.042836411E1,-1.372196503E0,5.367482746E1
5.230573708E0,7.842536362E1,-1.918350769E1,1.556148972E1,8.222350387E1
5.240513708E0,6.899018417E1,-2.062201630E1,7.986791382E0,7.244792547E1
5.250453708E0,3.308270416E1,-1.318967194E1,-7.830216980E-1,3.562367027E1
5.260393708E0,1.710986984E1,-9.117240601E0,-1.163680115E0,1.942230351E1
5.270332708E0,1.007719437E1,-7.864495697E0,1.919757843E0,1.292615987E1
5.280272708E0,7.050189056E0,-6.753805389E0,2.794838104E0,1.015530270E1
5.290212708E0,6.647376709E0,-5.535488892E0,1.719174957E0,8.819570109E0
5.300152708E0,5.517675934E0,-4.082460480E0,5.298980713E-1,6.884186462E0
5.310092708E0,4.161047058E0,-2.745740204E0,-9.415420532E-2,4.986207667E0
5.320031708E0,2.716850281E0,-1.765728149E0,-7.086264038E-1,3.316809118E0
5.329971708E0,1.600172424E0,-9.804611206E-1,-1.369352417E0,2.323140512E0
5.339911708E0,8.894503784E-1,-3.472778320E-1,-1.825453949E0,2.060098538E0
5.349851708E0,3.263214111E-1,2.568658447E-1,-1.834135895E0,1.880563800E0
5.359791708E0,8.427474976E-2,8.253836060E-1,-1.578317871E0,1.783100567E0
5.369730708E0,2.914439392E-1,1.091230774E0,-1.768871613E0,2.098721266E0
5.379670708E0,3.323089600E-1,1.214873657E0,-1.901645508E0,2.280921499E0
5.389610708E0,8.577163696E-2,1.365011444E0,-1.793121185E0,2.255193251E0
5.399550708E0,-2.377056885E-1,1.562301178E0,-1.711840210E0,2.329739442E0
5.409490708E0,-4.837939453E-1,1.863624573E0,-1.320553894E0,2.334741038E0
5.419429708E0,-8.026309204E-1,2.497556305E0,-1.459465027E-1,2.627413990E0
5.429369708E0,-1.622176666E0,3.620970154E0,2.177521820E0,4.525978708E0
5.439309708E0,-2.251318359E0,4.029171295E0,3.190016327E0,5.610602450E0
5.449249708E0,-2.594404907E0,3.856430511E0,3.664379883E0,5.918671560E0
5.459189708E0,-3.498524780E0,3.393443298E0,4.853956146E0,6.878664356E0
5.469128708E0,-4.185446320E0,2.272723846E0,5.203479309E0,7.054036539E0
5.479068708E0,-2.375559998E0,6.167175293E-1,4.226161652E0,4.887132914E0
5.489008708E0,1.570234680E-1,-9.997709656E-1,3.960464172E0,4.087722448E0
5.498948708E0,2.782114563E0,-2.092947693E0,3.814966736E0,5.164742267E0
5.508888708E0,3.861819305E0,-9.172924805E-1,-1.452579346E0,4.226708010E0
5.518827708E0,2.907703400E0,2.647993469E-1,-5.142705688E0,5.913736514E0
5.528767708E0,4.043990479E0,-1.471440125E-1,-4.826712799E0,6.298624199E0
5.538707708E0,7.281907196E0,-7.161108398E-1,-5.373825073E0,9.078379980E0
5.548647708E0,1.446397202E1,-2.199675751E0,-5.385650482E0,1.559007027E1
5.558587708E0,2.722179199E1,-4.706213379E0,-3.991898804E0,2.791253589E1
5.568526708E0,3.927068619E1,-7.000342712E0,-6.649771729E0,4.044021582E1
5.578466708E0,5.828549469E1,-1.176777878E1,1.712438965E-1,5.946182669E1
5.588406708E0,7.416282761E1,-1.762255371E1,3.053634933E1,8.211667327E1
5.598346708E0,4.711317764E1,-1.897828445E1,1.369202728E1,5.260511762E1
5.608286708E0,2.393148422E1,-1.499042725E1,-2.480940857E0,2.834755569E1
5.618225708E0,1.529923508E1,-1.354638016E1,-1.272054749E0,2.047410884E1
5.628165708E0,8.900641022E0,-1.257145752E1,1.827998657E0,1.551143236E1
5.638105708E0,7.066355438E0,-8.570427704E0,-1.162033539E0,1.116852417E1
5.648045708E0,6.819219360E0,-5.147346039E0,-3.220253448E0,9.130550706E0
5.657985708E0,6.047124939E0,-3.075803833E0,-3.632346497E0,7.695598113E0
5.667924708E0,4.266876984E0,-1.701960754E0,-2.855911102E0,5.409171640E0
5.677864708E0,2.451452179E0,-8.490344238E-1,-1.204395447E0,2.860252721E0
5.687804708E0,1.186283112E0,-1.860630798E-1,1.043330383E-1,1.205310115E0
5.697744708E0,4.659809875E-1,2.523751831E-1,6.256988525E-1,8.199576622E-1
5.707684708E0,2.553689575E-1,3.879931641E-1,3.568579102E-1,5.857470169E-1
5.717623708E0,7.978408813E-2,3.755690002E-1,-2.040257263E-1,4.347919867E-1
5.727563708E0,-3.662882996E-1,5.399272156E-1,-3.317102051E-1,7.319290790E-1
5.737503708E0,-6.041436768E-1,9.440867615E-1,-1.844165039E-1,1.135913220E0
5.747443708E0,-8.047265625E-1,1.474882965E0,3.004252625E-1,1.706786436E0
5.757383708E0,-1.156045990E0,2.055076447E0,1.173110504E0,2.633622939E0
5.767323708E0,-1.865271149E0,2.823428650E0,2.166594543E0,4.018098769E0
5.777262708E0,-1.749262390E0,3.243006134E0,1.746418304E0,4.077619966E0
5.787202708E0,-8.601113892E-1,3.009042664E0,3.311114502E-1,3.147024650E0
5.797142708E0,-4.676275635E-1,2.605930939E0,-7.623646545E-1,2.755131841E0
5.807082708E0,-6.096821594E-1,2.372416534E0,-1.003962250E0,2.647265145E0
5.817022708E0,-1.452729034E0,2.842738495E0,4.864883423E-1,3.229280834E0
5.826961708E0,-3.316503296E0,3.162174225E0,5.048102417E0,6.817761946E0
5.836901708E0,-3.446732483E0,1.493743744E0,7.837252350E0,8.691016027E0
5.846841708E0,-1.852248230E0,-6.054908752E-1,5.382507019E0,5.724406040E0
5.856781708E0,4.519102478E-1,-4.340972900E-1,-1.742077332E0,1.851349983E0
5.866721708E0,1.553469543E0,4.294569397E-1,-4.540657654E0,4.818222993E0
5.876660708E0,2.142195282E0,4.775070190E-2,-4.056564331E0,4.587700396E0
5.886600708E0,2.972518616E0,-2.868035889E-1,-4.008663940E0,4.998750825E0
5.896540708E0,8.315358124E0,-2.472558289E0,-3.067121887E-1,8.680598918E0
5.906480708E0,2.001442978E1,-5.775140533E0,2.442770233E0,2.097371627E1
5.916420708E0,3.416914490E1,-7.663463745E0,1.478475494E0,3.504918015E1
5.926359708E0,5.088189056E1,-1.024454636E1,1.034648438E0,5.191327397E1
5.936299708E0,6.622348755E1,-1.401475616E1,3.695664825E0,6.779101439E1
5.946239708E0,6.697612244E1,-1.563723221E1,6.315367126E0,6.906669146E1
5.956179792E0,3.985237656E1,-1.190534271E1,6.764283600E0,4.213911051E1
5.966119792E0,1.966221222E1,-9.686057739E0,6.113586731E0,2.275518065E1
5.976058792E0,1.296139664E1,-9.148076477E0,7.479945374E-1,1.588221023E1
5.985998792E0,1.043330383E1,-7.889044647E0,-3.311713257E0,1.349289810E1
5.995938792E0,7.889643402E0,-6.249653778E0,-3.846101990E0,1.077483855E1
6.005878792E0,5.928870850E0,-4.415817261E0,-3.108435974E0,8.019558955E0
6.015818792E0,4.611310730E0,-2.832409973E0,-2.281106415E0,5.872834016E0
6.025757792E0,3.214565277E0,-1.608704681E0,-1.390009460E0,3.854022181E0
6.035697792E0,2.121538239E0,-8.286767578E-1,-1.365310822E0,2.655504341E0
6.045637792E0,1.525328064E0,-3.607498169E-1,-1.871857452E0,2.441437375E0
6.055577792E0,7.541317749E-1,1.556762695E-2,-2.274969177E0,2.396756525E0
6.065517792E0,-2.475851440E-1,4.399351501E-1,-2.062111816E0,2.123004118E0
6.075456792E0,-1.067579956E0,8.190966797E-1,-1.604663086E0,2.094180019E0
6.085396792E0,-1.376387787E0,9.976753235E-1,-1.339264984E0,2.164123400E0
6.095336792E0,-1.288221130E0,1.303040314E0,-1.091380463E0,2.132730422E0
6.105276792E0,-1.134490814E0,1.525926819E0,-8.247848511E-1,2.072629276E0
6.115216792E0,-1.149309998E0,1.749262390E0,-4.102967834E-1,2.132879704E0
6.125155792E0,-1.605112152E0,2.302362213E0,4.637356567E-1,2.844698146E0
6.135095792E0,-2.071691895E0,2.976410522E0,9.104067993E-1,3.738952720E0
6.145035792E0,-2.201472015E0,3.190764771E0,1.154249725E0,4.044718938E0
6.154975792E0,-5.324577484E0,3.530258789E0,8.381969604E0,1.053903539E1
6.164915792E0,-6.906038818E0,3.271147614E0,9.917326813E0,1.251987021E1
6.174854792E0,-4.271816711E0,2.410886536E0,3.732637939E0,6.163876856E0
6.184794792E0,-4.694238281E-1,1.178050232E0,1.286424866E0,1.806391434E0
6.194734792E0,2.330653381E0,5.918692017E-1,1.035845947E0,2.618249637E0
6.204674792E0,2.681823120E0,7.771838379E-1,-1.840123444E0,3.343986282E0
6.214614792E0,1.585951996E0,8.491841125E-1,-3.502266998E0,3.937287330E0
6.224554792E0,1.831890564E0,6.132746887E-1,-3.094215546E0,3.647752558E0
6.234493792E0,2.697839813E0,3.980223083E-1,-3.013533325E0,4.064252024E0
6.244433792E0,6.533463593E0,-5.439688110E-1,-2.117197266E0,6.889453741E0
6.254373792E0,1.388512573E1,-2.321522369E0,-4.164938965E0,1.468103877E1
6.264313792E0,2.679143692E1,-5.286855927E0,-7.378007355E0,2.828722203E1
6.274252792E0,4.659001556E1,-1.071217392E1,-7.893984375E0,4.845302065E1
6.284192792E0,7.012407623E1,-1.897588943E1,-4.451143799E0,7.278243695E1
6.294132792E0,7.558157730E1,-2.604808273E1,1.182735489E1,8.081437845E1
6.304072792E0,4.435441452E1,-2.357507538E1,2.623040359E1,5.666685397E1
6.314012792E0,2.254865982E1,-1.708621902E1,9.884994049E0,2.996821729E1
6.323952792E0,1.682501221E1,-1.281155823E1,-1.435814209E0,2.119619358E1
6.333891792E0,1.202479431E1,-9.307045898E0,-6.586902466E0,1.657118178E1
6.343831792E0,8.978479156E0,-6.159541168E0,-8.184979248E0,1.362156087E1
6.353771792E0,6.074218597E0,-4.335733795E0,-6.573131104E0,9.944886707E0
6.363711792E0,2.339185638E0,-2.658022614E0,-4.004772034E0,5.345565705E0
6.373651792E0,-8.208929443E-1,-9.512718201E-1,-1.126707001E0,1.687676500E0
6.383590792E0,-2.007325745E0,3.867956543E-1,8.008346558E-1,2.195518998E0
6.393530792E0,-1.801952820E0,7.933502197E-1,2.046244812E-1,1.979472080E0
6.403470792E0,-1.309925995E0,7.123686218E-1,-1.086440735E0,1.844919683E0
6.413410792E0,-1.230141907E0,8.021818542E-1,-1.067879333E0,1.815794897E0
6.423350792E0,-1.548080750E0,1.222058716E0,-3.620970154E-1,2.005267005E0
6.433289792E0,-2.154170380E0,1.849404144E0,4.966671753E-1,2.882260224E0
6.443229792E0,-2.515219574E0,2.265389099E0,1.218466187E0,3.597634935E0
6.453169792E0,-2.244282990E0,2.156116333E0,8.845106506E-1,3.235429318E0
6.463109792E0,-1.791175232E0,1.986219635E0,2.704875183E-1,2.688222581E0
6.473049792E0,-1.779948578E0,1.871558075E0,-3.712280273E-2,2.583084333E0
6.482988792E0,-1.866318970E0,1.740730133E0,-2.965333557E-1,2.569283932E0
6.492928792E0,-1.815574493E0,1.476679230E0,-4.008663940E-1,2.374360157E0
6.502868792E0,-1.756746826E0,1.127006378E0,-2.125579834E-1,2.097971326E0
6.512808792E0,-2.397264862E0,7.360194397E-1,1.517693939E0,2.931211068E0
6.522748792E0,-4.821773071E0,1.571731567E-2,6.926396484E0,8.439473375E0
6.532687792E0,-4.024530945E0,-8.684939575E-1,5.061873779E0,6.524852277E0
6.542627792E0,-2.089055786E0,-1.368903351E0,2.327509918E0,3.413993685E0
6.552567792E0,-3.418890381E-1,-9.716294861E-1,-1.742376709E-1,1.044658192E0
6.562507792E0,9.674382019E-1,-1.472937012E-1,-2.530038757E0,2.712697591E0
6.572447792E0,1.817520447E0,-2.733316040E-1,-2.927612000E0,3.456732960E0
6.582386792E0,2.684218140E0,-5.995033264E-1,-3.616329803E0,4.543376774E0
6.592326792E0,4.250411224E0,-1.100062408E0,-4.446802826E0,6.249014982E0
6.602266792E0,8.772956543E0,-1.915117493E0,-5.081932068E0,1.031787163E1
6.612206792E0,2.346670074E1,-4.791236572E0,-4.318070526E0,2.433696211E1
6.622146792E0,4.850393555E1,-9.685608673E0,-3.591182098E0,4.959172681E1
6.632085792E0,6.851432373E1,-1.698907104E1,-7.224277039E0,7.095795424E1
6.642025792E0,7.856202942E1,-2.615002075E1,1.039094193E1,8.344931231E1
6.651965792E0,5.796216705E1,-2.317750214E1,3.099619308E1,6.969629402E1
6.661905792E0,2.566592743E1,-1.480346603E1,1.181014069E1,3.189611043E1
6.671845792E0,1.630753830E1,-1.039827667E1,-2.261347504E0,1.947238187E1
6.681784792E0,1.195518906E1,-7.094047852E0,-6.822961578E0,1.548563415E1
6.691724792E0,8.578959961E0,-4.533023529E0,-7.639363861E0,1.234936179E1
6.701664792E0,4.590503998E0,-3.034639435E0,-4.833299103E0,7.324107022E0
6.711604792E0,7.455995178E-1,-1.592538300E0,-1.849404144E0,2.551938982E0
6.721544792E0,-1.843865662E0,-3.712280273E-1,-9.864486694E-1,2.123848348E0
6.731483792E0,-2.539020081E0,5.406756592E-1,-1.175056458E0,2.849510628E0
6.741423792E0,-2.423759766E0,9.854008484E-1,-1.663041687E0,3.100215135E0
6.751363792E0,-2.466720428E0,1.221609650E0,-1.947150879E0,3.371711191E0
6.761303792E0,-2.325863342E0,1.646575928E0,-1.964365082E0,3.461153384E0
6.771243792E0,-2.022743683E0,2.175276489E0,-1.560055847E0,3.355159319E0
6.781183792E0,-2.370320892E0,2.851869507E0,-5.863307190E-1,3.754379380E0
6.791122792E0,-3.314407654E0,3.723506927E0,5.611830139E-1,5.016445785E0
6.801062792E0,-3.367397461E0,4.394112396E0,7.036866760E-1,5.580570253E0
6.811002792E0,-3.580254822E0,5.122946777E0,2.731370087E0,6.820791070E0
6.820942792E0,-4.800517273E0,6.024372253E0,7.004983063E0,1.041190736E1
6.830882792E0,-3.665427704E0,5.369334412E0,2.404898987E0,6.931713454E0
6.840821792E0,-2.477647705E0,4.230053558E0,-1.645079041E0,5.170916389E0
6.850761792E0,-2.367626495E0,3.503165131E0,-2.386038208E0,4.854997372E0
6.860701792E0,-2.671195221E0,2.904110870E0,-2.195334778E0,4.515378018E0
6.870641792E0,-2.862048340E0,2.000889130E0,-1.088386688E0,3.657794908E0
6.880581792E0,-3.067271576E0,-1.014889526E-1,4.046235809E0,5.078432746E0
6.890520792E0,-1.090033264E0,-1.482068024E0,6.158493347E0,6.427420824E0
6.900460792E0,1.926044769E0,-1.459165649E0,3.610791321E0,4.344724020E0
6.910400792E0,1.960473175E0,-2.803669739E-1,-2.070195007E0,2.864920257E0
6.920340792E0,2.072140961E0,-3.143463135E-2,-3.891757050E0,4.409141552E0
6.930280792E0,3.845652924E0,-3.251239014E-1,-3.494932251E0,5.206659524E0
6.940219792E0,1.137918686E1,-1.373244324E0,9.520202637E-1,1.150121890E1
6.950159792E0,2.384077286E1,-3.552113342E0,-8.141569519E-1,2.411768669E1
6.960100417E0,3.827645370E1,-5.623805237E0,-6.978787537E0,3.931179936E1
6.970040417E0,6.468917816E1,-1.123788071E1,-4.232149200E0,6.579430690E1
6.979980417E0,7.911093796E1,-2.279100586E1,2.665357361E0,8.237156416E1
6.989919417E0,6.765511047E1,-2.634057449E1,1.148127457E1,7.350414617E1
6.999859417E0,2.867676636E1,-1.789813065E1,1.032238449E1,3.534475394E1
7.009799417E0,1.294223648E1,-1.204949295E1,1.522933044E0,1.774855179E1
7.019739417E0,8.394393768E0,-7.996521149E0,-2.839445343E0,1.193619064E1
7.029679417E0,5.957461395E0,-4.876110077E0,-3.354075165E0,8.397476762E0
7.039618417E0,3.349734192E0,-3.484004974E0,-2.491568756E0,5.437547672E0
7.049558417E0,6.963519287E-1,-2.222129059E0,-1.588945770E0,2.819133240E0
7.059498417E0,-1.050216064E0,-1.097667389E0,-9.526190186E-1,1.793128683E0
7.069438417E0,-2.017803955E0,-4.616400146E-1,-5.825885010E-1,2.150361287E0
7.079378417E0,-2.397863617E0,-3.981719971E-2,-6.544390869E-1,2.485885326E0
7.089317417E0,-2.453098755E0,2.824626160E-1,-1.059197388E0,2.686889975E0
7.099257417E0,-2.512974243E0,5.337899780E-1,-1.415755920E0,2.933314868E0
7.109197417E0,-2.849773865E0,9.053173828E-1,-1.571731567E0,3.378039485E0
7.119137417E0,-3.375480652E0,1.621128845E0,-1.578766937E0,4.063795443E0
7.129077417E0,-3.122057648E0,2.158511353E0,-1.687740326E0,4.153899689E0
7.139016417E0,-2.645598450E0,2.589315491E0,-1.732796631E0,4.087337768E0
7.148956417E0,-2.448308716E0,2.722538452E0,-1.478625183E0,3.948767355E0
7.158896417E0,-2.344275055E0,2.700085144E0,-1.157393188E0,3.758409811E0
7.168836417E0,-2.282004547E0,2.873274994E0,-8.508306885E-1,3.766585563E0
7.178776417E0,-2.167492676E0,2.826422424E0,-5.912704468E-1,3.610580142E0
7.188715417E0,-2.305505676E0,2.605332184E0,-1.871109009E-1,3.483980870E0
7.198655417E0,-3.652554474E0,2.251018982E0,3.139870605E0,5.316674530E0
7.208595417E0,-5.161865845E0,1.015937347E0,7.134912872E0,8.864759974E0
7.218535417E0,-3.211721191E0,-2.965333557E-1,5.670508118E0,6.523629922E0
7.228475417E0,-7.535330200E-1,-6.746470642E-1,4.458628235E0,4.571906212E0
7.238414417E0,-2.375559998E-1,-6.885681152E-3,7.185058594E-1,7.567898887E-1
7.248354417E0,4.875361633E-1,4.450245667E-1,-1.866468658E0,1.979758477E0
7.258294417E0,1.405277710E0,3.950285339E-1,-2.703078918E0,3.072049580E0
7.268234417E0,2.598296814E0,1.236428833E-1,-4.140689392E0,4.889963450E0
7.278174417E0,4.803511047E0,-3.025209045E-1,-5.657185822E0,7.427582965E0
7.288113417E0,1.011296997E1,-9.252259827E-1,-3.828139343E0,1.085278101E1
7.298053417E0,2.371907593E1,-2.696342926E0,9.282197571E-1,2.388988112E1
7.307993417E0,3.737921951E1,-5.017565918E0,-5.519322510E0,3.811620312E1
7.317933417E0,5.888709366E1,-9.962083740E0,-3.007246399E0,5.979946858E1
7.327873417E0,7.828615311E1,-2.232592300E1,4.141886902E0,8.151272191E1
7.337813417E0,7.264977402E1,-2.638084076E1,1.113294891E1,7.808892992E1
7.347752417E0,3.483466095E1,-1.662427963E1,1.123069565E1,4.019886567E1
7.357692417E0,1.319910233E1,-1.020398071E1,2.817890167E0,1.691975265E1
7.367632417E0,8.293653259E0,-6.115382996E0,-3.106939087E0,1.076269781E1
7.377572417E0,5.314398651E0,-2.946173401E0,-5.133125610E0,7.954354107E0
7.387512417E0,3.080743561E0,-1.757046204E0,-4.267026672E0,5.548487080E0
7.397451417E0,3.237767029E-1,-1.200503540E0,-2.951711884E0,3.202911667E0
7.407391417E0,-1.789378967E0,-6.216572571E-1,-2.172731781E0,2.882550646E0
7.417331417E0,-2.863844604E0,-2.204914856E-1,-1.643133087E0,3.309094854E0
7.427271417E0,-3.197800140E0,1.010398865E-1,-1.254990234E0,3.436733229E0
7.437211417E0,-2.976560211E0,5.017565918E-1,-1.184486847E0,3.242634648E0
7.447150417E0,-2.466421051E0,7.988887024E-1,-1.285227356E0,2.893659502E0
7.457090417E0,-2.041454773E0,1.091530151E0,-1.155746613E0,2.587416838E0
7.467030417E0,-1.858235779E0,1.475781097E0,-7.270381165E-1,2.481844975E0
7.476970417E0,-1.889221344E0,1.961820374E0,-1.592687988E-1,2.728234413E0
7.486910417E0,-2.046993256E0,2.345173187E0,5.754034424E-1,3.165613335E0
7.496849417E0,-2.531685333E0,3.017574921E0,2.558329926E0,4.696833086E0
7.506789417E0,-2.584076385E0,3.429817657E0,3.695964203E0,5.665796618E0
7.516729417E0,-2.174078979E0,3.127895508E0,1.774260406E0,4.202183921E0
7.526669417E0,-1.523531799E0,2.631527710E0,-4.378395081E-1,3.072098740E0
7.536609417E0,-1.146166534E0,2.112257538E0,-1.039887543E0,2.618529307E0
7.546548417E0,-1.326391754E0,1.775308228E0,-9.773176575E-1,2.422020684E0
7.556488417E0,-1.487905884E0,1.559008026E0,-9.229806519E-1,2.344411062E0
7.566428417E0,-1.722917175E0,1.165775757E0,-8.584648132E-1,2.250430746E0
7.576368417E0,-1.607656860E0,5.345384216E-1,-5.728587341E-1,1.788423617E0
7.586308417E0,-2.285746765E-1,1.510359192E-1,-2.264790344E-1,3.554588368E-1
7.596247417E0,1.084494781E0,1.691482544E-2,-5.930667114E-1,1.236180879E0
7.606187417E0,1.929487610E0,-1.270857239E-1,-1.694775696E0,2.571252200E0
7.616127417E0,3.900438995E0,-6.128256226E-1,-2.329904938E0,4.584477791E0
7.626067417E0,1.215427505E1,-2.718197479E0,3.877386932E0,1.304412240E1
7.636007417E0,2.132151169E1,-5.036277008E0,6.951544189E-1,2.191926519E1
7.645946417E0,3.141202835E1,-6.185736694E0,-5.631439362E0,3.250679887E1
7.655886417E0,5.271677490E1,-8.631051636E0,-8.680448914E-1,5.342571394E1
7.665826417E0,7.349042587E1,-1.755489441E1,5.629792786E-1,7.556013472E1
7.675766417E0,7.761943954E1,-2.452724533E1,3.334615631E0,8.147074825E1
7.685706417E0,4.877232742E1,-1.798644699E1,7.232809296E0,5.248395686E1
7.695645417E0,1.978705261E1,-1.051533325E1,2.271376648E0,2.252240743E1
7.705585417E0,1.107217529E1,-6.531667328E0,-2.748584290E0,1.314573921E1
7.715525417E0,6.154900818E0,-3.605402527E0,-3.481011200E0,7.937201675E0
7.725465417E0,2.679278412E0,-2.048639832E0,-1.975142670E0,3.908535088E0
7.735405417E0,3.992198181E-1,-1.056952057E0,-6.903643799E-1,1.324057057E0
7.745344417E0,-1.537901917E0,-7.554789734E-1,-4.420307922E-1,1.769542880E0
7.755284417E0,-3.005300446E0,-5.402265930E-1,-2.646496582E-1,3.064916798E0
7.765224417E0,-3.536246338E0,-1.152603149E-2,1.136137390E-1,3.538089752E0
7.775164417E0,-3.314108276E0,5.656736755E-1,1.242416382E-2,3.362061084E0
7.785104417E0,-2.765948181E0,9.879455566E-1,-7.038363647E-1,3.020246909E0
7.795044417E0,-2.255809021E0,1.365011444E0,-9.978250122E-1,2.819146207E0
7.804983417E0,-2.543061676E0,2.010768585E0,-7.295828247E-1,3.323047410E0
7.814923417E0,-2.747985535E0,2.819686432E0,-3.963757324E-1,3.957166890E0
7.824863417E0,-2.084116058E0,3.258424072E0,-6.122268677E-1,3.916080811E0
7.834803417E0,-1.956431580E0,4.107608185E0,1.126257935E0,4.687059468E0
7.844742417E0,-1.969304810E0,4.583768005E0,2.212099915E0,5.457332370E0
7.854682417E0,-1.664688263E0,3.881727905E0,-5.906716919E-1,4.264726438E0
7.864622417E0,-1.430874481E0,3.360661469E0,-1.422641602E0,3.919866887E0
7.874562417E0,-1.759141846E0,3.070564728E0,-1.196012878E0,3.735424285E0
7.884502417E0,-2.550396423E0,3.054248657E0,2.200424194E-2,3.979125653E0
7.894442417E0,-4.802463226E0,2.531685333E0,4.327949982E0,6.942926956E0
7.904381417E0,-4.149371338E0,1.405128021E0,2.891986084E0,5.249309551E0
7.914321417E0,-1.982926483E0,6.517446899E-1,4.776567078E-1,2.141243683E0
7.924261417E0,-2.197430420E-1,4.206253052E-1,-3.821553040E-1,6.093072527E-1
7.934201417E0,7.122189331E-1,6.882687378E-1,-1.493294678E0,1.791898060E0
7.944141417E0,1.156644745E0,7.569758606E-1,-2.123633881E0,2.533902204E0
7.954080417E0,2.157463531E0,6.903643799E-1,-2.938389587E0,3.710173208E0
7.964020417E0,4.574187927E0,7.625143433E-1,-2.580633545E0,5.307004128E0
7.973960417E0,1.455887466E1,2.724334717E-1,4.365222473E0,1.520165184E1
7.983900417E0,2.788191925E1,-2.902464294E0,-4.202959900E0,2.834590962E1
7.993840417E0,5.653623230E1,-9.749525757E0,-4.281396790E0,5.753024573E1
8.003779417E0,7.864720230E1,-2.322660004E1,3.990850983E0,8.210227933E1
8.013719417E0,7.622868164E1,-3.022514648E1,9.694290619E0,8.257330474E1
8.023659417E0,4.362318512E1,-1.974888199E1,1.153082153E1,4.925404009E1
8.033599417E0,1.568064194E1,-1.165057251E1,2.851570129E0,1.974208255E1
8.043539417E0,9.228309631E0,-6.928192749E0,-3.959865417E0,1.220008555E1
8.053478417E0,4.606071625E0,-3.265908508E0,-6.755751343E0,8.804670942E0
8.063418417E0,2.211052094E0,-1.477427673E0,-5.597310333E0,6.196888482E0
8.073358417E0,3.203338623E-1,-6.960525513E-1,-2.963237915E0,3.060699573E0
8.083298417E0,-1.433269501E0,-7.304809570E-2,-1.461860046E0,2.048568349E0
8.093238417E0,-2.372566223E0,3.791615295E-1,-1.448837128E0,2.805701868E0
8.103177417E0,-2.594853973E0,6.011499023E-1,-1.559008026E0,3.086284882E0
8.113117417E0,-2.349514160E0,1.037492523E0,-1.292412415E0,2.875228230E0
8.123057417E0,-1.628762970E0,1.660347290E0,-1.122964783E0,2.582764379E0
8.132997417E0,-1.342857513E0,2.153571625E0,-1.033750305E0,2.740397186E0
8.142937417E0,-1.320254517E0,2.807711334E0,-9.662406921E-1,3.249605515E0
8.152876417E0,-1.862127686E0,3.911515961E0,-3.481759644E-1,4.346113566E0
8.162816417E0,-2.912792816E0,5.246290283E0,1.051114197E0,6.092024686E0
8.172756417E0,-2.488724670E0,5.871989136E0,1.207688599E0,6.490956682E0
8.182696417E0,-2.902314606E0,6.728657684E0,4.423301697E0,8.559431185E0
8.192636417E0,-3.277434540E0,6.592590637E0,2.912643127E0,7.917532347E0
8.202575417E0,-2.836301880E0,6.051765289E0,-1.950593719E0,6.962276016E0
8.212515417E0,-3.722010040E0,5.119803314E0,-2.421963501E0,6.777289422E0
8.222455417E0,-5.666017456E0,3.774401093E0,7.484436035E-1,6.849089374E0
8.232395417E0,-6.755152588E0,1.072519684E0,6.602170715E0,9.506368555E0
8.242335417E0,-3.916904755E0,-6.659651184E-1,6.665189667E0,7.759536435E0
8.252274417E0,-1.403780823E0,-3.709286499E-1,1.771116943E0,2.290206080E0
8.262214417E0,-2.802172852E-1,5.469625854E-1,-2.657124481E0,2.727269753E0
8.272154417E0,8.240364075E-1,4.367916870E-1,-3.266806641E0,3.397329629E0
8.282094417E0,1.425036621E0,2.323168945E-1,-3.565585327E0,3.846829764E0
8.292034417E0,2.102827148E0,2.107617188E-1,-3.955225067E0,4.484429490E0
8.301973417E0,3.091670837E0,3.156935120E-1,-4.412823486E0,5.397323604E0
8.311913417E0,5.946085052E0,1.119521942E0,-2.967279510E0,6.738991358E0
8.321853417E0,1.523546768E1,4.800517273E-1,1.451082458E0,1.531194192E1
8.331793417E0,2.998384827E1,-2.845283203E0,-4.892725525E0,3.051336685E1
8.341733417E0,6.752937195E1,-1.211191315E1,7.951015778E0,6.906615067E1
8.351672417E0,7.933921326E1,-2.579316284E1,1.281440231E1,8.440501713E1
8.361612417E0,7.158399033E1,-2.952325607E1,5.180876312E0,7.760626134E1
8.371552417E0,3.479484375E1,-1.973211685E1,8.577163696E-1,4.000966464E1
8.381492417E0,1.270258484E1,-1.272458908E1,-2.487527161E0,1.815099502E1
8.391432417E0,5.854774933E0,-8.423583069E0,-2.139351196E0,1.047912042E1
8.401371417E0,3.938759308E0,-4.743186493E0,-1.878294067E0,6.445124638E0
8.411311417E0,4.210594025E0,-2.693199463E0,-2.404599609E0,5.546577744E0
8.421251417E0,3.733685760E0,-1.356030121E0,-3.083737335E0,5.028783451E0
8.431191417E0,2.696492615E0,-4.297563171E-1,-3.350332947E0,4.322093679E0
8.441131417E0,1.128802643E0,1.008901978E-1,-3.200195160E0,3.394940839E0
8.451070417E0,-3.288661194E-1,6.409671021E-1,-2.491868134E0,2.593915678E0
8.461010417E0,-1.916614380E0,1.378184052E0,-1.273551636E0,2.682300455E0
8.470950417E0,-2.823129272E0,2.415377197E0,2.125579834E-2,3.715448520E0
8.480890417E0,-2.226769409E0,2.625989227E0,-6.583309937E-1,3.505384590E0
8.490830417E0,-1.622176666E0,2.730322266E0,-1.070573730E0,3.351454151E0
8.500769417E0,-1.665586395E0,3.262166290E0,-2.368075562E-1,3.670420244E0
8.510709417E0,-2.564317474E0,4.457730103E0,2.099983063E0,5.554908698E0
8.520649417E0,-3.755240936E0,5.503156128E0,3.964056702E0,7.752438803E0
8.530589417E0,-3.675756226E0,5.378016357E0,2.751877441E0,7.071567947E0
8.540529417E0,-3.101999359E0,4.552483063E0,1.023272095E0,5.603087349E0
8.550469417E0,-2.675386505E0,3.897744598E0,-9.744735718E-2,4.728594072E0
8.560408417E0,-2.630330200E0,3.147654419E0,-9.168434143E-1,4.203209149E0
8.570348417E0,-3.190764771E0,2.121987305E0,-1.317260742E-1,3.834209397E0
8.580288417E0,-3.734883270E0,5.698649597E-1,2.529889069E0,4.546915198E0
8.590228417E0,-2.559228058E0,-1.544039154E0,6.366860046E0,7.033534816E0
8.600168417E0,-3.498225403E-1,-1.827399902E0,4.644691315E0,5.003491143E0
8.610107417E0,4.496649170E-1,1.832189941E-1,-2.662064209E0,2.705984773E0
8.620047417E0,1.115180969E0,2.888992310E-1,-3.460054779E0,3.646789058E0
8.629987417E0,1.662891998E0,1.137634277E-2,-3.082689514E0,3.502615289E0
8.639927417E0,2.029928741E0,-1.646575928E-3,-3.110980682E0,3.714675519E0
8.649867417E0,2.917732544E0,7.589218140E-2,-2.838996277E0,4.071710044E0
8.659806417E0,8.705895996E0,-4.162843323E-1,2.189646606E0,8.986682925E0
8.669746417E0,1.488639359E1,-1.289867706E0,-1.775607605E0,1.504730059E1
8.679686417E0,2.743973877E1,-2.864742737E0,-4.876708832E0,2.801657195E1
8.689626417E0,5.141777618E1,-8.568930817E0,-5.903274078E0,5.246010797E1
8.699566417E0,7.642567200E1,-1.735026993E1,-4.869224396E0,7.852149103E1
8.709505417E0,7.632448242E1,-1.984677841E1,3.035238190E0,7.892106120E1
8.719445417E0,4.358456543E1,-1.232312393E1,1.088476501E1,4.658274183E1
8.729385417E0,1.423240356E1,-8.415948944E0,1.551299057E1,2.267250282E1
8.739325417E0,8.548423462E0,-7.735164642E0,9.240434418E0,1.477477391E1
8.749265417E0,7.958200836E0,-6.851402435E0,2.534230042E0,1.080263846E1
8.759204417E0,6.084247742E0,-5.360951843E0,-7.174580383E-1,8.140799794E0
8.769144417E0,3.863166504E0,-3.619173889E0,-6.843768311E-1,5.337681774E0
8.779084417E0,1.289718018E0,-2.291135559E0,6.128256226E-1,2.699672195E0
8.789024417E0,-1.322050781E0,-1.278191986E0,1.249751129E0,2.223391757E0
8.798964417E0,-2.712509308E0,-3.671864319E-1,8.437953186E-1,2.864353882E0
8.808903417E0,-2.837499390E0,4.875361633E-1,2.010319519E-1,2.886088727E0
8.818843417E0,-1.713037720E0,7.015910339E-1,-1.284478912E0,2.253134325E0
8.828783417E0,-1.390608215E-1,7.342231750E-1,-2.841840363E0,2.938448269E0
8.838723417E0,1.278341675E-1,1.398841095E0,-2.542313232E0,2.904557549E0
8.848663417E0,-4.296066284E-1,1.802850952E0,-2.025887146E0,2.745733443E0
8.858602417E0,-5.649252319E-1,2.161056061E0,-1.671723633E0,2.789975577E0
8.868542417E0,-4.562512207E-1,2.689756622E0,-1.073268127E0,2.931699223E0
8.878482417E0,-3.345542908E-1,3.246448975E0,-1.670526123E-1,3.267914334E0
8.888422417E0,-4.285588074E-1,3.776347046E0,2.070195007E-1,3.806220794E0
8.898362417E0,-5.550457764E-1,4.066743164E0,-3.359014893E-1,4.118167746E0
8.908301417E0,-6.020480347E-1,3.848946075E0,-9.861492920E-1,4.018623913E0
8.918241417E0,-1.123713226E0,3.685336304E0,1.137634277E-2,3.852864455E0
8.928181417E0,-2.737357635E0,3.429368591E0,4.932842102E0,6.602016886E0
8.938121417E0,-3.792663116E0,1.409768372E0,1.163201111E1,1.231565763E1
8.948061417E0,-2.103874969E0,-1.414259033E0,9.593999176E0,9.923267541E0
8.957999792E0,1.021775208E0,-2.144440613E0,3.250939636E0,4.026320732E0
8.967939792E0,2.245031433E0,-5.677693176E-1,-2.073937225E0,3.108656261E0
8.977879792E0,2.107317810E0,1.761836243E-1,-3.298840027E0,3.918440320E0
8.987819792E0,3.428769836E0,-7.499404907E-2,-2.385289764E0,4.177522467E0
8.997759792E0,8.368347931E0,-1.260379028E0,-1.393601990E-1,8.463877578E0
9.007698792E0,1.433733536E1,-2.026036835E0,-2.690056000E0,1.472753923E1
9.017638792E0,2.502211624E1,-3.745511169E0,-4.956193542E0,2.578175730E1
9.027578792E0,4.594276154E1,-6.974147186E0,-3.029699707E0,4.656774793E1
9.037518792E0,6.907251297E1,-1.186522614E1,-8.113128662E-2,7.008425088E1
9.047458792E0,7.466428482E1,-1.489896744E1,8.067323914E0,7.656249979E1
9.057397792E0,4.076278336E1,-1.247116608E1,1.321407120E1,4.462898350E1
9.067337792E0,2.022429337E1,-1.016326538E1,3.019371185E0,2.283485511E1
9.077277792E0,1.558079956E1,-8.950187988E0,-2.321821747E0,1.811789271E1
9.087217792E0,1.180939224E1,-7.788154449E0,-2.415676575E0,1.435104833E1
9.097157792E0,7.861801300E0,-6.654561768E0,-6.318360901E-1,1.031941514E1
9.107096792E0,6.005212097E0,-4.951702881E0,-1.112187195E-1,7.784234282E0
9.117036792E0,5.500910797E0,-2.985541534E0,-4.505630493E-1,6.275068519E0
9.126976792E0,4.822970581E0,-1.541344757E0,-6.985972595E-1,5.111245153E0
9.136916792E0,3.590583344E0,-7.132667542E-1,-8.381071472E-1,3.755457602E0
9.146856792E0,2.605930939E0,-1.260379028E-1,-1.519190826E0,3.019056538E0
9.156795792E0,1.669178925E0,2.920426941E-1,-2.425556030E0,2.958845936E0
9.166735792E0,6.870712280E-1,5.760021973E-1,-2.548600159E0,2.701704679E0
9.176675792E0,-1.601669312E-1,9.437873840E-1,-1.930236053E0,2.154576361E0
9.186615792E0,-8.036787415E-1,1.301393738E0,-1.378483429E0,2.059063317E0
9.196555792E0,-1.009201355E0,1.513951721E0,-1.310524750E0,2.242322972E0
9.206495792E0,-8.066725159E-1,1.645079041E0,-1.388063507E0,2.298635660E0
9.216434792E0,-5.342390442E-1,1.792971497E0,-1.222956848E0,2.235124515E0
9.226374792E0,-3.999682617E-1,1.989063721E0,-8.072712708E-1,2.183583294E0
9.236314792E0,-5.879772949E-1,2.182012482E0,-1.935475159E-1,2.268117371E0
9.246254792E0,-8.610095215E-1,2.349963226E0,4.797523499E-1,2.548298820E0
9.256194792E0,-1.016835480E0,2.348166962E0,9.047186279E-1,2.714103585E0
9.266133792E0,-1.130000153E0,2.219883728E0,1.240620117E0,2.782790396E0
9.276073792E0,-1.639989624E0,1.884580994E0,2.227667542E0,3.347194970E0
9.286013792E0,-4.492906952E0,6.685098267E-1,7.587721252E0,8.843451366E0
9.295953792E0,-5.925577698E0,-1.159339142E0,1.035516632E1,1.198690985E1
9.305893792E0,-2.929258575E0,-2.011966095E0,6.903045044E0,7.764057847E0
9.315832792E0,4.571493530E-1,-8.699908447E-1,6.756948853E-1,1.192658031E0
9.325772792E0,1.037492523E0,4.664300537E-1,-3.299438782E0,3.490020631E0
9.335712792E0,1.903441772E0,3.740721130E-1,-3.508703613E0,4.009242020E0
9.345652792E0,3.168461151E0,3.097059631E-1,-4.030069427E0,5.135807964E0
9.355592792E0,5.968089294E0,6.227050781E-2,-4.076173553E0,7.227527812E0
9.365531792E0,1.101499420E1,-4.945715332E-1,-5.947432251E0,1.252783495E1
9.375471792E0,2.143018570E1,-1.714235229E0,-8.126151581E0,2.298316343E1
9.385411792E0,4.339715515E1,-5.694608002E0,-6.723418579E0,4.428256985E1
9.395351792E0,7.210026672E1,-1.370744522E1,-7.342231750E-1,7.339537860E1
9.405291792E0,7.802165314E1,-1.864552643E1,1.308204575E1,8.127837311E1
9.415230792E0,4.827356461E1,-1.430545166E1,3.000929535E1,5.861348645E1
9.425170792E0,2.030078430E1,-1.007165588E1,6.209387512E0,2.349716129E1
9.435110792E0,1.143352386E1,-8.169710999E0,-4.123026123E0,1.464475982E1
9.445050792E0,7.249724121E0,-6.924450531E0,-5.062771912E0,1.123112525E1
9.454990792E0,4.693938904E0,-6.092779999E0,-6.656657410E-1,7.719983253E0
9.464929792E0,4.143383789E0,-4.740043030E0,-1.145118713E-1,6.296725349E0
9.474869792E0,5.230722656E0,-2.921474762E0,-1.970801697E0,6.307101840E0
9.484809792E0,4.899461517E0,-1.718276825E0,-2.881956940E0,5.938255149E0
9.494749792E0,3.868555298E0,-9.731263733E-1,-2.947520599E0,4.959896442E0
9.504689792E0,2.729723511E0,-4.070036316E-1,-2.505938873E0,3.727837448E0
9.514628792E0,1.632505188E0,1.275347900E-1,-2.021246796E0,2.601302927E0
9.524568792E0,4.598437500E-1,6.875202942E-1,-1.410965881E0,1.635532069E0
9.534508792E0,-6.182144165E-1,1.179996185E0,-5.610333252E-1,1.445454411E0
9.544448792E0,-1.048270111E0,1.491498413E0,-4.565505981E-2,1.823601417E0
9.554388792E0,-9.882449341E-1,1.654958496E0,-2.245330811E-2,1.927698064E0
9.564327792E0,-9.373507690E-1,1.568438416E0,2.023791504E-1,1.838364177E0
9.574267792E0,-1.191522217E0,1.575773163E0,9.921368408E-1,2.210683551E0
9.584207792E0,-1.945354614E0,1.560055847E0,2.468965759E0,3.509126778E0
9.594147792E0,-2.655178528E0,1.171613617E0,3.536994781E0,4.575257760E0
9.604087792E0,-2.848276978E0,5.451663208E-1,3.706891479E0,4.706477717E0
9.614026792E0,-2.921474762E0,-5.224136353E-2,3.305426331E0,4.411755566E0
9.623966792E0,-2.789748688E0,-5.295986938E-1,2.347717896E0,3.684420149E0
9.633906792E0,-2.516267395E0,-8.255332947E-1,1.289867706E0,2.945651969E0
9.643846792E0,-2.204765167E0,-9.836045837E-1,6.339317322E-1,2.496064274E0
9.653786792E0,-1.656605072E0,-1.215771790E0,6.640191650E-1,2.159482082E0
9.663725792E0,-5.249583435E-1,-1.822460175E0,1.368154907E0,2.338544462E0
9.673665792E0,1.789229279E0,-2.112407227E0,1.395847321E0,3.100321829E0
9.683605792E0,3.185974731E0,-1.249002686E0,-1.073567505E0,3.586501064E0
9.693545792E0,3.247646484E0,-9.057664490E-1,-2.522404633E0,4.210717953E0
9.703485792E0,4.163442078E0,-1.175056458E0,-2.852468262E0,5.181851290E0
9.713424792E0,6.661746826E0,-1.436562653E0,-3.842659149E0,7.823593316E0
9.723364792E0,1.363200211E1,-2.098486176E0,-5.734574890E0,1.493721777E1
9.733304792E0,2.896806061E1,-4.462071075E0,-7.870782623E0,3.034811086E1
9.743244792E0,5.108861069E1,-8.158035278E0,-5.555397491E0,5.203327899E1
9.753184792E0,7.489226074E1,-1.438748108E1,1.938319244E0,7.628635142E1
9.763124792E0,7.588754105E1,-1.765503616E1,1.970681946E1,8.036776668E1
9.773063792E0,4.181943604E1,-1.384336258E1,3.853840897E1,5.852958981E1
9.783003792E0,1.903845932E1,-1.105436234E1,4.911286926E0,2.255620977E1
9.792943792E0,1.055619827E1,-8.361013184E0,-6.137237549E0,1.479883604E1
9.802883792E0,5.771398315E0,-5.838009796E0,-7.881560211E0,1.138026310E1
9.812823792E0,2.475252686E0,-4.127965851E0,-3.115471344E0,5.733510235E0
9.822762792E0,3.026705933E0,-2.287243652E0,-1.830992432E0,4.212477372E0
9.832702792E0,4.050726471E0,-7.559280396E-1,-2.380948792E0,4.759068112E0
9.842642792E0,3.595373383E0,7.619155884E-2,-3.305576019E0,4.884603130E0
9.852582792E0,2.892285461E0,4.364923096E-1,-4.119283905E0,5.052161975E0
9.862522792E0,1.873953094E0,8.803193665E-1,-4.031117249E0,4.531729103E0
9.872461792E0,7.726931763E-1,1.499282227E0,-3.194806366E0,3.612712230E0
9.882401792E0,-6.750961304E-2,2.270179138E0,-1.667083282E0,2.817345832E0
9.892341792E0,-5.351371765E-1,2.991379395E0,-6.179150391E-1,3.101054897E0
9.902281792E0,-8.725355530E-1,3.122955780E0,-8.903485107E-1,3.362572165E0
9.912221792E0,-9.475296021E-1,2.998115387E0,-1.203946381E0,3.366896955E0
9.922160792E0,-1.010398865E0,3.448229370E0,1.008901978E-1,3.594630786E0
9.932100792E0,-1.744472351E0,3.813918915E0,2.581831055E0,4.924937854E0
9.942040792E0,-2.627037048E0,3.371588745E0,3.888912964E0,5.778631184E0
9.951980792E0,-2.443518677E0,2.385738831E0,2.580932922E0,4.280624726E0
9.961920917E0,-1.754950562E0,1.418450317E0,1.019679565E0,2.476206613E0
9.971859917E0,-1.185684357E0,6.682104492E-1,2.170486450E-2,1.361184668E0
9.981799917E0,-9.494755554E-1,-4.999603271E-2,-2.131567383E-1,9.743917224E-1
9.991739917E0,-9.515711975E-1,-7.930508423E-1,1.667532349E-1,1.249889605E0
1.000167992E1,-7.390132141E-1,-1.421593781E0,6.230044556E-1,1.719070667E0
1.001161992E1,-4.513114929E-1,-1.894161072E0,1.015787659E0,2.196213286E0
1.002155892E1,-1.981878662E-1,-2.951262817E0,2.971919861E0,4.193034499E0
1.003149892E1,1.617835693E0,-4.981041870E0,6.857389984E0,8.628555374E0
1.004143892E1,4.158053284E0,-4.624932404E0,3.090323639E0,6.944746723E0
1.005137892E1,4.660708008E0,-2.869532776E0,-2.640658722E0,6.076964371E0
1.006131892E1,7.273824005E0,-2.923271027E0,-3.362607422E0,8.530015113E0
1.007125792E1,1.324086548E1,-3.958967285E0,-4.636757812E0,1.457715554E1
1.008119792E1,2.265868103E1,-5.450615387E0,-6.571634216E0,2.421386814E1
1.009113792E1,3.657030167E1,-7.688761139E0,-7.811206512E0,3.817746664E1
1.010107792E1,5.571743500E1,-1.097607513E1,-4.075724487E0,5.693433339E1
1.011101792E1,7.104541031E1,-1.316676956E1,3.775149536E-1,7.225618772E1
1.012095692E1,6.047199783E1,-8.141120453E0,1.882724854E1,6.385613245E1
1.013089692E1,2.903676773E1,-2.948269043E0,2.792922089E1,4.039638041E1
1.014083692E1,1.550221298E1,-2.688559113E0,1.644929352E0,1.581937894E1
1.015077692E1,1.132724487E1,-2.916085968E0,-5.439239044E0,1.289943236E1
1.016071692E1,8.501870270E0,-3.339255981E0,-4.117637329E0,1.001934957E1
1.017065592E1,5.043312378E0,-3.616778870E0,7.485932922E-1,6.251118384E0
1.018059592E1,4.466711426E0,-3.114722900E0,3.962260437E-1,5.459853916E0
1.019053592E1,4.874463501E0,-2.506986694E0,-1.832189941E0,5.779472008E0
1.020047592E1,4.259691925E0,-2.008523254E0,-3.356769562E0,5.783341841E0
1.021041592E1,3.222947845E0,-1.502874756E0,-4.032913513E0,5.376840778E0
1.022035492E1,2.330354004E0,-1.006357269E0,-3.612737274E0,4.415334115E0
1.023029492E1,1.420695648E0,-5.954617310E-1,-2.702330475E0,3.110553133E0
1.024023492E1,4.188290405E-1,-1.419049072E-1,-1.592238922E0,1.652507051E0
1.025017492E1,-5.959107971E-1,4.534071350E-1,-5.423222351E-1,9.245545494E-1
1.026011492E1,-1.173110504E0,1.048270111E0,2.125579834E-1,1.587526182E0
1.027005392E1,-1.322948914E0,1.523980865E0,5.116360474E-1,2.081942110E0
1.027999392E1,-1.201850739E0,1.942061462E0,4.207749939E-1,2.322304786E0
1.028993392E1,-1.113384705E0,2.220781860E0,3.821553040E-1,2.513471752E0
1.029987392E1,-1.279539185E0,2.402204590E0,7.194039917E-1,2.815199730E0
1.030981392E1,-1.623224487E0,2.508483582E0,1.410067749E0,3.303882364E0
1.031975292E1,-2.143392792E0,2.418221283E0,2.343825989E0,3.991922732E0
1.032969292E1,-3.000809784E0,2.111060028E0,3.597319336E0,5.138301296E0
1.033963292E1,-3.428620148E0,1.597627716E0,3.584146729E0,5.210945999E0
1.034957292E1,-3.114423523E0,1.020727386E0,2.298320618E0,4.002973387E0
1.035951292E1,-2.629881134E0,6.447093201E-1,1.185534668E0,2.955912268E0
1.036945192E1,-1.927990723E0,3.941304016E-1,2.541714478E-1,1.984210202E0
1.037939192E1,-4.207749939E-1,-4.430786133E-2,3.305126953E-1,5.368923764E-1
1.038933192E1,1.763931885E0,-6.411167908E-1,1.126407623E0,2.188899396E0
1.039927192E1,3.208428040E0,-7.316784668E-1,8.866062927E-1,3.408142395E0
1.040921192E1,3.253035278E0,-4.516108704E-1,-1.012793884E0,3.436850644E0
1.041915092E1,3.360661469E0,-4.077520752E-1,-2.731669464E0,4.349979922E0
1.042909092E1,6.186934204E0,-9.181906128E-1,-3.253484344E0,7.050275826E0
1.043903092E1,1.333591782E1,-2.080523529E0,-3.841761017E0,1.403333210E1
1.044897092E1,2.799059326E1,-4.564308472E0,-4.147425385E0,2.866194969E1
1.045891092E1,4.878475159E1,-8.654852142E0,-4.697381744E0,4.976870350E1
1.046884992E1,7.203200867E1,-1.453043381E1,-9.235794067E-1,7.348875273E1
1.047878992E1,7.600205292E1,-1.869462433E1,1.144400208E1,7.909972320E1
1.048872992E1,4.461262756E1,-1.554756866E1,2.026201492E1,5.140586229E1
1.049866992E1,2.181084412E1,-1.206042023E1,3.833228760E0,2.521627054E1
1.050860992E1,1.293939240E1,-9.955048370E0,-3.064128113E0,1.661083215E1
1.051854992E1,8.811576233E0,-8.724307709E0,-4.448898468E0,1.317384220E1
1.052848892E1,5.764662323E0,-7.851772156E0,-2.095342712E0,9.963539470E0
1.053842892E1,4.668641510E0,-5.989644470E0,-1.139729919E0,7.679260298E0
1.054836892E1,4.399501190E0,-3.882775726E0,-1.895358582E0,6.166355667E0
1.055830892E1,3.514391785E0,-2.276915131E0,-2.823278961E0,5.050365949E0
1.056824892E1,2.337688751E0,-1.019380188E0,-3.162772980E0,4.062887838E0
1.057818792E1,1.439556427E0,5.538482666E-3,-2.571652222E0,2.947159400E0
1.058812792E1,9.099577332E-1,8.660989380E-1,-1.872755585E0,2.255075149E0
1.059806792E1,6.978488159E-1,1.386416931E0,-1.491348724E0,2.152502240E0
1.060800792E1,6.018983459E-1,1.739233246E0,-1.185983734E0,2.189468273E0
1.061794792E1,5.213658142E-1,2.106419678E0,-7.101232910E-1,2.283221684E0
1.062788692E1,3.462300110E-1,2.509531403E0,-4.858895874E-1,2.579478973E0
1.063782692E1,1.092727661E-2,2.813698883E0,-4.652325439E-1,2.851922532E0
1.064776692E1,-2.279759216E-1,3.283571777E0,3.083587646E-2,3.291620800E0
1.065770692E1,-7.354206848E-1,3.787573700E0,1.600471802E0,4.177088472E0
1.066764692E1,-1.616338806E0,3.791615295E0,3.508404236E0,5.412744033E0
1.067758592E1,-2.349065094E0,3.320395203E0,4.236340485E0,5.872794209E0
1.068752592E1,-2.693947906E0,2.571951599E0,3.627257080E0,5.198969540E0
1.069746592E1,-2.440824280E0,1.742077332E0,2.349065094E0,3.809273344E0
1.070740592E1,-1.891316986E0,1.090931396E0,1.087338867E0,2.439163190E0
1.071734592E1,-1.365161133E0,6.518943787E-1,5.777984619E-2,1.513925266E0
1.072728492E1,-8.761280823E-1,2.466870117E-1,-4.664300537E-1,1.022747228E0
1.073722492E1,-4.700225830E-2,-2.520758057E-1,-4.165837097E-1,4.891762579E-1
1.074716492E1,1.253643036E0,-1.099763031E0,1.671124878E0,2.360880756E0
1.075710492E1,3.668720856E0,-2.884801025E0,9.945468292E0,1.098607888E1
1.076704492E1,4.698579254E0,-3.527863770E0,6.109245758E0,8.476163844E0
1.077698392E1,3.782484283E0,-1.722468109E0,-4.727169800E0,6.294459314E0
1.078692392E1,5.470374298E0,-1.374890900E0,-6.266867981E0,8.431426584E0
1.079686392E1,8.914412384E0,-1.853595428E0,-5.748645630E0,1.076798453E1
1.080680392E1,1.475077560E1,-2.896476746E0,-6.636449432E0,1.643220678E1
1.081674392E1,2.496508484E1,-4.858746185E0,-7.421417084E0,2.649415609E1
1.082668292E1,4.543262238E1,-9.265582123E0,-2.381248169E0,4.642891912E1
1.083662292E1,6.197382477E1,-1.474179428E1,-4.385280762E0,6.385378722E1
1.084656292E1,6.795837982E1,-1.909623917E1,-3.097658386E0,7.065835567E1
1.085650292E1,5.014602081E1,-1.805335785E1,2.285417450E1,5.799017525E1
1.086644292E1,2.388133850E1,-1.474927872E1,2.279295181E1,3.615768526E1
1.087638192E1,1.726599518E1,-1.253972351E1,1.208437042E0,2.137333795E1
1.088632192E1,1.210263245E1,-9.958341522E0,-4.728966064E0,1.637087041E1
1.089626192E1,8.636141052E0,-7.317084045E0,-6.474935303E0,1.304022386E1
1.090620192E1,5.504653015E0,-5.403912506E0,-3.179089050E0,8.343265690E0
1.091614192E1,2.521656189E0,-4.018094330E0,6.527925110E-1,4.788524829E0
1.092608092E1,1.092128906E0,-2.347568207E0,2.450703735E0,3.565076553E0
1.093602092E1,1.289718018E0,-8.550219727E-1,1.736838226E0,2.326164690E0
1.094596092E1,2.064357147E0,-1.853146362E-1,4.664300537E-1,2.124492631E0
1.095590092E1,1.416953430E0,5.471122742E-1,4.580474854E-2,1.519600914E0
1.096584021E1,1.122665405E-2,1.356179810E0,2.478845215E-1,1.378693748E0
1.097577921E1,-3.207829285E-1,1.742676086E0,-7.616162109E-1,1.928699272E0
1.098571921E1,-1.871109009E-1,1.707050171E0,-2.352957001E0,2.912977415E0
1.099565921E1,-5.047503662E-1,2.049687653E0,-3.107537842E0,3.756698530E0
1.100559921E1,-9.568103027E-1,2.663112030E0,-3.551514587E0,4.541024940E0
1.101553921E1,-6.753955078E-1,3.460803223E0,-3.486399994E0,4.958659391E0
1.102547821E1,-3.373983765E-1,4.541855164E0,-2.215243378E0,5.064542350E0
1.103541821E1,-7.634124756E-2,5.357059937E0,-6.283932495E-1,5.394330100E0
1.104535821E1,1.146615601E-1,5.900879059E0,6.165678406E-1,5.934111293E0
1.105529821E1,-1.451980591E-2,6.352340240E0,1.247206421E0,6.473635857E0
1.106523821E1,-6.236032104E-1,6.500831451E0,8.583151245E-1,6.586835005E0
1.107517721E1,-7.524851990E-1,5.747897186E0,-8.641529846E-1,5.860999609E0
1.108511721E1,-8.496331787E-1,4.644841003E0,-1.775308228E0,5.044615326E0
1.109505721E1,-1.164428558E0,3.546275482E0,-1.345851288E0,3.967780154E0
1.110499721E1,-1.310225372E0,2.150727539E0,5.766009521E-1,2.583561134E0
1.111493721E1,-8.460406494E-1,1.582209778E-1,5.463039551E0,5.530426728E0
1.112487621E1,9.915380859E-1,-2.212548981E0,1.215667007E1,1.239609406E1
1.113481621E1,3.434907074E0,-2.464175720E0,7.694598999E0,8.779385078E0
1.114475621E1,3.294948120E0,-7.768844604E-1,-2.628533936E0,4.285956513E0
1.115469621E1,5.051395569E0,-1.384470978E0,-2.326462097E0,5.731124058E0
1.116463621E1,1.110061615E1,-3.616180115E0,2.528242493E-1,1.167751505E1
1.117457521E1,1.417477341E1,-3.451372833E0,-4.904401245E0,1.539120941E1
1.118451521E1,2.438354416E1,-6.042334900E0,-5.779631195E0,2.577733837E1
1.119445521E1,4.084675873E1,-1.012928604E1,-5.380561066E0,4.242653146E1
1.120439521E1,5.371295334E1,-1.346135696E1,-6.615043945E0,5.576780697E1
1.121433521E1,6.485967361E1,-1.717722977E1,-4.347858582E0,6.723643624E1
1.122427421E1,6.002936829E1,-1.567375626E1,7.621700592E0,6.250825555E1
1.123421421E1,3.124168259E1,-9.043444061E0,2.406021652E1,4.045640407E1
1.124415421E1,1.781056274E1,-7.274572449E0,5.583239594E0,2.003267616E1
1.125409421E1,1.322380096E1,-6.886579285E0,-3.559148712E0,1.532845151E1
1.126403421E1,8.903485107E0,-6.389163666E0,-3.868555298E0,1.162149644E1
1.127397321E1,5.543272705E0,-5.686075745E0,-2.026186523E0,8.195411002E0
1.128391321E1,2.958747253E0,-4.799319763E0,1.183289337E0,5.760887879E0
1.129385321E1,1.366807709E0,-3.698508911E0,1.927841034E0,4.389043464E0
1.130379321E1,1.104702759E0,-2.441273346E0,7.566764832E-1,2.784374801E0
1.131373321E1,1.813478851E0,-1.626068573E0,-7.608677673E-1,2.551808047E0
1.132367321E1,2.380499725E0,-1.244362335E0,-2.071093140E0,3.391849548E0
1.133361221E1,1.838626556E0,-8.217910767E-1,-3.020568695E0,3.630388881E0
1.134355221E1,3.281176758E-1,-1.312770081E-1,-3.359314270E0,3.377852458E0
1.135349221E1,-8.776249695E-1,5.536985779E-1,-3.357518005E0,3.514218954E0
1.136343221E1,-1.490899658E0,1.173260193E0,-2.951412506E0,3.508583340E0
1.137337221E1,-1.466500397E0,1.669478302E0,-2.503394165E0,3.347351723E0
1.138331121E1,-1.246457977E0,2.023791504E0,-2.102378082E0,3.173229135E0
1.139325121E1,-9.686357117E-1,2.419119415E0,-1.284927979E0,2.905414565E0
1.140319121E1,-7.948471069E-1,3.189417572E0,9.590556335E-1,3.424026005E0
1.141313121E1,-9.981243896E-1,4.288731537E0,4.441114655E0,6.254036286E0
1.142307121E1,-1.351389771E0,4.712799683E0,5.226231995E0,7.165907899E0
1.143301021E1,-1.329684906E0,4.441863098E0,3.078647919E0,5.565634082E0
1.144295021E1,-1.385518799E0,3.954925690E0,1.029259644E0,4.315144837E0
1.145289021E1,-1.335822144E0,3.425626373E0,-6.589297485E-1,3.735441776E0
1.146283021E1,-1.116827545E0,2.773582306E0,-1.879940643E0,3.531888927E0
1.147277021E1,1.401086426E-1,1.938468933E0,-1.096469879E0,2.231487941E0
1.148270921E1,2.720293121E0,1.078507233E0,1.762434998E0,3.416042979E0
1.149264921E1,3.175047455E0,8.842112732E-1,8.852590942E-1,3.412688029E0
1.150258921E1,2.850522308E0,7.186555481E-1,-3.559597778E-1,2.961190739E0
1.151252921E1,7.700736237E0,-8.099656677E-1,5.343737640E0,9.408130257E0
1.152246921E1,9.822124786E0,-1.046324158E0,1.767075348E0,1.003451468E1
1.153240821E1,9.956844635E0,-2.784210205E-1,-6.130800934E0,1.169628118E1
1.154234821E1,2.209585144E1,-2.075434113E0,-5.900729370E0,2.296416088E1
1.155228821E1,4.649990295E1,-7.230414276E0,-1.671723633E0,4.708836932E1
1.156222821E1,6.381873825E1,-1.297112640E1,-5.095853119E0,6.532265450E1
1.157216821E1,7.251116226E1,-1.935490128E1,-3.078348541E0,7.511296217E1
1.158210721E1,5.004767532E1,-1.953617432E1,9.354497223E0,5.453382923E1
1.159204721E1,2.133648056E1,-1.384411102E1,8.696914673E0,2.688012533E1
1.160198721E1,1.471140747E1,-9.711953888E0,-4.039948883E0,1.808504203E1
1.161192721E1,1.060888870E1,-6.900051270E0,-6.394253082E0,1.417905848E1
1.162186721E1,7.505392456E0,-4.694238281E0,-5.376519470E0,1.035730421E1
1.163180621E1,6.069578247E0,-3.363954620E0,-3.563040619E0,7.800719790E0
1.164174621E1,4.681365051E0,-2.625390472E0,-1.661844177E0,5.618681335E0
1.165168621E1,2.765648804E0,-2.244282990E0,2.791694641E-1,3.572611794E0
1.166162621E1,7.006929016E-1,-2.043550415E0,2.008672943E0,2.949887427E0
1.167156621E1,-8.303233337E-1,-1.676363983E0,3.089724884E0,3.611929249E0
1.168150521E1,-1.514849854E0,-1.076710968E0,3.140768738E0,3.649452678E0
1.169144521E1,-1.686243439E0,-5.358856201E-1,2.049837341E0,2.707844800E0
1.170138521E1,-1.949695587E0,-1.351689148E-1,7.771838379E-1,2.103235183E0
1.171132521E1,-2.246378632E0,2.186952209E-1,-6.706054688E-2,2.257995056E0
1.172126521E1,-2.277813263E0,5.334906006E-1,-9.461824036E-1,2.523550400E0
1.173120421E1,-1.991608429E0,7.593708801E-1,-1.677711182E0,2.712538125E0
1.174114421E1,-1.699715424E0,1.027014313E0,-1.929038544E0,2.768570140E0
1.175108421E1,-1.502425690E0,1.206640778E0,-2.025737457E0,2.795867873E0
1.176102421E1,-1.255439301E0,1.368005219E0,-1.798659668E0,2.585100137E0
1.177096421E1,-8.701405334E-1,1.610051880E0,-1.169517975E0,2.171907893E0
1.178090321E1,-5.331912231E-1,1.958377533E0,-3.359014893E-1,2.057271312E0
1.179084321E1,-7.659571838E-1,3.045866089E0,1.978585510E0,3.711979426E0
1.180078321E1,-1.580862579E0,4.932692413E0,7.004084930E0,8.711359633E0
1.181072321E1,-1.445244598E0,4.453838196E0,7.614964600E0,8.939412312E0
1.182066321E1,-1.017883301E-2,2.615061951E0,5.299429779E0,5.909535396E0
1.183060221E1,2.412682800E0,6.378236389E-1,3.720064087E0,4.479590841E0
1.184054221E1,4.140839081E0,-4.944218445E-1,9.232800293E-1,4.271234864E0
1.185048221E1,2.721041565E0,-2.429447937E-1,-2.623743896E0,3.787759418E0
1.186042221E1,2.626737671E0,-4.532574463E-1,-2.811453552E0,3.874204974E0
1.187036221E1,6.012097778E0,-2.099234619E0,-1.218017120E0,6.483492222E0
1.188030121E1,1.082294357E1,-3.487298126E0,-1.568139038E0,1.147851976E1
1.189024121E1,1.624377090E1,-4.700076141E0,-3.693120117E0,1.730866676E1
1.190018121E1,2.595662292E1,-6.998247070E0,-4.660408630E0,2.728444876E1
1.191012121E1,4.113535858E1,-1.142993134E1,-3.753145294E0,4.285845489E1
1.192006121E1,5.561280258E1,-1.617356689E1,-4.161645813E0,5.806623264E1
1.193000021E1,6.488916229E1,-2.015109558E1,-3.069067841E0,6.801536013E1
1.193994021E1,5.290119141E1,-1.823702591E1,1.161030624E1,5.714826662E1
1.194988021E1,2.688663895E1,-1.181058975E1,1.192540100E1,3.169537148E1
1.195982021E1,1.709774506E1,-8.195457458E0,-1.063837738E0,1.899026487E1
1.196976067E1,1.053194870E1,-5.997577972E0,-5.717210999E0,1.340072336E1
1.197969967E1,6.936126251E0,-4.220922546E0,-5.295537872E0,9.693748288E0
1.198963967E1,4.375850372E0,-3.070714417E0,-2.226020966E0,5.790727316E0
1.199957967E1,2.306852875E0,-2.506537628E0,1.041085052E0,3.562044238E0
1.200951967E1,1.169817352E0,-2.018851776E0,2.277962952E0,3.260881835E0
1.201945967E1,1.015787659E0,-1.550176392E0,2.035317535E0,2.752705738E0
1.202939867E1,1.229243774E0,-1.187181244E0,1.322649536E0,2.160981573E0
1.203933867E1,1.154399414E0,-4.770579529E-1,3.008743286E-1,1.284814251E0
1.204927867E1,1.327289886E0,6.855743408E-2,-6.670129395E-1,1.487045670E0
1.205921867E1,9.232800293E-1,5.828878784E-1,-9.707313538E-1,1.461000908E0
1.206915867E1,-1.749861145E-1,1.607806549E0,-1.895059204E-1,1.628365602E0
1.207909767E1,-5.999523926E-1,2.132016449E0,-4.056564331E-1,2.251664752E0
1.208903767E1,-5.507048035E-1,2.123035126E0,-1.696571960E0,2.772888448E0
1.209897767E1,-4.851411438E-1,2.454745331E0,-2.104024658E0,3.269259294E0
1.210891767E1,-3.760180664E-1,3.041974182E0,-1.723216553E0,3.516315088E0
1.211885767E1,-4.460723877E-1,3.731440430E0,-9.491761780E-1,3.876024209E0
1.212879667E1,-6.376739502E-1,4.261637878E0,-2.157014465E-1,4.314477093E0
1.213873667E1,-7.258406067E-1,4.491410065E0,2.109114075E-1,4.554568320E0
1.214867667E1,-9.616003418E-1,4.402345276E0,1.381626892E-1,4.508259983E0
1.215861667E1,-1.187031555E0,4.279600525E0,-3.046165466E-1,4.451608227E0
1.216855667E1,-9.812095642E-1,4.235891418E0,-6.159690857E-1,4.391465158E0
1.217849667E1,-7.982899475E-1,3.850742340E0,-4.399351501E-1,3.957148765E0
1.218843567E1,6.761439514E-1,2.390079803E0,1.354682922E0,2.829278694E0
1.219837567E1,2.917732544E0,7.476951599E-1,4.633764038E0,5.526660874E0
1.220831567E1,4.763095093E0,-3.164419556E-1,3.491339722E0,5.914107154E0
1.221825567E1,4.784201202E0,-2.963836670E-1,-1.161434784E0,4.932074126E0
1.222819567E1,5.954766998E0,-5.390290833E-1,-2.572999420E0,6.509234085E0
1.223813467E1,1.073163345E1,-1.721719666E0,-1.805245972E0,1.101776693E1
1.224807467E1,1.665077454E1,-2.748883667E0,-3.869303741E0,1.731404532E1
1.225801467E1,2.662079178E1,-4.586761780E0,-5.627397766E0,2.759297998E1
1.226795467E1,4.214261398E1,-8.654552765E0,-6.436914368E0,4.350097773E1
1.227789467E1,5.923377274E1,-1.410741348E1,-4.564907227E0,6.106142256E1
1.228783367E1,6.931635590E1,-1.953288116E1,8.912915497E0,7.256535471E1
1.229777367E1,4.486739777E1,-1.640199188E1,2.569676331E1,5.424419199E1
1.230771367E1,2.402144714E1,-1.111498627E1,4.760400696E0,2.689301503E1
1.231765367E1,1.548170563E1,-9.010512543E0,-6.684349823E0,1.911944241E1
1.232759367E1,1.018018021E1,-7.836503906E0,-8.119714966E0,1.519791544E1
1.233753267E1,7.096742249E0,-7.181016998E0,-2.739303589E0,1.046109649E1
1.234747267E1,4.748724976E0,-5.848338318E0,1.555265808E0,7.692353457E0
1.235741267E1,4.085154877E0,-3.767814789E0,1.423539734E0,5.736844431E0
1.236735267E1,4.285139008E0,-2.480940857E0,1.113684082E-1,4.952765568E0
1.237729267E1,4.256847839E0,-1.876198425E0,-7.734416199E-1,4.715833542E0
1.238723167E1,3.848197632E0,-1.341061249E0,-1.370549927E0,4.299474083E0
1.239717167E1,3.079546051E0,-6.029461670E-1,-2.115700378E0,3.784618350E0
1.240711167E1,1.993255005E0,-1.182540894E-2,-2.365381165E0,3.093256117E0
1.241705167E1,1.020877075E0,3.608995056E-1,-2.142045593E0,2.400166198E0
1.242699167E1,9.864486694E-2,5.848338318E-1,-1.752854919E0,1.850476098E0
1.243693067E1,-5.589376831E-1,8.161029053E-1,-1.324146423E0,1.652815488E0
1.244687067E1,-9.360035706E-1,1.321002960E0,-8.563691711E-1,1.831534783E0
1.245681067E1,-1.392254791E0,2.239193573E0,3.273692322E-1,2.656977959E0
1.246675067E1,-1.787133636E0,3.223845978E0,1.545236664E0,3.996846991E0
1.247669067E1,-1.652713165E0,3.638783112E0,1.832489319E0,4.396614657E0
1.248662967E1,-1.506467285E0,3.694766693E0,1.652413788E0,4.318705353E0
1.249656967E1,-1.506616974E0,3.695066071E0,1.018182678E0,4.118264676E0
1.250650967E1,-1.604812775E0,3.303630066E0,1.362167358E-1,3.675316402E0
1.251644967E1,-1.647623749E0,2.660866699E0,-5.014572144E-1,3.169595392E0
1.252638967E1,-1.883383484E0,2.018402710E0,-3.884422302E-1,2.787825356E0
1.253632867E1,-2.376308441E0,9.806108093E-1,8.113128662E-1,2.695675784E0
1.254626867E1,-1.876797180E0,-4.972659302E-1,3.859424286E0,4.320277408E0
1.255620867E1,1.259630585E0,-8.655001831E-1,6.246510315E0,6.430758189E0
1.256614867E1,2.604284363E0,1.341210938E-1,4.758604431E-1,2.650797742E0
1.257608867E1,1.572779388E0,6.204597473E-1,-4.031716003E0,4.371880515E0
1.258602767E1,2.253563690E0,3.043171692E-1,-3.772006073E0,4.404450937E0
1.259596767E1,4.600533142E0,-1.815724182E-1,-2.969973907E0,5.478924963E0
1.260590767E1,9.606123962E0,-9.991722107E-1,-2.637066193E0,1.001149743E1
1.261584767E1,1.672142761E1,-2.126328278E0,-5.436245270E0,1.771101849E1
1.262578767E1,3.361424881E1,-5.538632355E0,-5.204976196E0,3.446281980E1
1.263572667E1,5.745083038E1,-1.249840942E1,-5.259013824E0,5.902936029E1
1.264566667E1,7.678013489E1,-2.210318619E1,1.243314514E0,7.990798323E1
1.265560667E1,6.558790924E1,-2.696672241E1,2.894470917E1,7.659487023E1
1.266554667E1,3.042034058E1,-1.924308380E1,1.519819519E1,3.907273387E1
1.267548667E1,1.828956665E1,-1.302740936E1,-2.595153351E0,2.260434613E1
1.268542567E1,1.265303787E1,-9.119336243E0,-8.165070648E0,1.760483001E1
1.269536567E1,9.123527527E0,-5.841003571E0,-8.525820465E0,1.378570607E1
1.270530567E1,7.016958160E0,-3.686384125E0,-5.132676544E0,9.443066147E0
1.271524567E1,4.573289795E0,-2.239642639E0,-1.908381500E0,5.438096970E0
1.272518567E1,2.678829346E0,-1.036893768E0,-8.732839966E-1,3.002315821E0
1.273512467E1,1.679507446E0,-2.767744446E-1,-1.590891724E0,2.329868200E0
1.274506467E1,1.011147308E0,2.261796570E-1,-2.466720428E0,2.675497297E0
1.275500467E1,3.103047180E-1,4.879852295E-1,-2.593057709E0,2.656758718E0
1.276494467E1,-6.426136780E-1,6.911128235E-1,-1.922751617E0,2.141859719E0
1.277488467E1,-1.541344757E0,1.047671356E0,-9.873468018E-1,2.109078623E0
1.278482367E1,-2.229164429E0,1.568288727E0,-2.284249878E-1,2.735120026E0
1.279476367E1,-2.516566772E0,1.999092865E0,-4.984634399E-2,3.214337453E0
1.280470367E1,-2.266287231E0,2.183808746E0,-2.314187622E-1,3.155730201E0
1.281464367E1,-1.751208344E0,2.257754974E0,-2.547702026E-1,2.868640103E0
1.282458367E1,-1.406026154E0,2.357896729E0,-3.300636292E-1,2.765054887E0
1.283452267E1,-1.337169342E0,2.178719330E0,-4.984634399E-1,2.604477984E0
1.284446267E1,-1.365310822E0,1.945953369E0,-6.065386963E-1,2.453303354E0
1.285440267E1,-1.359622650E0,1.856738892E0,-3.805087280E-1,2.332560815E0
1.286434267E1,-1.601968689E0,1.975741425E0,4.155358887E-1,2.577310213E0
1.287428267E1,-2.860701141E0,2.150428162E0,2.868484955E0,4.586519185E0
1.288422167E1,-4.440665588E0,1.325493622E0,5.656287689E0,7.312320742E0
1.289416167E1,-3.900738373E0,-2.212399292E-1,5.901777191E0,7.077830245E0
1.290410167E1,-1.863175507E0,-1.678759003E0,6.146817627E0,6.638751516E0
1.291404167E1,5.547463989E-1,-2.258802795E0,5.238506470E0,5.731656276E0
1.292398167E1,1.217568054E0,-8.864566040E-1,-4.748126221E-1,1.579153034E0
1.293392067E1,1.148411865E0,-2.766247559E-1,-2.865640869E0,3.099559430E0
1.294386067E1,1.769170990E0,-2.844085693E-1,-2.614014130E0,3.169215060E0
1.295380067E1,3.704197083E0,-4.574487305E-1,-1.492546234E0,4.019705167E0
1.296374104E1,9.445358276E0,-1.266366577E0,1.469643860E0,9.642527177E0
1.297368104E1,1.485136642E1,-1.559606781E0,-1.482068024E0,1.500639809E1
1.298362104E1,2.499577103E1,-3.187022552E0,-4.963528290E0,2.568233430E1
1.299356004E1,4.627192703E1,-8.872050476E0,-4.577481079E0,4.733664378E1
1.300350004E1,7.073495590E1,-1.720342529E1,-4.009861450E0,7.290727547E1
1.301344004E1,7.820726715E1,-2.124816422E1,2.051783295E0,8.106831028E1
1.302338004E1,5.117917236E1,-1.327649139E1,9.178463287E0,5.366392732E1
1.303332004E1,2.272574158E1,-6.647227020E0,1.308728485E0,2.371408289E1
1.304325904E1,1.418480255E1,-4.246818695E0,-4.397704926E0,1.544616137E1
1.305319904E1,9.242380371E0,-2.868784332E0,-4.154460754E0,1.053143213E1
1.306313904E1,6.087540894E0,-2.194137268E0,-2.503244476E0,6.938200443E0
1.307307904E1,4.101171570E0,-1.649869080E0,-2.336640930E-1,4.426768023E0
1.308301904E1,2.740501099E0,-1.229543152E0,1.041683807E0,3.179186655E0
1.309295804E1,1.812880096E0,-9.174421692E-1,9.957293701E-1,2.262677917E0
1.310289804E1,1.197509766E0,-6.390211487E-1,6.060896301E-1,1.486513474E0
1.311283804E1,4.770579529E-1,-5.520520020E-1,5.542973328E-1,9.162921130E-1
1.312277804E1,-5.532495117E-1,-6.191125488E-1,6.991960144E-1,1.085477055E0
1.313271804E1,-1.293609924E0,-4.794529724E-1,7.024891663E-1,1.548157879E0
1.314265704E1,-1.815873871E0,-2.797682190E-1,9.141490173E-1,2.052154136E0
1.315259704E1,-2.627785492E0,-1.179547119E-1,1.573976898E0,3.065383040E0
1.316253704E1,-3.107837219E0,3.863465881E-1,1.638343048E0,3.534414210E0
1.317247704E1,-2.627336426E0,7.023394775E-1,5.870791626E-1,2.782236399E0
1.318241704E1,-1.953587494E0,1.019978943E0,-4.864883423E-2,2.204365634E0
1.319235604E1,-1.736239471E0,1.534010010E0,1.222956848E-1,2.320058285E0
1.320229604E1,-2.058818665E0,2.182461548E0,9.559121704E-1,3.148911047E0
1.321223604E1,-2.533481598E0,2.766247559E0,2.118843842E0,4.308149694E0
1.322217604E1,-2.711760864E0,3.064726868E0,2.622845764E0,4.860608775E0
1.323211604E1,-2.204316101E0,3.146606598E0,2.697989502E0,4.694602210E0
1.324205504E1,-4.740641785E-1,2.603386230E0,3.882326660E0,4.698384510E0
1.325199504E1,1.684147797E0,1.907333679E0,5.117108917E0,5.714812266E0
1.326193504E1,3.920197906E0,1.632205811E0,4.238735504E0,5.999910508E0
1.327187504E1,4.519701233E0,1.199755096E0,5.333409119E-1,4.706544811E0
1.328181504E1,2.783761139E0,4.902305603E-1,-2.699785767E0,3.908771580E0
1.329175404E1,2.671494598E0,2.106120300E-1,-2.993924103E0,4.018062014E0
1.330169404E1,4.544998627E0,-1.673519897E-1,-2.603086853E0,5.240332086E0
1.331163404E1,9.124725037E0,-9.551637268E-1,-1.044378204E0,9.233832930E0
1.332157404E1,1.678699127E1,-2.315385132E0,-3.688330078E-1,1.694992985E1
1.333151404E1,2.603595795E1,-4.400998077E0,-2.523003387E0,2.652556194E1
1.334145304E1,4.107159119E1,-8.387508087E0,-1.509011993E0,4.194643026E1
1.335139304E1,5.761683517E1,-1.305016205E1,1.736838226E0,5.910180227E1
1.336133304E1,6.112688599E1,-1.682561096E1,2.139051819E0,6.343636904E1
1.337127304E1,4.275708618E1,-1.756597137E1,2.674937439E-1,4.622557000E1
1.338121304E1,2.541549820E1,-1.369591919E1,-4.341871033E0,2.919550642E1
1.339115204E1,1.850871094E1,-1.060544586E1,-6.290069733E0,2.223989298E1
1.340109204E1,1.294463150E1,-6.953639832E0,-6.331832886E0,1.600027185E1
1.341103204E1,9.583670654E0,-4.485422516E0,-4.929998016E0,1.167350157E1
1.342097204E1,6.717730408E0,-3.077450409E0,-3.226690063E0,8.062886060E0
1.343091204E1,3.657643890E0,-2.281106415E0,-1.898202667E0,4.710093276E0
1.344085104E1,1.352886658E0,-1.896705780E0,-3.839515686E-1,2.361189093E0
1.345079104E1,-9.145980835E-2,-1.452729034E0,1.192570038E0,1.881757115E0
1.346073104E1,-1.621428223E0,-1.417402496E0,3.193309479E0,3.851659999E0
1.347067104E1,-3.187770996E0,-1.430874481E0,5.234913940E0,6.293934355E0
1.348061104E1,-3.504662018E0,-8.884025574E-1,5.799689484E0,6.834348035E0
1.349055004E1,-2.846630402E0,9.550140381E-2,4.989125061E0,5.744892866E0
1.350049004E1,-2.222129059E0,9.756710815E-1,3.866459656E0,4.565008421E0
1.351043004E1,-1.395547943E0,1.451830902E0,2.302362213E0,3.058796951E0
1.352037004E1,-6.572831726E-1,1.383572845E0,4.454736328E-1,1.595224669E0
1.353031004E1,-2.713856506E-1,7.171586609E-1,-1.073118439E0,1.318919975E0
1.354024904E1,-3.854484558E-1,4.923262024E-1,-1.725312195E0,1.835117918E0
1.355018904E1,-4.703219604E-1,7.719447327E-1,-1.897154846E0,2.101498971E0
1.356012904E1,-4.418811035E-1,1.087787933E0,-1.904190216E0,2.237069931E0
1.357006904E1,-4.671784973E-1,1.403032379E0,-1.936373291E0,2.436451749E0
1.358000904E1,-6.105802917E-1,1.642983398E0,-1.927391968E0,2.605195297E0
1.358994804E1,-6.493496704E-1,1.780098267E0,-1.898801422E0,2.682508467E0
1.359988804E1,-5.307962036E-1,1.869013367E0,-1.608704681E0,2.522476229E0
1.360982804E1,2.209405518E-1,2.088906097E0,-5.361849976E-1,2.167910921E0
1.361976804E1,4.208498383E0,2.720592499E0,6.460415497E0,8.176188022E0
1.362970804E1,8.390801239E0,2.086960144E0,1.002674927E1,1.323996408E1
1.363964804E1,6.109395447E0,1.107846222E0,-3.270698547E-1,6.217637065E0
1.364958704E1,4.899611206E0,4.933740234E-1,-5.639672241E0,7.487022832E0
1.365952704E1,8.584049377E0,-5.532495117E-1,-4.815037079E0,9.857817751E0
1.366946704E1,1.770443344E1,-3.229683838E0,-1.726060638E0,1.807918987E1
1.367940704E1,3.041031143E1,-7.147935791E0,-1.835932159E0,3.129298123E1
1.368934704E1,4.265275314E1,-1.123234222E1,-4.548142090E0,4.434082159E1
1.369928604E1,5.839042648E1,-1.722662704E1,1.577120361E0,6.089898105E1
1.370922604E1,5.996096054E1,-2.146506317E1,9.975705414E0,6.446379158E1
1.371916604E1,3.907923431E1,-1.914234329E1,8.569679260E0,4.435149675E1
1.372910604E1,2.364213593E1,-1.417896469E1,2.352358246E0,2.766816257E1
1.373904604E1,1.756731857E1,-1.162093414E1,-1.127904510E0,2.109333925E1
1.374898504E1,1.185250259E1,-9.144184570E0,-3.530707855E0,1.538063156E1
1.375892504E1,7.350314941E0,-6.125861206E0,-3.629801788E0,1.023370736E1
1.376886504E1,5.598208466E0,-3.471730499E0,-2.831811218E0,7.170216556E0
1.377880504E1,4.637955322E0,-1.932780762E0,-2.768492889E0,5.736795615E0
1.378874504E1,3.657494202E0,-1.041534119E0,-2.648292847E0,4.634167903E0
1.379868404E1,2.462080078E0,-5.685177612E-1,-2.361040192E0,3.458259901E0
1.380862404E1,1.101409607E0,1.901046753E-2,-1.805545349E0,2.115055207E0
1.381856404E1,-1.800755310E-1,8.557704163E-1,-1.068029022E0,1.380382626E0
1.382850404E1,-9.282197571E-1,1.669478302E0,-5.245092773E-1,1.980873469E0
1.383844404E1,-1.130898285E0,2.154769135E0,-3.269201660E-1,2.455369168E0
1.384838304E1,-1.238674164E0,2.452350311E0,-2.815644836E-1,2.761813587E0
1.385832304E1,-1.288071442E0,2.647843781E0,-3.502716064E-1,2.965281593E0
1.386826304E1,-1.177301788E0,2.697241058E0,-6.375242615E-1,3.011243267E0
1.387820304E1,-9.123527527E-1,2.964884491E0,-3.541635132E-1,3.122236279E0
1.388814304E1,-4.761598206E-1,3.777245178E0,1.105900269E0,3.964508130E0
1.389808204E1,-3.281176758E-1,4.695585480E0,2.981949005E0,5.572091535E0
1.390802204E1,-6.487509155E-1,5.081033936E0,3.331172791E0,6.110196050E0
1.391796204E1,-1.144220581E0,4.667294312E0,1.779649200E0,5.124453942E0
1.392790204E1,-1.367705841E0,3.757037201E0,-1.219963074E-1,4.000103861E0
1.393784204E1,-1.359323273E0,3.027154999E0,-1.197958832E0,3.527964358E0
1.394778104E1,-1.326092377E0,2.167642365E0,-1.478924561E0,2.940138138E0
1.395772104E1,-7.503895569E-1,9.867480469E-1,-9.581575012E-1,1.566787156E0
1.396766104E1,5.869294739E-1,-1.492396545E-1,4.745132446E-1,7.693643487E-1
1.397760104E1,3.139870605E0,-1.256936188E0,3.312012634E0,4.733719857E0
1.398754104E1,4.343667297E0,-1.293909302E0,2.643203430E0,5.246729576E0
1.399748004E1,2.586022339E0,-3.992198181E-1,-2.458337860E0,3.590308209E0
1.400742004E1,4.448150024E0,-1.017134857E0,-1.738784180E0,4.883029017E0
1.401736004E1,1.181493073E1,-3.552113342E0,1.592089233E0,1.243964812E1
1.402730004E1,1.604917557E1,-3.886068878E0,-3.892505493E0,1.696552878E1
1.403724004E1,2.770798096E1,-6.813830566E0,-5.519771576E0,2.906249084E1
1.404717904E1,4.542678452E1,-1.147244293E1,-4.423451385E0,4.706141329E1
1.405711904E1,6.109260727E1,-1.599708389E1,-2.796784058E0,6.321420218E1
1.406705904E1,6.845819046E1,-2.043715073E1,2.336191864E0,7.148187717E1
1.407699904E1,4.612957306E1,-1.850466934E1,1.352093307E1,5.150898882E1
1.408693904E1,2.275852341E1,-1.369097946E1,1.200383789E1,2.914593334E1
1.409687804E1,1.610471008E1,-1.099718124E1,1.888323212E0,1.959248444E1
1.410681804E1,1.160970749E1,-8.517886963E0,-1.522933044E0,1.447960743E1
1.411675804E1,7.368726654E0,-5.772895203E0,-1.603465576E0,9.497133956E0
1.412669804E1,5.067412262E0,-3.701652374E0,-8.566685486E-1,6.333622844E0
1.413663804E1,3.519331512E0,-2.244133301E0,-1.125060425E0,4.322914471E0
1.414657704E1,2.747536469E0,-1.270108795E0,-1.729952545E0,3.486383342E0
1.415651704E1,2.187401276E0,-7.321275330E-1,-2.604883118E0,3.479389475E0
1.416645704E1,1.338366852E0,-1.986369324E-1,-3.190764771E0,3.465784512E0
1.417639704E1,3.565585327E-1,3.282673645E-1,-3.114573212E0,3.152056430E0
1.418633704E1,-6.147715759E-1,7.613168335E-1,-2.778971100E0,2.946222630E0
1.419627604E1,-1.289718018E0,1.228794708E0,-2.454445953E0,3.032756821E0
1.420621604E1,-1.579814758E0,1.887574768E0,-1.895957336E0,3.106993305E0
1.421615604E1,-1.498982849E0,2.593357086E0,-1.098565521E0,3.190501021E0
1.422609604E1,-1.402134247E0,2.874921570E0,-5.896238708E-1,3.252508384E0
1.423603604E1,-1.568288727E0,3.347039795E0,2.299218750E-1,3.703386152E0
1.424597504E1,-1.845063171E0,4.491709442E0,1.212478638E0,5.004979147E0
1.425591504E1,-1.969005432E0,5.369633789E0,2.141596527E0,6.107076642E0
1.426585504E1,-2.236648865E0,6.049519958E0,3.821253662E0,7.496750591E0
1.427579504E1,-2.742596741E0,5.645809479E0,3.701951752E0,7.287074058E0
1.428573504E1,-2.278112640E0,4.275558929E0,8.801696777E-1,4.923911049E0
1.429567404E1,-1.888921967E0,3.091820526E0,-6.542893982E-1,3.681776063E0
1.430561404E1,-1.747166748E0,1.925146637E0,-1.944456482E-1,2.607027106E0
1.431555404E1,-1.321002960E0,5.135820007E-1,1.806293793E0,2.295977473E0
1.432549404E1,5.523513794E-2,-2.345622253E-1,2.595752106E0,2.606913760E0
1.433543404E1,1.485660553E0,-2.306703186E-1,8.951385498E-1,1.749762583E0
1.434537404E1,2.965333557E0,-6.903643799E-1,9.876461792E-1,3.200820373E0
1.435531304E1,4.866230621E0,-1.434017944E0,1.420545959E0,5.268259556E0
1.436525304E1,4.900060272E0,-1.066532135E0,-1.575174408E0,5.256353858E0
1.437519304E1,6.565946045E0,-1.040486298E0,-3.373983765E0,7.455067112E0
1.438513304E1,1.519370453E1,-2.867287445E0,-3.066373444E0,1.576301496E1
1.439507304E1,3.119602753E1,-6.608457642E0,-2.486179962E0,3.198507365E1
1.440501204E1,4.799499390E1,-1.105451202E1,-5.655239868E0,4.957522983E1
1.441495204E1,7.028244690E1,-1.838626556E1,-4.332440643E0,7.277669370E1
1.442489204E1,7.652326904E1,-2.262784515E1,7.311545563E0,8.013294441E1
1.443483204E1,4.382541458E1,-1.532318527E1,1.934202805E1,5.029494029E1
1.444477204E1,2.113619705E1,-9.976154480E0,3.396886139E0,2.361781784E1
1.445471104E1,1.547901123E1,-7.870333557E0,-3.601510620E0,1.773450923E1
1.446465104E1,1.009800110E1,-6.416556702E0,-4.186194763E0,1.267541134E1
1.447459104E1,5.953419800E0,-4.833149414E0,-2.435285797E0,8.045691859E0
1.448453104E1,3.019670563E0,-3.491788788E0,3.303630066E-1,4.628189599E0
1.449447104E1,1.034798126E0,-1.947899323E0,1.356179810E0,2.589274533E0
1.450441004E1,-4.273612976E-1,-9.316625977E-1,8.764274597E-1,1.348613350E0
1.451435004E1,-1.452729034E0,-5.285508728E-1,-5.078938293E-1,1.627188930E0
1.452429004E1,-1.892215118E0,-8.771759033E-2,-1.319655762E0,2.308606454E0
1.453423004E1,-1.867217102E0,4.093986511E-1,-1.258433075E0,2.288615469E0
1.454417004E1,-1.638193359E0,8.379574585E-1,-1.189576263E0,2.191105171E0
1.455410904E1,-1.415157166E0,1.185684357E0,-1.278790741E0,2.245845711E0
1.456404904E1,-1.360670471E0,1.646426239E0,-1.185834045E0,2.443019827E0
1.457398904E1,-1.350791016E0,2.205663300E0,-1.013093262E0,2.777758974E0
1.458392904E1,-1.197360077E0,2.509531403E0,-1.304088135E0,3.071166696E0
1.459386904E1,-9.654922485E-1,2.462229767E0,-1.786684570E0,3.191706826E0
1.460380804E1,-7.831713867E-1,2.407892761E0,-1.635498962E0,3.014326098E0
1.461374804E1,-5.746549988E-1,2.522105255E0,-1.030307465E0,2.784380857E0
1.462368804E1,-1.922003174E-1,2.810854797E0,-3.291654968E-1,2.836581671E0
1.463362804E1,6.915618896E-2,3.265908508E0,1.049467621E0,3.431081936E0
1.464356804E1,-2.441423035E-1,4.133803711E0,4.006119232E0,5.761677697E0
1.465350704E1,-1.889221344E0,4.635560303E0,7.021149445E0,8.622883284E0
1.466344704E1,-2.244732056E0,3.351530457E0,7.028334503E0,8.103645124E0
1.467338704E1,-1.499880981E-1,1.277593231E0,5.087021484E0,5.247144793E0
1.468332704E1,2.801723785E0,-1.266366577E-1,2.855312347E0,4.002312034E0
1.469326704E1,3.350482635E0,2.826123047E-1,-1.759441223E0,3.794896181E0
1.470320604E1,3.252137146E0,3.993695068E-1,-3.230881348E0,4.601574329E0
1.471314604E1,7.952662354E0,-1.315314789E0,1.375489655E0,8.177216109E0
1.472308604E1,1.144744492E1,-2.173779602E0,-2.588117981E-1,1.165488294E1
1.473302604E1,1.461381042E1,-2.320624237E0,-3.721560974E0,1.525774453E1
1.474296604E1,2.636332718E1,-4.820276184E0,-2.034269714E0,2.687746892E1
1.475290504E1,3.949626709E1,-7.450007629E0,-3.372486877E0,4.033399801E1
1.476284504E1,5.477230042E1,-1.135314102E1,-3.134182434E0,5.602429654E1
1.477278504E1,6.348418396E1,-1.498294281E1,-2.396666107E0,6.527230804E1
1.478272504E1,5.261603439E1,-1.539548492E1,1.753154297E0,5.485017394E1
1.479266504E1,2.895443893E1,-1.164338745E1,5.458548889E0,3.168159973E1
1.480260404E1,1.730087265E1,-9.419761505E0,2.015558624E0,1.980188319E1
1.481254404E1,1.270602768E1,-7.843988342E0,-7.777825928E-1,1.495246596E1
1.482248404E1,8.435109100E0,-5.640420685E0,-1.901046753E0,1.032372945E1
1.483242404E1,5.127138062E0,-3.443439331E0,-1.847009125E0,6.446414650E0
1.484236404E1,2.469414825E0,-2.141147461E0,-7.086264038E-1,3.344349475E0
1.485230304E1,2.537223816E-1,-1.192270660E0,7.957452393E-1,1.455711118E0
1.486224304E1,-1.402433624E0,-6.475534058E-1,1.848206635E0,2.408736857E0
1.487218304E1,-2.647694092E0,-4.929249573E-1,2.311642914E0,3.549218502E0
1.488212304E1,-3.068169708E0,-2.580633545E-1,2.402354279E0,3.905325612E0
1.489206304E1,-2.672991486E0,3.770658875E-1,2.306254120E0,3.550474649E0
1.490200304E1,-2.567610626E0,1.282832336E0,2.249821472E0,3.646913735E0
1.491194204E1,-2.352058868E0,2.397115173E0,1.932331696E0,3.874564215E0
1.492188204E1,-1.550924835E0,2.903212738E0,6.355783081E-1,3.352308433E0
1.493182204E1,-8.132588196E-1,2.608176270E0,-7.306306458E-1,2.828037217E0
1.494176204E1,-5.945635986E-1,2.368824005E0,-9.862989807E-1,2.633935975E0
1.495170204E1,-3.650907898E-1,2.366129608E0,-7.340734863E-1,2.504141468E0
1.496164104E1,-9.894424438E-2,2.422861633E0,-1.380579071E0,2.790348908E0
1.497158067E1,-8.592132568E-2,2.339185638E0,-2.896776123E0,3.724309846E0
1.498152067E1,-2.520758057E-1,2.370470581E0,-2.718347168E0,3.615533752E0
1.499146067E1,-2.779719543E-1,2.485730896E0,-1.869163055E0,3.122482510E0
1.500140067E1,-6.182144165E-2,2.506986694E0,-7.183561707E-1,2.608608779E0
1.501133967E1,-3.161425781E-1,2.184407501E0,2.499801636E0,3.334754935E0
1.502127967E1,-8.328680420E-1,8.089178467E-1,1.280093033E1,1.285347558E1
1.503121967E1,8.339158630E-1,2.046244812E-1,5.285658417E0,5.354948342E0
1.504115967E1,1.913021851E0,4.834945679E-1,-1.675016785E0,2.588262125E0
1.505109967E1,3.930227051E0,1.029858398E-1,-3.141966248E-1,3.944110834E0
1.506103867E1,5.852978668E0,-3.809577942E-1,-1.089883575E0,5.965763517E0
1.507097867E1,1.281215698E1,-3.106639709E0,3.072211304E0,1.353665613E1
1.508091867E1,2.203747284E1,-6.615493011E0,7.236252136E0,2.412008089E1
1.509085867E1,2.729948044E1,-7.494614868E0,9.036708069E-1,2.832397404E1
1.510079867E1,3.792603241E1,-1.023466690E1,-2.508782959E0,3.936275312E1
1.511073767E1,5.266468323E1,-1.419153854E1,-6.700067139E-1,5.454738797E1
1.512067767E1,5.780304794E1,-1.436532715E1,-3.870950317E0,5.968701058E1
1.513061767E1,4.659121307E1,-8.471483459E0,-6.935078430E-1,4.736019553E1
1.514055767E1,2.840253662E1,-2.062261505E0,3.275039520E0,2.866501165E1
1.515049767E1,1.961476089E1,-1.017883301E-1,1.652713165E0,1.968452861E1
1.516043667E1,1.430066162E1,-3.626957703E-1,-1.634600830E-1,1.430619412E1
1.517037667E1,1.060005707E1,-1.805545349E0,-5.384303284E-1,1.076620226E1
1.518031667E1,7.962841187E0,-3.112776947E0,-1.574725342E-1,8.551082837E0
1.519025667E1,6.087540894E0,-3.832330627E0,1.187031555E-1,7.194372982E0
1.520019667E1,4.196672974E0,-3.712280273E0,1.782792664E-1,5.605789184E0
1.521013567E1,2.581681366E0,-3.012186127E0,4.116439819E-1,3.988457685E0
1.522007567E1,1.648821259E0,-2.153571625E0,6.466552734E-1,2.788305100E0
1.523001567E1,1.251846771E0,-1.352287903E0,5.075944519E-1,1.911401328E0
1.523995567E1,8.655001831E-1,-3.659889221E-1,2.219883728E-1,9.655657905E-1
1.524989567E1,2.713856506E-1,5.890251160E-1,-3.278182983E-2,6.493653879E-1
1.525983467E1,-2.766247559E-1,1.446741486E0,4.939727783E-2,1.473778231E0
1.526977467E1,-6.942562866E-1,2.265688477E0,6.768923950E-1,2.464451131E0
1.527971467E1,-8.976832581E-1,3.005150757E0,1.036295013E0,3.303130887E0
1.528965467E1,-6.313870239E-1,3.092718658E0,-2.815644836E-1,3.169043520E0
1.529959467E1,-9.445358276E-2,2.679128723E0,-2.188149719E0,3.460440924E0
1.530953467E1,3.944297791E-1,2.329455872E0,-2.911894684E0,3.749809350E0
1.531947367E1,5.806425476E-1,2.271526337E0,-2.427501984E0,3.374869412E0
1.532941367E1,3.968247986E-1,2.342029724E0,-1.364562378E0,2.739453163E0
1.533935367E1,-3.535647583E-1,2.794239349E0,8.060737610E-1,2.929596643E0
1.534929367E1,-1.776356049E0,3.223097534E0,4.068090363E0,5.485723081E0
1.535923367E1,-2.771037598E0,2.493963776E0,6.484665070E0,7.479932202E0
1.536917267E1,-2.694396973E0,7.518864441E-1,5.915847931E0,6.543879966E0
1.537911267E1,-1.368005219E0,-1.150357819E0,4.723427582E0,5.050299942E0
1.538905267E1,9.386979675E-1,-3.235671387E0,6.827751617E0,7.613732025E0
1.539899267E1,3.702550507E0,-4.369563446E0,6.560407562E0,8.708668804E0
1.540893267E1,5.269192657E0,-2.989882507E0,3.272195435E-1,6.067195505E0
1.541887167E1,5.154980164E0,-1.130149841E0,-5.296885071E0,7.477168622E0
1.542881167E1,6.943760376E0,-1.405577087E0,-5.745801544E0,9.121715326E0
1.543875167E1,1.121662491E1,-2.322121124E0,-6.188131714E0,1.301913572E1
1.544869167E1,1.924607758E1,-3.828588409E0,-5.700296173E0,2.043435753E1
1.545863167E1,3.368684784E1,-6.316864014E0,-2.850222931E0,3.439229942E1
1.546857067E1,4.466022858E1,-8.814420319E0,-5.981860657E0,4.591309921E1
1.547851067E1,5.840838913E1,-1.166928360E1,-1.288370819E0,5.957660615E1
1.548845067E1,6.634413666E1,-1.090033264E1,2.318633377E1,7.111939113E1
1.549839067E1,4.007331711E1,-7.265890503E0,1.850332214E1,4.473295026E1
1.550833067E1,2.151610703E1,-6.262527008E0,-3.520678711E-1,2.241173929E1
1.551826967E1,1.354563171E1,-6.367009735E0,-3.050057373E0,1.527500578E1
1.552820967E1,1.010578491E1,-7.079677734E0,-1.686542816E0,1.245364012E1
1.553814967E1,6.876550140E0,-7.522906036E0,3.275189209E0,1.070550893E1
1.554808967E1,5.493426361E0,-6.463409271E0,2.433040466E0,8.824572426E0
1.555802967E1,5.286107483E0,-4.408632202E0,-1.369651794E-1,6.884600909E0
1.556796867E1,4.891528015E0,-2.493215332E0,-1.552122345E0,5.705458158E0
1.557790867E1,4.003574524E0,-1.409618683E0,-1.815424805E0,4.616427301E0
1.558784867E1,2.389031982E0,-6.215075684E-1,-1.291065216E0,2.785784425E0
1.559778867E1,6.727011108E-1,1.547781372E-1,-3.942800903E-1,7.949464422E-1
1.560772867E1,-6.876699829E-1,9.047186279E-1,4.695735168E-1,1.229595498E0
1.561766767E1,-1.377435608E0,1.489402771E0,5.827381897E-1,2.110742349E0
1.562760767E1,-1.242266693E0,1.755848694E0,-2.597099304E-1,2.166490346E0
1.563754767E1,-7.943980408E-1,1.691332855E0,-1.340163116E0,2.299502610E0
1.564748767E1,-5.316943359E-1,1.676813049E0,-1.845661926E0,2.549680140E0
1.565742767E1,-3.776646423E-1,1.663341064E0,-2.112407227E0,2.715068760E0
1.566736667E1,-2.683918762E-1,1.863025818E0,-2.137854309E0,2.848389096E0
1.567730667E1,-1.182540894E-1,2.162403259E0,-1.774709473E0,2.799922427E0
1.568724667E1,1.194515991E-1,2.480192413E0,-1.323847046E0,2.813928587E0
1.569718667E1,2.689906311E-1,2.674787750E0,-8.738827515E-1,2.826750171E0
1.570712667E1,2.676434326E-1,2.777025146E0,-3.393443298E-1,2.810454811E0
1.571706667E1,1.067280579E-1,2.749033356E0,2.219883728E-1,2.760046033E0
1.572700567E1,-2.028282166E-1,2.396666107E0,5.221142578E-1,2.461249888E0
1.573694567E1,-6.174659729E-1,1.782642975E0,6.691085815E-1,2.001695905E0
1.574688567E1,-9.472302246E-1,1.071621552E0,9.851014709E-1,1.736675777E0
1.575682567E1,-1.112935638E0,2.168989563E-1,2.491419067E0,2.737305219E0
1.576676567E1,1.371148682E-1,-1.085093536E0,5.627846832E0,5.733139492E0
1.577670467E1,2.453248444E0,-1.076860657E0,3.555556183E0,4.451969965E0
1.578664467E1,3.207978973E0,-6.355783081E-1,-5.665718079E-1,3.319049938E0
1.579658467E1,5.917195129E0,-1.270857239E0,-2.192939758E-1,6.056101565E0
1.580652467E1,1.214753906E1,-2.590363312E0,1.133892059E0,1.247230526E1
1.581646467E1,1.748379227E1,-2.862946472E0,-2.507435760E0,1.789320230E1
1.582640367E1,3.057721436E1,-5.076393585E0,-3.070714417E0,3.114747336E1
1.583634367E1,4.825395538E1,-8.382268982E0,-2.624342651E0,4.904685329E1
1.584628367E1,6.641898102E1,-1.299866913E1,2.294728088E-1,6.767938457E1
1.585622367E1,7.492758728E1,-1.556029221E1,9.247020721E0,7.708289967E1
1.586616367E1,4.322965347E1,-1.062640228E1,1.482711685E1,4.692085633E1
1.587610267E1,1.906690018E1,-6.815477142E0,5.725593567E0,2.104233430E1
1.588604267E1,1.137334900E1,-5.752088470E0,-1.374591522E0,1.281909088E1
1.589598267E1,8.690927124E0,-5.481002197E0,-2.943628693E0,1.068824351E1
1.590592267E1,6.941215668E0,-5.115462341E0,-1.841320953E0,8.816966188E0
1.591586267E1,5.498515778E0,-4.002676392E0,-9.470805359E-1,6.866735439E0
1.592580167E1,4.308640137E0,-2.565065918E0,-6.999444580E-1,5.062989753E0
1.593574167E1,3.418141937E0,-1.316661987E0,-8.249345398E-1,3.754705060E0
1.594568167E1,2.405647430E0,-6.527925110E-1,-1.229243774E0,2.779265709E0
1.595562167E1,9.485774231E-1,-2.974314880E-1,-1.287173309E0,1.626370113E0
1.596556242E1,-5.084925842E-1,1.362167358E-2,-1.682650909E0,1.757857884E0
1.597550142E1,-1.368903351E0,4.354444885E-1,-1.986668701E0,2.451603723E0
1.598544142E1,-1.677112427E0,7.533833313E-1,-1.747466125E0,2.536519347E0
1.599538142E1,-1.665137329E0,9.630972290E-1,-1.705553284E0,2.570826832E0
1.600532142E1,-1.458866272E0,1.180894318E0,-1.621577911E0,2.480386484E0
1.601526142E1,-1.228645020E0,1.443448334E0,-1.275946655E0,2.284983926E0
1.602520042E1,-9.907896423E-1,1.582209778E0,-1.036744080E0,2.135389937E0
1.603514042E1,-5.920188904E-1,1.694775696E0,-7.710466003E-1,1.953781944E0
1.604508042E1,-2.234852600E-1,1.939067688E0,-4.727169800E-1,2.008330277E0
1.605502042E1,5.553451538E-2,2.257305908E0,-2.204914856E-1,2.268728838E0
1.606496042E1,1.110690308E-1,2.467618561E0,-7.349716187E-2,2.471210134E0
1.607490042E1,-1.257385254E-2,2.481240234E0,2.874023438E-2,2.481438535E0
1.608483942E1,-2.540217590E-1,2.162852325E0,2.029779053E-1,2.187157348E0
1.609477942E1,-8.719367981E-1,1.199904785E0,1.234033813E0,1.929477838E0
1.610471942E1,-1.610650635E0,-1.353934479E0,9.512568512E0,9.742499358E0
1.611465942E1,-7.469467163E-1,-3.102897491E0,1.321287369E1,1.359286332E1
1.612459942E1,-1.911524963E-1,-2.366578674E-1,-1.800006866E0,1.825533057E0
1.613453842E1,7.042854309E-1,1.133143616E-1,-3.548371124E0,3.619363998E0
1.614447842E1,2.422861633E0,-1.881587219E-1,-3.126398621E0,3.959801830E0
1.615441842E1,4.200265503E0,-3.495231628E-1,-3.284619598E0,5.343512201E0
1.616435842E1,9.980495453E0,-1.280587006E0,-2.243833923E-1,1.006481696E1
1.617429842E1,1.592388611E1,-1.475032654E0,-3.762126617E0,1.642861731E1
1.618423742E1,2.773866714E1,-2.569406891E0,-5.654940491E0,2.842558458E1
1.619417742E1,5.147031693E1,-8.043673096E0,-3.398682404E0,5.220579703E1
1.620411742E1,7.487220245E1,-1.550864960E1,-5.757028198E-1,7.646369299E1
1.621405742E1,7.306755524E1,-1.781550247E1,2.660552353E1,7.977539495E1
1.622399742E1,3.558026047E1,-1.242850479E1,1.798659668E1,4.176051157E1
1.623393642E1,1.662218399E1,-8.231233063E0,-4.165837097E0,1.901063905E1
1.624387642E1,1.099433716E1,-5.918392639E0,-7.683222656E0,1.466065249E1
1.625381642E1,5.278323669E0,-4.198169861E0,-3.410657501E0,7.557639548E0
1.626375642E1,2.130968628E0,-2.711760864E0,5.249583435E-1,3.488589334E0
1.627369642E1,2.893183594E0,-1.284179535E0,-7.512876892E-1,3.253315475E0
1.628363542E1,3.049009552E0,-4.819976807E-1,-1.456171875E0,3.413095009E0
1.629357542E1,2.446662140E0,1.683998108E-1,-1.405277710E0,2.826538442E0
1.630351542E1,1.078806610E0,4.755610657E-1,-1.591041412E0,1.980251197E0
1.631345542E1,-3.737727356E-1,5.938151550E-1,-1.870659943E0,1.997921699E0
1.632339542E1,-1.405427399E0,7.056326294E-1,-2.255958710E0,2.749998778E0
1.633333442E1,-1.713786163E0,9.795629883E-1,-2.497705994E0,3.183573761E0
1.634327442E1,-1.525028687E0,1.130149841E0,-2.498753815E0,3.137948659E0
1.635321442E1,-1.271006927E0,1.235081635E0,-2.107018433E0,2.753254788E0
1.636315442E1,-9.782157898E-1,1.398392029E0,-1.472188568E0,2.253829092E0
1.637309442E1,-5.921685791E-1,1.610950012E0,-8.400531006E-1,1.910893189E0
1.638303342E1,-5.896238708E-1,2.009271698E0,1.534309387E-1,2.099611897E0
1.639297342E1,-1.085243225E0,2.747087402E0,1.747017059E0,3.431662958E0
1.640291342E1,-1.702559509E0,3.198249207E0,2.552042999E0,4.431752513E0
1.641285342E1,-1.705253906E0,2.975362701E0,2.004930725E0,3.972457841E0
1.642279342E1,-1.536255341E0,2.573149109E0,1.667682037E0,3.429626829E0
1.643273342E1,-1.464105377E0,1.916913757E0,1.364712067E0,2.771389892E0
1.644267242E1,-1.361269226E0,7.098239136E-1,2.534230042E0,2.962975835E0
1.645261242E1,-4.634362793E-1,-1.316212921E0,8.703351288E0,8.814505844E0
1.646255242E1,2.420466614E0,-1.677711182E0,6.620432739E0,7.245930105E0
