Time (s),Acceleration x (m/s^2),Acceleration y (m/s^2),Acceleration z (m/s^2),Absolute acceleration (m/s^2)
24.85017837,-0.8719367981,-0.008681945801,5.350024567,5.420619155
24.86011738,-0.5387297058,0.1317260742,5.173691254,5.203331879
24.87005638,-0.4339476013,0.359103241,5.226681061,5.256944033
24.87999537,-0.1670526123,0.420176239,5.315596161,5.334793079
24.88993538,-0.4755610657,0.03053649902,5.415588226,5.4365142
24.89987437,-0.679586792,0.08187973022,5.743705902,5.784349573
24.90981338,-1.145118713,0.1519340515,6.235882416,6.341972117
24.91975337,-1.564546509,0.3573069763,6.591243439,6.783801598
24.92969238,-2.006128235,0.4870870972,6.795418854,7.102078691
24.93963137,-2.309247894,0.3700305176,7.283703461,7.649959773
24.94957037,-2.570754089,0.5087919617,7.6149646,8.053280804
24.95951037,-2.751727753,0.7173083496,7.893684998,8.390280075
24.96944937,-2.927312622,0.7846682739,8.350385284,8.883343846
24.97938838,-3.245700531,0.9116043091,8.687633972,9.318829239
24.98932737,-3.538192291,1.016087036,9.058562622,9.777974961
24.99926738,-3.739972687,1.050066376,9.468110962,10.23401975
25.00920637,-4.05671402,1.086889801,9.938881989,10.78979301
25.01914538,-4.227059784,1.137783966,10.54482193,11.41734892
25.02908537,-4.362378387,1.097368011,11.0866951,11.96450458
25.03902438,-4.261637878,0.7430548096,11.63111298,12.4095317
25.04896338,-4.253704376,-0.0005987548828,11.80804504,12.55085372
25.05890237,-4.137695618,-0.929866333,11.75340866,12.49511071
25.06884238,-3.876189423,-1.776505737,11.73679321,12.48731885
25.07878137,-3.690276031,-2.321522369,11.41735748,12.22144244
25.08872038,-3.251089325,-1.739532623,11.0602002,11.65862702
25.09865938,-3.081641693,-0.8431965637,11.00691101,11.46122096
25.10859938,-3.152145081,-0.02035766602,11.37574402,11.80440532
25.11853838,-3.593577118,0.3252735901,12.13885712,12.66378504
25.12847737,-4.1339534,0.02020797729,13.11557602,13.75166584
25.13841638,-4.629872131,-0.7087760925,14.00337982,14.76593126
25.14835637,-4.342320099,-1.632505188,14.29347656,15.02745119
25.15829538,-2.82926651,-2.538121948,14.51411774,15.0035471
25.16823438,-0.01242416382,-4.039799194,14.07987076,14.64796547
25.17817438,3.605402527,-4.747826843,11.82301392,13.24101375
25.18811338,6.000422058,-5.189258881,11.83154617,14.24496253
25.19805237,6.438111877,-4.25909317,13.23143509,15.31861723
25.20799138,5.823340302,-2.664459229,13.26945602,14.73394375
25.21793137,3.592529297,-0.9976753235,12.84493881,13.375129
25.22787038,1.552571411,-0.01032852173,12.92427383,13.01719781
25.23780938,0.7864645386,0.3378474426,13.2260463,13.25371525
25.24774837,0.8003855896,-0.05703140259,12.77308823,12.79826756
25.25768838,0.539178772,-0.819994812,11.62707138,11.66841438
25.26762737,0.1895059204,-1.471589813,11.13294891,11.23138641
25.27756638,-0.2520758057,-2.117496643,10.68612808,10.89681915
25.28750537,-0.7113208008,-2.812950439,10.39378601,10.79117487
25.29744538,-0.7442523193,-2.823578339,9.91059082,10.3318109
25.30738438,-0.7993377686,-2.830613708,9.834848328,10.26525969
25.31732337,-0.8422984314,-2.740800476,9.534273376,9.956094752
25.32726338,-0.946481781,-2.526146851,9.187743988,9.575587985
25.33720237,-1.207987976,-2.485880585,8.852590942,9.274006881
25.34714138,-1.131946106,-2.249222717,8.280780029,8.655150069
25.35708037,-1.57607254,-2.175575867,7.594008179,8.055190576
25.36702038,-1.89206543,-2.008672943,7.183262329,7.695059212
25.37695937,-1.781295776,-1.658401337,6.999743958,7.410784379
25.38689837,-1.659000092,-1.296004944,6.757846985,7.078164027
25.39683738,-1.341210938,-1.034498749,6.561904449,6.776992286
25.40677737,-1.217568054,-0.8704399109,6.414610748,6.586908885
25.41671638,-0.850531311,-0.7890092468,6.39335495,6.497763201
25.42665537,-0.6105802917,-0.7250921631,6.458619232,6.527811986
25.43659538,-0.5351371765,-0.8358618164,6.612648926,6.686715381
25.44653437,-0.6048921204,-0.9859996033,6.952891388,7.048459998
25.45647338,-0.8400531006,-1.128203888,7.328909454,7.462670234
25.46641238,-1.160386963,-1.222956848,7.709268494,7.8914474
25.47635238,-1.566342773,-1.25783432,7.998616791,8.247026581
25.48629138,-1.826352081,-1.252744904,8.124804382,8.421245631
25.49623037,-2.070494385,-1.223705292,8.233628082,8.577705581
25.50616938,-2.274071045,-1.362915802,8.110583954,8.532907516
25.51610937,-2.179617462,-1.406325531,8.113577728,8.518135203
25.52604838,-2.197879486,-1.375489655,8.036338348,8.444251303
25.53598738,-2.282752991,-1.314716034,7.882608032,8.311134029
25.54592637,-2.448907471,-1.281335449,7.886499939,8.356784646
25.55586638,-2.785407715,-1.425335999,7.997119904,8.587433004
25.56580537,-3.05155426,-1.607806549,8.272098083,8.962401018
25.57574438,-3.331472168,-1.74102951,8.721014557,9.496630216
25.58568437,-3.582051086,-1.894909515,9.223669281,10.07461399
25.59562338,-3.800596619,-2.082918549,9.548194427,10.48575706
25.60556238,-4.024381256,-2.130220184,9.958341522,10.94997938
25.61550137,-4.166136475,-1.929337921,10.30457153,11.28110067
25.62544138,-4.354444885,-1.628613281,10.31789383,11.31691232
25.63538037,-4.411775665,-1.495240631,10.10189301,11.12419666
25.64531938,-4.246369629,-1.397643585,9.810598755,10.78113679
25.65525838,-4.165837097,-1.560654602,9.698032837,10.66966178
25.66519838,-4.223167877,-1.889221344,10.3208876,11.31039456
25.67513738,-4.498744812,-1.924098816,11.72556656,12.70550165
25.68507637,-4.70606369,-1.853595428,13.10015808,14.04268469
25.69501638,-4.117936707,-1.608704681,14.58402237,15.23939113
25.70495537,-2.907553711,-1.202449493,16.06549164,16.37069867
25.71489438,-0.8894503784,-0.9117539978,16.96212708,17.00988455
25.72483337,2.487676849,-0.8270301819,16.71409286,16.91843419
25.73477338,6.982080688,-1.201850739,14.45319443,16.09623326
25.74471287,7.918832703,-2.095791779,13.38067474,15.68893595
25.75465188,6.865622864,-3.48804657,15.11436951,16.96311916
25.76459088,4.615202637,-3.660487976,14.91722946,16.03817329
25.77453088,1.025517426,-2.659070435,13.79336655,14.08471875
25.78446988,-0.4373904419,-1.600471802,13.51210144,13.61358534
25.79440887,-0.4158352661,-0.8129594421,12.23226288,12.26629843
25.80434888,-0.4652325439,-0.3284170532,10.8425528,10.85749742
25.81428787,-0.5526507568,0.001347198486,9.97375946,9.989059137
25.82422688,-0.2284249878,-0.01930984497,9.769134979,9.771824246
25.83416588,-0.4453239441,-0.2650987244,9.447902985,9.462106613
25.84410588,-0.5635780334,-0.2921923828,9.001082153,9.023440393
25.85404488,-0.1525328064,-0.527353363,8.751850433,8.769050908
25.86398387,0.2709365845,-0.8949888611,8.716972961,8.766985189
25.87392288,0.04370910645,-0.8506809998,8.238717499,8.282634525
25.88386287,0.103434906,-0.9292675781,8.032147064,8.086385068
25.89380188,-0.4168830872,-0.8610095215,7.524402924,7.584969892
25.90374088,-0.8655001831,-0.5319937134,6.714137878,6.790563697
25.91368088,-1.181044006,-0.3683839417,6.089786224,6.214182805
25.92361988,-1.20873642,-0.3230282593,5.727838898,5.862894288
25.93355887,-1.126257935,-0.2151026917,5.380112,5.500939123
25.94349788,-0.6462062073,0.08487350464,5.070256348,5.111974707
25.95343787,-0.5221142578,0.1257385254,5.281467133,5.308701211
25.96337688,-0.475411377,0.1387614441,5.685177612,5.706707913
25.97331588,-0.5113366699,0.07679031372,5.50989212,5.534100932
25.98325487,-0.7937992859,0.06062393188,5.661227417,5.716929983
25.99319488,-1.457818451,-0.05074447632,6.045178986,6.21868142
26.00313387,-1.763782196,0.02799179077,6.602619781,6.834200696
26.01307288,-2.012864227,0.07798782349,7.124584351,7.403877813
26.02301287,-2.337389374,-0.05733078003,7.741152191,8.086539009
26.03295188,-2.365830231,-0.07214996338,8.32044754,8.650560997
26.04289087,-2.555336151,-0.3357518005,8.610544281,8.987988926
26.05282987,-2.830613708,-0.2263293457,8.760682068,9.209405477
26.06276987,-2.745740204,-0.106129303,8.981772308,9.392687927
26.07270887,-2.785856781,-0.1857637024,9.310189362,9.719831897
26.08264788,-2.899769897,-0.1730401611,9.564211121,9.995636184
26.09258787,-3.162922668,0.1005908203,9.638905792,10.14508271
26.10252688,-3.529959412,0.1332229614,9.881102142,10.49354761
26.11246587,-3.856131134,0.3493734741,10.02300705,10.74488155
26.12240488,-3.996688843,0.4782554626,10.33106644,11.08752379
26.13234487,-3.903283081,0.6129753113,10.58643539,11.29973327
26.14228388,-3.730093231,0.4537065125,10.70918015,11.34927242
26.15222288,-3.528911591,-0.08008346558,10.83132614,11.39198211
26.16216187,-3.288212128,-0.9204359436,10.72534653,11.25578071
26.17210188,-3.035537567,-1.30932724,10.68208649,11.1819407
26.18204087,-2.881208496,-1.366059265,10.84524719,11.30428534
26.19197988,-2.896327057,-1.383872223,10.83881058,11.30414205
26.20191888,-2.945424957,-1.105002136,10.97712296,11.41900986
26.21185888,-3.052602081,-0.7571255493,11.40373581,11.82948896
26.22179788,-3.444487152,-0.679586792,12.11326035,12.61179631
26.23173687,-3.936963043,-1.121168518,13.1224617,13.74611574
26.24167688,-4.22167099,-2.155966644,13.92224854,14.707131
26.25161587,-3.847000122,-3.318898315,14.45199692,15.31909628
26.26155488,-2.202968903,-3.907174988,15.21675659,15.86407166
26.27149388,0.2276765442,-3.955374756,14.40738968,14.94221213
26.28143388,4.334985352,-4.140240326,12.81844391,14.15083716
26.29137288,6.726412354,-4.162094879,13.4874028,15.6357824
26.30131187,7.293732605,-2.601589966,14.89208176,16.7851394
26.31125188,6.523135071,-0.9548643494,14.04783737,15.51788619
26.32119087,3.662733307,0.2245330811,13.6905304,14.17380164
26.33112988,1.700912933,0.8385562134,13.47662521,13.6093978
26.34106888,1.339414673,0.4912783813,12.94792465,13.02628646
26.35100888,1.132095795,-0.4778063965,11.65162033,11.71623643
26.36094788,0.5526507568,-1.20289856,10.26026367,10.34530804
26.37088687,-0.02933898926,-1.660197601,9.504185944,9.648143205
26.38082588,-0.6045927429,-2.070494385,9.352251892,9.597765096
26.39076587,-0.7056326294,-2.283052368,9.189540253,9.495151161
26.40070488,-0.5791456604,-2.32032486,8.971144409,9.284435856
26.41064388,-0.6113287354,-2.394121399,9.206155701,9.531990499
26.42058287,-0.1489402771,-2.454296265,9.142537994,9.467404837
26.43052288,-0.2871029663,-2.38229599,8.767567749,9.089994859
26.44046187,-0.6277944946,-2.269879761,8.395142212,8.719225471
26.45040088,-1.152303772,-2.324665833,7.665409698,8.092612746
26.46034087,-1.867666168,-2.081122284,7.707771606,8.199328632
26.47027988,-2.368973694,-1.752854919,7.429649963,7.992761432
26.48021887,-2.573747864,-1.372346191,6.894363098,7.485970523
26.49015787,-2.506687317,-0.9014254761,6.374943237,6.909120818
26.50009787,-2.362237701,-0.6201603699,6.332132263,6.786800781
26.51003687,-2.114951935,-0.5090913391,6.41670639,6.77542003
26.51997588,-1.791773987,-0.4787045288,6.156846771,6.430114634
26.52991487,-1.560654602,-0.5846841431,6.122418365,6.345195425
26.53985488,-1.35378479,-0.7291337585,6.166127472,6.354958481
26.54979387,-1.356778564,-0.8918453979,6.342909851,6.547422521
26.55973288,-1.466500397,-1.062191162,6.743327179,6.982215617
26.56967287,-1.669627991,-1.285676422,7.106771393,7.412612301
26.57961188,-1.886976013,-1.461111603,7.415579224,7.790143825
26.58955088,-2.142943726,-1.567989349,7.658823395,8.106070207
26.59948987,-2.322420502,-1.687740326,7.878416748,8.385198558
26.60942988,-2.449506226,-1.807191925,8.007298737,8.566379425
26.61936887,-2.607427826,-1.921703796,8.15085022,8.770859972
26.62930788,-2.656825104,-1.897603912,8.155340881,8.784600454
26.63924787,-2.761307831,-2.011517029,8.1882724,8.872363078
26.64918688,-2.884651337,-2.046693878,8.377329254,9.093394009
26.65912588,-3.029699707,-2.158361664,8.522377625,9.298845399
26.66906487,-3.186723175,-2.341880035,8.915460205,9.753206517
26.67900488,-3.326981506,-2.513722687,9.303153992,10.19491451
26.68894387,-3.420986023,-2.574945374,9.697883148,10.60105781
26.69888288,-3.395089874,-2.081421661,10.25203079,10.998322
26.70882188,-3.596570892,-1.437610474,10.69630692,11.37598469
26.71876188,-3.835324402,-0.6535409546,10.74046509,11.4234154
26.72870088,-3.90103775,-0.3188369751,10.7708519,11.45997396
26.73863987,-3.774850159,-0.6885681152,11.05241638,11.69955246
26.7485795,-3.548520813,-1.573378143,11.13743958,11.79449359
26.7585185,-3.598367157,-2.538421326,11.75310928,12.55099227
26.7684575,-3.681444397,-2.761607208,12.63761993,13.44949608
26.7783965,-3.672463074,-2.778522034,13.96490982,14.70462091
26.7883365,-2.842588806,-2.454146576,15.73078766,16.17284226
26.7982755,-1.732197876,-1.594334564,16.50961807,16.67662739
26.8082145,0.08128097534,-0.730480957,15.90622284,15.92319484
26.8181545,2.895279236,-0.5616320801,14.48777252,14.78491208
26.8280935,5.221142578,-1.056802368,12.9419371,13.99538842
26.8380325,5.230572968,-2.245330811,13.09027863,14.27430554
26.8479715,5.442681885,-2.778671722,13.4794693,14.79999646
26.8579115,3.06682251,-2.637814636,12.38763977,13.03138847
26.8678505,0.6973997498,-1.581012268,12.13616272,12.25856483
26.8777895,-0.1510359192,-0.9892927551,12.2505249,12.29133322
26.8877285,-0.3186872864,-0.3737727356,11.40014328,11.41072015
26.8976685,-0.442180481,-0.1529818726,10.63882645,10.64911054
26.9076075,-0.6700067139,-0.2164498901,10.5651796,10.58861556
26.9175465,-0.8405021667,-0.3592529297,10.57116714,10.61061173
26.9274865,-0.9297166443,-0.5914201355,10.42237656,10.48046201
26.9374255,-0.7652087402,-0.8731343079,9.983040161,10.05032332
26.9473645,-0.2891986084,-1.013692017,9.374256134,9.433339038
26.9573035,-0.02814147949,-1.19227066,9.235644379,9.312326689
26.9672435,-0.07110214233,-1.085392914,8.690328369,8.758135672
26.9771825,-0.3802093506,-1.043480072,8.0993573,8.175145166
26.9871215,-0.872535553,-0.7813751221,7.433092804,7.524807905
26.9970605,-1.232985992,-0.5037025452,6.739435272,6.869785914
27.0070005,-1.252445526,-0.4613406372,5.921386414,6.069948273
27.0169395,-1.221010895,-0.4171824646,5.882167969,6.02202697
27.0268785,-0.9385482788,-0.1398092651,5.741310883,5.819198412
27.0368185,-0.7430548096,0.100740509,5.648653564,5.698207279
27.0467575,-0.6788383484,0.1082249451,5.849086761,5.889342076
27.0566965,-0.65758255,0.1112187195,6.000571747,6.03751983
27.0666355,-0.7788304138,0.1541793823,6.120322723,6.171604195
27.0765755,-1.030906219,0.1303788757,6.690037994,6.770256616
27.0865145,-1.224304047,0.05433700562,7.166347504,7.270378907
27.0964535,-1.434317322,-0.06376739502,7.838150482,7.968559182
27.1063935,-1.663041687,-0.1130149841,8.370144196,8.534506072
27.1163325,-1.933229828,-0.2552192688,8.548872528,8.768451171
27.1262715,-2.217638397,-0.2564167786,8.663384399,8.946390271
27.1362105,-2.362686768,-0.190254364,8.792565765,9.106464639
27.1461505,-2.55428833,0.0245489502,8.758736115,9.123620435
27.1560895,-2.542313232,-0.1068777466,8.706195374,9.07042542
27.1660285,-2.679428101,-0.05179229736,8.471034393,8.884843335
27.1759685,-2.746638336,0.1390608215,8.413553925,8.851624128
27.1859075,-2.901266785,0.2951861572,8.512797546,8.99845575
27.1958465,-3.19899765,0.2761756897,8.672066345,9.247410106
27.2057855,-3.458408203,0.3359014893,9.080566864,9.722659702
27.2157255,-3.644620972,0.443228302,9.673633575,10.34692708
27.2256645,-3.810476074,0.4366419983,10.41174866,11.09571513
27.2356035,-3.76886261,0.412691803,10.96155533,11.59872127
27.2455425,-3.764671326,0.1657054138,11.28218857,11.89487231
27.2554825,-3.844305725,-0.2785707092,11.38846756,12.02303961
27.2654215,-3.881578217,-0.8388555908,11.01918549,11.71293204
27.2753605,-3.73488327,-1.007105713,10.59661423,11.28059609
27.2853005,-3.415148163,-0.6237528992,10.22463776,10.79794063
27.2952395,-3.245101776,-0.1853146362,10.07449997,10.58586684
27.3051785,-3.652554474,-0.107177124,10.32073792,10.94852831
27.3151175,-4.709207153,-0.4360432434,11.31616791,12.26468189
27.3250575,-5.699248352,-0.8896000671,12.36773117,13.64674299
27.3349965,-6.227649536,-1.432521057,12.7880571,14.29580847
27.3449355,-5.702541504,-1.837878113,13.09282333,14.39856932
27.3548755,-4.330345001,-2.422711945,13.703703,14.57439182
27.3648145,-2.265987854,-3.404370575,13.78438522,14.37823758
27.3747535,0.2146536255,-4.790787506,12.94582901,13.80551375
27.3846925,3.178041229,-5.447322235,11.3984967,13.02685659
27.3946325,6.096522217,-5.406008148,11.22276215,13.86877419
27.4045715,7.628735962,-5.211712189,13.45776443,16.32393886
27.4145105,7.06964859,-3.67755249,14.67608093,16.70005015
27.4244495,4.921166382,-2.361638947,14.90360779,15.87175927
27.4343895,2.606529694,-1.272503815,14.87576569,15.15591197
27.4443285,0.9295669556,-0.6170169067,14.69853424,14.74081794
27.4542675,0.2118095398,-1.05889801,14.362034,14.40257438
27.4642075,-0.06915618896,-1.602866821,13.62571518,13.71984252
27.4741465,-0.3918850708,-2.180066528,12.10308151,12.30409875
27.4840855,-0.5867797852,-2.770588531,10.73597443,11.10322558
27.4940245,-0.9868977356,-2.776127014,9.714797974,10.15175591
27.5039645,-1.227597198,-2.841990051,8.979826355,9.498483231
27.5139035,-1.229692841,-2.686164093,8.499624939,8.99840242
27.5238425,-1.178648987,-2.534978485,8.171507263,8.636484256
27.5337825,-0.9816586304,-2.341131592,7.954308929,8.349585699
27.5437215,-0.8205935669,-2.263742523,7.565866699,7.939788594
27.5536605,-0.7345225525,-2.323468323,7.31888031,7.713886013
27.5635995,-0.5691165161,-2.035467224,6.897805939,7.214343158
27.5735395,-0.7744894409,-1.890418854,6.508166199,6.82127148
27.5834785,-0.9289682007,-1.782942352,6.491700439,6.795884044
27.5934175,-1.10694809,-1.439855804,6.491700439,6.740971251
27.6033565,-1.246757355,-1.143322449,6.269113312,6.493332876
27.6132965,-1.418300629,-0.767454071,6.31491806,6.517572595
27.6232355,-1.623374176,-0.5674699402,6.364015961,6.592273128
27.6331745,-1.800306244,-0.4793032837,6.435118103,6.699371553
27.6431145,-1.901046753,-0.2574645996,6.656956787,6.927866948
27.6530535,-1.996398468,-0.1748364258,6.764882355,7.055480699
27.6629925,-2.058369598,-0.2938389587,7.017706604,7.31925083
27.6729315,-2.072889404,-0.5478607178,7.346872101,7.653335973
27.6828715,-2.185904388,-0.628692627,7.555388489,7.890331275
27.6928105,-2.400408325,-0.6929090881,7.74249939,8.135624127
27.7027495,-2.653232574,-0.7770341492,8.023914185,8.486850064
27.7126895,-2.763253784,-0.7276368713,8.183931427,8.66843472
27.7226285,-3.00949173,-0.7737409973,8.239465942,8.805936328
27.7325675,-3.234773254,-0.6819818115,8.373587036,9.002545032
27.7425065,-3.372037811,-0.6562353516,8.43286377,9.105738586
27.75244654,-3.68458786,-0.8038284302,8.494236145,9.293781552
27.76238554,-3.769611053,-0.9997709656,8.549620972,9.397102119
27.77232454,-3.72440506,-1.201850739,8.808881836,9.639089036
27.78226454,-3.777544556,-1.458866272,9.301806793,10.1450354
27.79220354,-3.788322144,-1.749561768,9.605824585,10.4730233
27.80214254,-3.809577942,-2.033970337,9.862540741,10.76659785
27.81208154,-3.942202148,-2.349663849,10.27119095,11.24985518
27.82202154,-4.003275146,-2.439776459,10.33795212,11.35129839
27.83196054,-4.03216507,-2.388582916,10.46623535,11.46759634
27.84189954,-4.118236084,-2.471510468,10.53778656,11.58072442
27.85183954,-3.916605377,-2.834056549,10.70813232,11.74886259
27.86177854,-3.588338013,-3.042123871,11.38248001,12.31631189
27.87171754,-3.256478119,-3.083737335,12.83461029,13.59563559
27.88165654,-2.495909729,-2.993624725,14.39601334,14.91430704
27.89159654,-1.614243164,-2.478845215,15.36449936,15.64667042
27.90153554,-0.8181985474,-2.115850067,16.28852783,16.44574137
27.91147454,2.36702774,-2.336191864,15.289655,15.64717747
27.92141454,5.087769928,-2.258503418,13.08593765,14.22068932
27.93135354,5.286706238,-2.985242157,12.57490036,13.96384806
27.94129254,4.689448242,-4.048331451,12.81679733,14.2355262
27.95123154,2.460283813,-4.54694458,12.01027451,13.07571777
27.96117154,0.4302053833,-3.8472995,10.97637451,11.63905441
27.97111054,-0.1911524963,-3.004402313,10.31654663,10.74681846
27.98104954,-0.08128097534,-2.031874695,9.700577545,9.911424019
27.99098954,0.1598675537,-1.244362335,9.328301697,9.412290253
28.00092854,-0.1282832336,-0.8093669128,9.148675232,9.185302928
28.01086754,-0.4918771362,-0.4722679138,9.434880066,9.459489519
28.02080654,-1.015338593,-0.3341052246,10.21505768,10.27082967
28.03074654,-1.601669312,-0.3646417236,10.7721991,10.89672343
28.04068554,-1.792971497,-0.5516029358,11.04238724,11.20059501
28.05062454,-1.594184875,-0.9526190186,10.86665268,11.02420287
28.06056454,-1.15365097,-1.272204437,10.59900925,10.73724414
28.07050354,-0.6623725891,-1.439107361,10.13437546,10.25745258
28.08044254,-0.6619235229,-1.341360626,9.740843811,9.855020509
28.09038154,-0.905766449,-1.011895752,9.198970642,9.298677688
28.10032154,-1.236279144,-0.6390211487,8.619525604,8.731148595
28.11026054,-1.31980545,-0.4273612976,8.178243256,8.295070033
28.12019954,-1.257684631,-0.3451821899,7.75881546,7.867664121
28.13013954,-1.008752289,-0.2306703186,7.43593689,7.50759265
28.14007854,-0.606688385,-0.1080752563,7.285200348,7.311217078
28.15001754,-0.23635849,0.08217910767,7.002288666,7.006758544
28.15995654,-0.02110610962,0.1529818726,6.736890564,6.738660356
28.16989654,0.1110690308,0.1047821045,6.77595932,6.777679568
28.17983554,-0.02035766602,-0.01571731567,6.890770569,6.890818565
28.18977454,-0.1716929626,0.03188369751,6.987469482,6.989651265
28.19971454,-0.5736071777,-0.01796264648,7.122488708,7.145571583
28.20965354,-1.054856415,-0.2514770508,7.163653107,7.245266634
28.21959254,-1.330732727,-0.2543211365,7.124434662,7.252109906
28.22953154,-1.681303711,-0.05478607178,6.994953918,7.194384199
28.23947154,-1.851649475,0.04131408691,6.997348938,7.238315052
28.24941054,-2.107168121,0.1466949463,7.173981628,7.478481751
28.25934954,-2.216590576,0.1369651794,7.186405792,7.52173261
28.26928954,-2.333347778,0.1692979431,7.134763184,7.508529772
28.27922854,-2.684367828,0.3215313721,7.030579834,7.532480724
28.28916754,-2.824476471,0.4180805969,7.209158478,7.753994111
28.29910654,-3.199596405,0.3766168213,7.66645752,8.315878083
28.30904654,-3.474125519,0.2662962341,8.389004974,9.083824429
28.31898554,-3.954177246,0.3324586487,9.12547348,9.95089507
28.32892454,-4.284540253,0.496816864,9.865534515,10.76721336
28.33886354,-4.515959015,0.505947876,10.48898804,11.43104278
28.34880354,-4.776118011,0.3969744873,11.27171036,12.24827932
28.35874254,-4.976251831,0.02769241333,11.70805298,12.72172762
28.36868154,-5.100194092,-0.4604425049,11.68934189,12.76184551
28.37862154,-5.098248138,-0.8830137634,11.40104141,12.52020737
28.38856054,-4.72597229,-0.868793335,11.07846222,12.0756756
28.39849954,-4.312382355,-0.7307803345,11.09432922,11.92538563
28.40843954,-4.154311066,-0.7125183105,11.43546982,12.18753268
28.41837854,-4.58092392,-1.027912445,12.0554805,12.9373907
28.42831754,-5.18117569,-1.798809357,12.85047729,13.97193842
28.43825654,-5.539680176,-2.853216705,13.65819763,15.01250361
28.44819654,-5.179828491,-3.779789886,14.61904953,15.96352229
28.45813554,-3.642675018,-4.650379486,15.14430725,16.25561911
28.46807454,-0.2966830444,-5.070106659,14.08256516,14.97039224
28.47801454,4.652924194,-5.377866669,11.63036453,13.63218737
28.48795354,8.219108276,-4.961732025,13.17874466,16.30496355
28.49789254,8.831933899,-3.197650452,15.31270706,17.96404805
28.50783154,7.281009064,-1.409618683,14.94522125,16.68411688
28.51777154,4.75171875,-0.1496887207,14.32296524,15.09134093
28.52771054,2.117047577,0.1410067749,14.2916803,14.44831821
28.53764954,0.9000782776,-0.5453160095,14.25785065,14.29663651
28.54758954,0.6505471802,-1.708996124,13.41375595,13.53782583
28.55752854,0.1733395386,-2.461181946,11.79053146,12.04591613
28.56746754,-0.2192939758,-2.801424408,10.68253555,11.04593293
28.57740654,-0.7379653931,-3.07026535,9.857601013,10.35101058
28.58734654,-1.088835754,-3.44478653,9.348509674,10.02231264
28.59728554,-0.9493258667,-3.52666626,8.873996429,9.596166273
28.60722454,-0.8000862122,-3.31365921,8.863069153,9.496023911
28.61716454,-0.4773573303,-2.952460327,8.859476624,9.350680085
28.62710354,-0.2236349487,-2.673739929,8.696315918,9.100813609
28.63704254,-0.3948788452,-2.622696075,8.174950104,8.594432687
28.64698154,-0.6747967529,-2.451452179,7.626790009,8.039458581
28.65692154,-1.477277985,-2.476150818,7.094347229,7.657900216
28.66686054,-1.698517914,-2.22781723,6.998396759,7.538281629
28.67679954,-2.031126251,-1.715432739,6.842271423,7.340630869
28.68673954,-2.088307343,-1.151106262,6.634653168,7.050155732
28.69667854,-2.086062012,-0.7420069885,6.468049622,6.836511903
28.70661754,-1.914668427,-0.3170407104,6.128705292,6.428646712
28.71655654,-1.650318146,-0.07978408813,6.001020813,6.224320548
28.72649654,-1.514700165,-0.0592767334,6.099216614,6.2847652
28.73643554,-1.303788757,-0.2163002014,6.132896576,6.273680842
28.746375,-1.150657196,-0.6099815369,6.21552475,6.350498986
28.756315,-1.12206665,-0.6774911499,6.632557526,6.760831839
28.766254,-1.410217438,-0.8177494812,6.974596252,7.16257079
28.776193,-1.739981689,-0.9753717041,7.264692993,7.533568247
28.786132,-2.063009949,-1.233884125,7.605683899,7.976522278
28.796072,-2.346370697,-1.27894043,7.823331299,8.2671432
28.806011,-2.711611176,-1.444346466,7.76824585,8.353718661
28.81595,-3.046165466,-1.695374451,8.036937103,8.760466687
28.82589,-3.051853638,-1.610201569,8.048612823,8.757095871
28.835829,-3.132535858,-1.664239197,8.051456909,8.798206145
28.845768,-3.214565277,-1.619033203,8.205636292,8.960310563
28.855707,-3.158581696,-1.788480835,8.436905365,9.184588949
28.865647,-3.225642242,-2.044747925,8.826694794,9.617499828
28.875586,-3.28446991,-2.381547546,9.419312439,10.25587432
28.885525,-3.284320221,-2.60817627,9.856104126,10.71130857
28.895465,-3.291205902,-2.656226349,10.29768585,11.13238108
28.905404,-3.339106293,-2.399659882,10.8398584,11.59355547
28.915343,-3.50436264,-1.916165314,11.34565659,12.02814077
28.925283,-3.807033234,-1.764979706,11.44130768,12.18655722
28.935222,-3.926185455,-1.891915741,11.2724588,12.0856363
28.945161,-3.653153229,-2.390977936,10.85213287,11.69748229
28.9551,-3.3522789,-2.794239349,10.69331314,11.5495668
28.96504,-3.236120453,-3.173400879,11.21497833,12.09622618
28.974979,-3.363206177,-3.342399445,12.21684494,13.10473541
28.984918,-3.195255432,-3.251239014,13.55865463,14.30445133
28.994858,-2.368075562,-2.893932037,14.33509003,14.81477069
29.004797,-0.9687854004,-1.842817841,15.28636185,15.42748785
29.014736,0.8002359009,-1.272803192,15.4197345,15.49285698
29.024675,2.802472229,-0.7080276489,13.97868118,14.27440652
29.034615,4.592449951,-0.936302948,12.38689133,13.24395472
29.044554,5.159919891,-2.192041626,12.31983078,13.53543683
29.054493,4.598587189,-3.068618774,12.64749939,13.80299482
29.064433,2.530038757,-2.731819153,11.88259003,12.45230411
29.074372,0.5269042969,-1.881736908,11.84187469,12.00202309
29.084311,-0.02140548706,-1.20753891,11.61719193,11.67980122
29.09425,-0.2460882568,-0.7167095947,10.97876953,11.00489039
29.10419,-0.4914280701,-0.3779640198,10.62101349,10.63909234
29.114129,-0.6432124329,-0.2577639771,10.6819368,10.70438874
29.124068,-0.8081694031,-0.2528242493,10.8543782,10.88735891
29.134008,-1.076411591,-0.3914360046,10.81830322,10.87876687
29.143947,-0.7235952759,-0.7586224365,10.61203217,10.66369189
29.153886,-0.3513194275,-1.108744354,10.03138962,10.09858985
29.163826,-0.4219725037,-1.363514557,9.639504547,9.744602642
29.173765,-0.4799020386,-1.338366852,9.206155701,9.3153011
29.183704,-0.8363108826,-1.150806885,8.593629456,8.710582047
29.193643,-1.356329498,-0.9229806519,8.019124146,8.185222969
29.203583,-1.634151764,-0.6020480347,7.225923615,7.432824894
29.213522,-1.56439682,-0.3179388428,6.463259583,6.657488036
29.223461,-1.296903076,-0.2496807861,6.346652069,6.482614486
29.233401,-1.12565918,-0.2671943665,5.751938782,5.867137391
29.24334,-0.7788304138,-0.1077758789,5.893244934,5.945462834
29.253279,-0.4706213379,0.09430389404,5.949677582,5.969006701
29.263218,-0.3459306335,0.05179229736,5.845643921,5.856099666
29.273158,-0.6215075684,0.1396595764,6.112239532,6.145343648
29.283097,-0.7316784668,0.3025209045,6.321504364,6.370893948
29.293036,-1.085991669,0.246537323,6.796017609,6.886654768
29.302976,-1.654958496,0.173638916,6.903943176,7.101652588
29.312915,-1.920655975,0.266894989,7.368277588,7.61916445
29.322854,-2.228415985,0.3101550293,7.636220398,7.960772319
29.332793,-2.333497467,0.3549119568,7.70852005,8.06178977
29.342733,-2.47704895,0.256716156,7.777676239,8.166634703
29.352672,-2.508034515,0.08921447754,7.909102936,8.297716891
29.362611,-2.61745697,-0.1209484863,7.878716125,8.303004114
29.372551,-2.628234558,-0.1917512512,7.847580872,8.27821907
29.38249,-2.789598999,-0.2480342102,8.151299286,8.618994349
29.392429,-2.921474762,-0.2026785278,8.484207001,8.975403155
29.402369,-3.04227356,-0.1050814819,8.850944366,9.359790954
29.412308,-3.202141113,-0.008981323242,9.557774506,10.07992271
29.422247,-3.451971588,-0.05284011841,10.31759445,10.87987386
29.432186,-3.670666809,-0.2002835083,11.01065323,11.60811754
29.442126,-3.987557831,-0.5647755432,11.33128647,12.02570754
29.452065,-4.21703064,-1.159189453,11.25314896,12.07312839
29.462004,-4.368216248,-1.691781921,11.25135269,12.18755007
29.471944,-4.237088928,-1.811233521,11.2844339,12.1890089
29.481883,-3.735931091,-1.232237549,11.03400467,11.71430107
29.491822,-3.571273499,-0.7222480774,11.17845428,11.75727336
29.501761,-3.990701294,-0.7044351196,11.68829407,12.37085865
29.511701,-4.853207703,-1.059945831,12.43254639,13.38825305
29.52164,-5.56378006,-1.715283051,13.46300354,14.66800289
29.531579,-5.513784027,-2.441273346,14.1482785,15.37970788
29.541519,-4.428989868,-2.613415375,14.48358124,15.36945076
29.551458,-2.495610352,-2.73211853,14.45873291,14.92472781
29.561397,0.9854008484,-2.875819702,13.67107086,14.00498241
29.571337,4.450694733,-2.454595642,12.26414658,13.27565496
29.581276,7.705975342,-2.23605011,11.54923325,14.06295718
29.591215,7.772736511,-1.802252197,13.80998199,15.94926796
29.601154,6.310726776,-0.9490264893,14.37580536,15.72862688
29.611094,3.667223969,-0.6689588928,14.00113449,14.48888556
29.621033,1.042132874,-0.5924679565,13.98466873,14.0359545
29.630972,-0.1025367737,-0.8110134888,14.13405807,14.15767828
29.640912,0.01122665405,-1.35617981,13.65939514,13.72655912
29.650851,-0.1395098877,-1.747615814,12.32656677,12.45061735
29.66079,-0.5233117676,-1.958078156,11.25479553,11.43583612
29.670729,-0.6662644958,-2.437680817,10.63298859,10.92916476
29.680669,-0.5046006775,-3.002755737,9.698332214,10.16507804
29.690608,-0.2603086853,-2.859054565,9.098379822,9.540569637
29.700547,-0.4894821167,-2.719095612,8.966953125,9.382927157
29.710487,-0.9044192505,-2.624941406,8.533903656,8.974174234
29.720426,-1.16188385,-2.512674866,8.063132629,8.525116824
29.730365,-1.659000092,-2.360142059,7.998167725,8.502543078
29.740305,-1.96930481,-2.129471741,7.39028183,7.939085391
29.75024437,-2.501448212,-1.986069946,6.171366577,6.948919514
29.76018338,-2.72747818,-1.86631897,5.889802094,6.753669552
29.77012237,-2.531835022,-1.54104538,5.716911621,6.43957203
29.78006238,-2.214644623,-1.050515442,5.600453796,6.113371919
29.79000137,-1.946103058,-0.699944458,5.599106598,5.968855338
29.79994038,-1.715732117,-0.5496569824,5.732778625,6.009210453
29.80988037,-1.693278809,-0.5162763977,5.757776642,6.023763466
