Time (s),Acceleration x (m/s^2),Acceleration y (m/s^2),Acceleration z (m/s^2),Absolute acceleration (m/s^2)
24.84989713,9.901459808,-10.25741959,1.465302887,14.33180643
24.85983612,10.02869522,-9.822274475,1.811083832,14.15386267
24.86977513,10.03842499,-8.722062378,2.151475983,13.47119881
24.87971412,10.0289946,-7.409142609,2.370470581,12.69233066
24.88965312,10.04561005,-6.168971558,2.445015564,12.0394598
24.89959213,10.24454636,-5.161416779,2.314487,11.70246996
24.90953112,10.61742096,-4.522545319,2.061962128,11.72325602
24.91947012,11.03041214,-4.150419159,1.83473465,11.92737282
24.92940913,11.37409744,-4.091591492,1.56319931,12.1883061
24.93934812,11.73739197,-4.346960449,1.246757355,12.57842754
24.94928712,12.00668198,-4.663103027,0.8816665649,12.91054909
24.95922613,12.07748474,-4.8850914,0.5526507568,13.03975378
24.96916475,12.2213356,-5.03133728,0.2248324585,13.21839432
24.97910375,12.00308945,-4.783452759,0.0426612854,12.9211995
24.98904275,11.62123352,-4.140839081,0.1285826111,12.33759094
24.99898175,10.99448685,-3.5301091,0.1089733887,11.54782605
25.00892075,10.224039,-3.068618774,0.1975891113,10.67644305
25.01885975,9.428443451,-2.805166626,0.4146377563,9.845630004
25.02879875,8.529412994,-2.781665497,0.632434845,8.99380469
25.03873775,7.665110321,-2.864593048,0.7884104919,8.220790757
25.04867675,6.984176331,-2.867586823,0.8048762512,7.592733301
25.05861575,6.518943787,-2.76609787,0.8388555908,7.131031077
25.06855475,6.194867706,-2.684667206,0.7937992859,6.798083643
25.07849375,5.947432251,-2.703827362,0.6770420837,6.568182303
25.08843275,5.749543762,-2.791395264,0.4649331665,6.408221582
25.09837175,5.625002747,-2.816093903,0.2158511353,6.294253926
25.10831075,5.560187531,-2.804118805,0.02065704346,6.227294305
25.11824975,5.675597534,-2.861449585,-0.1574725342,6.358073505
25.12818875,5.881419525,-2.90994873,-0.3254232788,6.569992204
25.13812775,6.164780273,-2.933749237,-0.4787045288,6.84401625
25.14806675,6.553372192,-2.93569519,-0.5303471375,7.200434808
25.15800575,6.980134735,-2.8970755,-0.5173242188,7.575153578
25.16794475,7.421117706,-2.860701141,-0.4878355408,7.968348797
25.17788375,7.917335815,-2.868035889,-0.4272116089,8.431627721
25.18782275,8.347840576,-2.937641144,-0.2712359619,8.853798435
25.19776175,8.779692535,-3.032543793,-0.09490264893,9.289151166
25.20770075,9.191935272,-3.143163757,0.07843688965,9.714798238
25.21763975,9.616153107,-3.260519714,0.2698887634,10.1574716
25.22757875,10.07973907,-3.322341156,0.4056564331,10.62090616
25.23751775,10.51368668,-3.300336914,0.5008584595,11.03089708
25.24745675,10.95496902,-3.219205627,0.5454656982,11.43119259
25.25739575,11.43996048,-3.188968506,0.5846841431,11.89050341
25.26733475,11.89067322,-3.282973022,0.6497987366,12.35266205
25.27727375,12.38868759,-3.469634857,0.7421566772,12.88676619
25.28721275,12.9765152,-3.711980896,0.843046875,13.52329386
25.29715075,13.43770615,-3.904330902,0.9180409241,14.02349976
25.30709075,13.95637756,-4.012555847,0.882714386,14.54854851
25.31702875,14.2903331,-3.948339386,0.8553213501,14.85040668
25.32696775,14.47370178,-3.691024475,0.8369096375,14.96035169
25.33690675,14.37670349,-3.262465668,0.7005432129,14.75886331
25.34684575,14.4349324,-3.116219788,0.4593946838,14.77461142
25.35678475,14.57638824,-3.564537506,0.3686833191,15.01042802
25.36672375,14.69703735,-4.622836761,0.4818479919,15.41446412
25.37666275,14.79687973,-5.81301178,0.7821235657,15.91698693
25.38660175,14.90675125,-6.646328888,1.051712952,16.35515273
25.39654075,14.61665451,-6.876849518,1.263522491,16.20290522
25.40647975,14.07852356,-6.587501221,1.434317322,15.60952479
25.41641875,13.32648743,-5.765859833,1.621128845,14.61056007
25.42635775,12.56711655,-4.80081665,1.796414337,13.57230133
25.43629675,11.8803447,-4.199217682,1.920356598,12.74612838
25.44623575,11.21931931,-4.076323242,2.063309326,12.11390863
25.45617475,10.71217392,-4.340673523,2.142943726,11.75518288
25.46611375,10.43539948,-4.92954895,2.04878952,11.72158494
25.47605275,10.37821838,-5.630541229,1.964814148,11.96958253
25.48599175,10.4681813,-6.341412964,1.861977997,12.37995558
25.49593075,10.55919205,-7.067253571,1.732197876,12.8235377
25.50586975,10.54811508,-7.653434601,1.623224487,13.13288433
25.51580875,10.45156586,-7.923922119,1.547182617,13.20672346
25.52574775,10.32507889,-7.791447601,1.56903717,13.02980381
25.53568675,10.2426004,-7.459737396,1.56319931,12.76722903
25.54562575,9.931098175,-6.878795471,1.661993866,12.19453819
25.55556475,9.621242523,-6.252348175,1.909429321,11.63211441
25.56550375,9.260193329,-5.693260803,2.196681976,11.09007713
25.57544275,8.804690552,-5.207071838,2.424957275,10.51268713
25.58538175,8.297395477,-4.763993225,2.498604126,9.888651361
25.59532075,7.807913361,-4.390968933,2.519261169,9.305417565
25.60525975,7.354805603,-4.105512543,2.500849457,8.786503668
25.61519875,6.964866486,-3.948788452,2.485132141,8.383208047
25.62513775,6.690487061,-3.893703003,2.409838715,8.107457235
25.63507675,6.424340515,-3.936813354,2.197729797,7.848609221
25.64501575,6.127657471,-4.011657715,1.878294067,7.561056295
25.65495475,5.814358978,-4.113296356,1.505269775,7.279547674
25.66489375,5.508694611,-4.223167877,1.197958832,7.043860347
25.67483275,5.23027359,-4.342619476,0.9219328308,6.860325494
25.68477175,5.047503662,-4.521946564,0.6526428223,6.808174248
25.69471075,4.984634399,-4.70022583,0.4562512207,6.866357704
25.70464975,4.911137238,-4.906347198,0.4004173279,6.953549154
25.71458875,4.894372101,-5.134023743,0.309256897,7.099909709
25.72452775,4.842130737,-5.287005615,0.2591111755,7.173966619
25.73446675,4.752018127,-5.359904022,0.3312611389,7.170772717
25.74440575,4.656666412,-5.44552597,0.4079017639,7.176676043
25.75434475,4.58436676,-5.596711578,0.5360353088,7.25444229
25.76428375,4.552932129,-5.745202789,0.7301815796,7.366797893
25.77422275,4.609813843,-5.884712677,0.9830058289,7.539663614
25.78416175,4.72477478,-6.061644745,1.17939743,7.775475036
25.79410075,4.888683929,-6.273154907,1.265468445,8.053143078
25.80403975,5.109474792,-6.583010559,1.301842804,8.434308233
25.81397875,5.464686127,-6.984176331,1.30229187,8.963117627
25.82391775,5.867348785,-7.343878326,1.360071716,9.497795835
25.83385675,6.240672455,-7.635471954,1.468745728,9.970137344
25.84379575,6.625222778,-7.838898926,1.552421722,10.38036254
25.85373475,6.981781311,-7.997718658,1.768871613,10.7627915
25.86367375,7.186405792,-8.050409088,2.064955902,10.98715421
25.87361275,7.211852875,-8.037835236,2.276915131,11.03639251
25.88355175,7.216942291,-8.025860138,2.475102997,11.07360925
25.89349075,7.387737122,-8.063432007,2.560275879,11.23176781
25.90342975,7.880662079,-8.336015167,2.462828522,11.73283887
25.91336875,8.503367157,-8.815019073,2.250719604,12.45301381
25.92330775,9.163045349,-9.326206055,1.966161346,13.22139591
25.93324675,9.712402954,-9.729916534,1.65450943,13.84700142
25.94318575,10.24095383,-9.979747009,1.574875031,14.38585128
25.95312475,10.49692154,-9.725874939,1.750759277,14.41676674
25.96306437,10.68103867,-8.829538879,1.949994965,13.99456409
25.97300337,10.46892975,-7.374115448,2.190095673,12.99125043
25.98294238,10.34289185,-6.089786224,2.262694702,12.21395494
25.99288137,10.3407962,-5.12025238,2.302960968,11.76659168
26.00282037,10.47850983,-4.42764267,2.18216217,11.58296247
26.01275938,10.74750046,-4.048930206,1.915267181,11.64348961
26.02269837,11.20150635,-3.957320709,1.677112427,11.9977847
26.03263737,11.7541571,-4.115541687,1.432670746,12.53596578
26.04257637,12.21325241,-4.353546753,1.10335556,13.01285124
26.05251537,12.37371872,-4.565955048,0.6279441833,13.20421048
26.06245438,12.3115979,-4.631369019,0.1239422607,13.1544815
26.07239337,11.84157532,-4.292623444,-0.3052153015,12.59931262
26.08233237,11.12546448,-3.787873077,-0.6469546509,11.7704075
26.09227138,10.37447617,-3.313509521,-0.8529263306,10.92412854
26.10221037,9.474547577,-2.948119354,-0.9135502625,9.964588983
26.11214937,8.503965912,-2.72628067,-0.7439529419,8.961222489
26.12208838,7.690108337,-2.669398956,-0.5480104065,8.158662417
26.13202737,6.909182281,-2.653531952,-0.3606001282,7.409997576
26.14196637,6.300547943,-2.62688736,-0.1886077881,6.828836979
26.15190537,5.865103455,-2.720891876,-0.1203497314,6.466620075
26.16184337,5.649402008,-2.923121338,-0.1666035461,6.363029007
26.17178237,5.363047485,-3.077001343,-0.3192860413,6.191297051
26.18172237,5.100792847,-3.126398621,-0.4647834778,6.000706598
26.19166037,5.025050354,-3.162024536,-0.646355896,5.972211163
26.20159937,5.059628448,-3.110980682,-0.7806266785,5.990610892
26.21153838,5.269492035,-3.01068924,-0.8657995605,6.130367434
26.22147737,5.606141968,-2.899620209,-0.9119036865,6.377161865
26.23141637,6.095175018,-2.839145966,-0.8192463684,6.77370452
26.24135538,6.613846436,-2.839295654,-0.6494993591,7.226784479
26.25129437,7.091652832,-2.897973633,-0.4529580688,7.674305316
26.26123338,7.640561371,-3.022514648,-0.2688409424,8.221073428
26.27117237,8.174501038,-3.069816284,-0.09580078125,8.732434771
26.28111137,8.670270081,-3.038531342,0.06391708374,9.187510075
26.29105038,9.080716553,-3.01413208,0.2306703186,9.570664246
26.30098937,9.442364502,-2.936593323,0.3806584167,9.895793478
26.31092837,9.811496887,-2.785707092,0.4412823486,10.20883761
26.32086738,10.18751495,-2.669698334,0.4755610657,10.542244
26.33080637,10.62191162,-2.661166077,0.4444258118,10.95921191
26.34074537,11.04523132,-2.73571106,0.4592449951,11.38824639
26.35068438,11.44519958,-2.808310089,0.4837939453,11.79462826
26.36062337,11.89785828,-2.933599548,0.4528083801,12.26254759
26.37056237,12.3487207,-3.19196228,0.5474116516,12.76633016
26.38050137,12.84344193,-3.525019684,0.7735913086,13.34084734
26.39044037,13.38576416,-3.76886261,0.9747729492,13.94034396
26.40037938,13.74007736,-3.879781952,1.038390656,14.31505114
26.41031837,13.91715912,-3.907624054,0.9903405762,14.48922421
26.42025737,13.98616562,-3.765419769,1.038390656,14.52134532
26.43019638,14.00622391,-3.73024292,1.074765015,14.53424027
26.44013537,13.95518005,-3.974385223,1.01099762,14.54527086
26.45007437,13.99185379,-4.680915985,0.8446934509,14.77824259
26.46001338,14.08765457,-5.688470764,0.8714877319,15.21775942
26.46995237,14.23105637,-6.693181458,1.211430817,15.77305322
26.47989137,14.35829178,-7.374414825,1.621428223,16.22256349
26.48983037,14.16938461,-7.591313782,1.979184265,16.19619324
26.49976937,13.68304596,-7.337741089,2.31089447,15.69740183
26.50970838,13.02621185,-6.521189117,2.459235992,14.77348789
26.51964737,12.33405121,-5.394033051,2.554138641,13.70211794
26.52958637,11.81403259,-4.405039673,2.623893585,12.8786862
26.53952538,11.39789795,-3.847748566,2.635569305,12.31517244
26.54946437,11.11214218,-3.732488251,2.600991211,12.00734474
26.55940337,11.01035385,-4.082610168,2.468217316,11.99948726
26.56934238,11.09702362,-4.818030853,2.303410034,12.31515539
26.57928137,11.38562347,-5.635930023,2.172133026,12.88853331
26.58922037,11.51196075,-6.287525024,1.960772552,13.26283681
26.59915938,11.48067581,-6.714437256,1.805545349,13.42198118
26.60909837,11.44325363,-6.906338196,1.747017059,13.47952631
26.61903737,11.22964783,-6.766528931,1.822160797,13.23673578
26.62897637,10.87608307,-6.397097168,1.893113251,12.75915016
26.63891537,10.3991748,-5.889652405,2.009122009,12.11888664
26.64885438,9.920320587,-5.343438263,2.250569916,11.49043768
26.65879337,9.425299988,-4.865781555,2.428549805,10.88163426
26.66873237,8.900641022,-4.498894501,2.433339844,10.26560301
26.67867138,8.354576569,-4.232298889,2.316882019,9.64775859
26.68861037,7.863148499,-3.961661682,2.175276489,9.069492566
26.69854937,7.465724945,-3.706442413,2.07333847,8.589149942
26.70848838,7.219037933,-3.589535522,1.885778503,8.279820923
26.71842737,6.965764618,-3.560944977,1.680405579,8.001622882
26.72836637,6.776408386,-3.610791321,1.396296387,7.804304465
26.73830537,6.542295227,-3.706292725,1.053958282,7.592697851
26.74824437,6.284680939,-3.888463898,0.7126679993,7.424638824
26.75818338,6.077511749,-4.105961609,0.3589535522,7.343290642
26.76812237,5.863756256,-4.302502899,0.1028361511,7.273633473
26.77806137,5.650000763,-4.498146057,-0.1242416382,7.222967711
26.78800038,5.502407684,-4.718787231,-0.3206332397,7.25577349
26.79793937,5.520370331,-4.994962921,-0.4468208313,7.458135962
26.80787837,5.533093872,-5.273383942,-0.4090992737,7.65448027
26.81781738,5.550158386,-5.488187256,-0.3071612549,7.811453482
26.82775637,5.591173096,-5.580245819,-0.137713623,7.90059017
26.83769537,5.582640839,-5.624703369,0.08592132568,7.925310669
26.84763438,5.532644806,-5.658233643,0.365539856,7.922082169
26.85757337,5.475463715,-5.709127808,0.6083349609,7.933783123
26.86751237,5.360802155,-5.783822479,0.7720944214,7.923820544
26.87745137,5.297334137,-5.955066376,0.9633966064,8.028243738
26.88739037,5.34373764,-6.198609924,1.164428558,8.266449711
26.89732938,5.499862976,-6.471193085,1.353635101,8.599834922
26.90726837,5.710325317,-6.820566559,1.518292694,9.024032143
26.91720737,6.042933655,-7.136709137,1.639540558,9.494090673
26.92714638,6.354286194,-7.400161285,1.736987915,9.907394567
26.93708537,6.578370209,-7.58218277,1.839674377,10.20533449
26.94702437,6.75485321,-7.699538727,1.964215393,10.42924161
26.95696338,6.808292084,-7.769293671,2.143991547,10.55042487
26.96690162,6.797215118,-7.740703125,2.313588867,10.55809224
26.97684062,6.872658234,-7.650889893,2.375110931,10.55512668
26.98677963,7.221283264,-7.628286896,2.326611786,10.75875529
26.99671862,7.725135498,-7.716453552,2.030527496,11.10605312
27.00665762,8.104446716,-7.895181885,1.447190552,11.40659082
27.01659663,8.396788788,-8.128995667,0.8855584717,11.72053097
27.02653562,8.728049927,-8.434959412,0.4803511047,12.14735086
27.03647462,9.095535736,-8.651259613,0.3040177917,12.55649195
27.04641363,9.345066833,-8.523724823,0.3483256531,12.6532798
27.05635262,9.504185944,-8.01388504,0.5831872559,12.44556191
27.06629163,9.625733185,-7.254065094,0.9822573853,12.09301572
27.07623062,9.719438324,-6.392456818,1.335822144,11.70962879
27.08616962,9.847721558,-5.658233643,1.540296936,11.46148954
27.09610863,10.00983444,-5.140909424,1.652713165,11.3735305
27.10604762,10.1869162,-4.884342957,1.659898224,11.41863958
27.11598662,10.33031799,-4.861590271,1.610351257,11.53012407
27.12592563,10.41429337,-4.909790039,1.459465027,11.60575645
27.13586462,10.47132477,-4.988526306,1.286873932,11.67005063
27.14580362,10.54946228,-5.112468567,1.089584198,11.77351617
27.15574263,10.57895096,-5.214556274,0.9029223633,11.82882367
27.16568162,10.50680099,-5.169350281,0.7536827087,11.73384366
27.17562062,10.40650955,-5.09106308,0.5447172546,11.59789124
27.18555962,10.1457518,-4.858446808,0.3573069763,11.25470805
27.19549862,9.873468018,-4.636907501,0.2525248718,10.91100594
27.20543763,9.470356293,-4.329746246,0.1336720276,10.41403952
27.21537662,8.976682892,-3.877536621,0.1520837402,9.779532476
27.22531562,8.473279724,-3.433859253,0.1133143616,9.143341774
27.23525463,7.946225739,-3.034190369,0.09624984741,8.506355196
27.24519362,7.47216156,-2.74154892,0.0889151001,7.959723284
27.25513262,7.067103882,-2.512375488,0.07723937988,7.500796877
27.26507163,6.764882355,-2.289788361,0.07828720093,7.142331055
27.27501062,6.568640442,-2.027084656,0.03742218018,6.874409784
27.28494962,6.473139038,-1.765428772,-0.08741821289,6.71013485
27.29488862,6.480473785,-1.581012268,-0.212258606,6.673918938
27.30482762,6.569388885,-1.515448608,-0.3195854187,6.749488103
27.31476663,6.725813599,-1.535656586,-0.4186793518,6.911591865
27.32470562,6.982978821,-1.594484253,-0.4950205994,7.179792381
27.33464462,7.238796844,-1.712139587,-0.6005511475,7.462724931
27.34458363,7.442074127,-1.880988464,-0.692460022,7.707274862
27.35452262,7.620054016,-2.174528046,-0.7161108398,7.956545115
27.36446162,7.809410248,-2.555336151,-0.6765930176,8.244659446
27.37440063,8.081694031,-2.891387329,-0.5408253479,8.600371571
27.38433962,8.455466766,-3.124003601,-0.3095562744,9.019431347
27.39427862,8.852441254,-3.284769287,0.01676513672,9.442229953
27.40421763,9.245523834,-3.433859253,0.3646417236,9.869349721
27.41415562,9.631421356,-3.509601746,0.6643185425,10.27243403
27.42409462,9.876012726,-3.486699371,0.9051676941,10.51247014
27.43403462,10.0993483,-3.463198242,1.091081085,10.73224282
27.44397262,10.31475037,-3.480262756,1.241967316,10.95667773
27.45391162,10.5783522,-3.63548996,1.344653778,11.26616245
27.46385063,11.03535187,-3.963008881,1.493594055,11.8201207
27.47378962,11.69338348,-4.362528076,1.68489624,12.59387724
27.48372862,12.42266693,-4.685706024,1.951491852,13.41964288
27.49366763,13.0229187,-4.784350891,2.145039368,14.03878979
27.50360662,13.49324066,-4.591851196,2.194286957,14.42107958
27.51354562,13.83063904,-4.143982544,2.214644623,14.60697841
27.52348462,13.96176636,-3.668571167,2.182760925,14.59978697
27.53342362,14.16115173,-3.367397461,2.091899872,14.70556456
27.54336263,14.42640015,-3.291954346,1.965562592,14.92720406
27.55330162,14.70497086,-3.663930817,1.834435272,15.26517965
27.56324062,14.89627304,-4.407285004,1.87095932,15.64683995
27.57317963,14.91827728,-5.199587402,1.891466675,15.91126495
27.58311862,14.77981522,-5.722001038,1.774859161,15.94786377
27.59305762,14.50094513,-5.754034424,1.608554993,15.68355097
27.60299663,13.8762941,-5.37187912,1.475781097,14.95281087
27.61293562,13.16153046,-4.775818634,1.431323547,14.07419677
27.62287462,12.5027504,-4.173620911,1.601519623,13.27790436
27.63281362,11.97704361,-3.842210083,1.887724457,12.71910593
27.64275262,11.5192955,-3.815415802,2.162852325,12.32596839
27.65269163,11.23937759,-4.034260712,2.355052643,12.17148886
27.66263062,11.20060822,-4.434827728,2.484982452,12.30026256
27.67256962,11.3654155,-4.900060272,2.448009338,12.61649753
27.68250863,11.60177399,-5.289101257,2.168540497,12.93361201
27.69244762,11.64697998,-5.53219574,1.693877563,13.00486653
27.70238662,11.68440216,-5.648952942,1.241218872,13.03750542
27.71232563,11.66359543,-5.655239868,0.8768765259,12.99192475
27.72226462,11.51106262,-5.452112274,0.5677693176,12.74960599
27.73220362,11.19596786,-5.04540802,0.392334137,12.28656846
27.74214263,10.79091019,-4.678520966,0.2577639771,11.76429953
27.75208162,10.43120819,-4.263134766,0.4110452271,11.27623078
27.76202062,10.06387207,-3.854933624,0.8379574585,10.80944989
27.77195962,9.64624054,-3.556304626,1.289718018,10.36149756
27.78189862,9.161548462,-3.426823883,1.530866547,9.900537588
27.79183763,8.687484283,-3.410058746,1.631756744,9.47436087
27.80177662,8.322692871,-3.501967621,1.657802582,9.180375986
27.81171562,8.021219788,-3.727099457,1.682650909,9.003474403
27.82165463,7.700436859,-4.015100555,1.733994141,8.855760609
27.83159362,7.411088562,-4.286486206,1.672921143,8.723351582
27.84153262,7.181166687,-4.597539368,1.536105652,8.66407201
27.85147163,6.95738205,-4.863087158,1.371897125,8.598655907
27.86141062,6.785090332,-5.020110626,1.191522217,8.524006494
27.87134962,6.649921417,-5.197641449,1.0086026,8.500247684
27.88128862,6.624624023,-5.428611145,0.827479248,8.604660616
27.89122762,6.679559784,-5.699996796,0.703686676,8.809180286
27.90116663,6.749165039,-5.951773224,0.6469546509,9.021828171
27.91110562,6.770271149,-6.131399689,0.5662724304,9.151573528
27.92104462,6.770271149,-6.231990509,0.5146298218,9.216242238
27.93098363,6.697971497,-6.2400737,0.4685256958,9.166289232
27.94092262,6.628366241,-6.101312256,0.4572990417,9.020552793
27.95086162,6.606511688,-5.791157227,0.5607339478,8.803290366
27.96080063,6.593339081,-5.386099548,0.7000941467,8.542383765
27.97073987,6.531218262,-5.021457825,0.7933502197,8.27654851
27.98067887,6.408623199,-4.807702332,0.8243357849,8.053817884
27.99061787,6.273753662,-4.749174042,0.8806187439,7.917709799
28.00055687,6.217021637,-4.805457001,0.9430389404,7.914107496
28.01049588,6.197562103,-5.046156464,0.9613009644,8.049693822
28.02043487,6.17570755,-5.438640289,0.960402832,8.284958994
28.03037387,6.159241791,-5.937552795,0.938997345,8.606538715
28.04031288,6.229894867,-6.439608765,0.9481283569,9.009944421
28.05025187,6.283633118,-6.797215118,0.9985734558,9.310388148
28.06019087,6.205944672,-6.915918274,1.076561279,9.354285597
28.07012988,6.059399414,-6.788533173,1.183588715,9.176131328
28.08006887,5.997428284,-6.493347015,1.246607666,8.926742528
28.09000787,6.123466187,-6.223158875,1.190773773,8.811497415
28.09994687,6.44604538,-6.221961365,1.013542328,9.016183911
28.10988587,6.824159088,-6.598428497,0.6840774536,9.517161754
28.11982488,7.16799408,-7.252867584,0.2972817993,10.2015981
28.12976387,7.532037048,-7.930508423,0.05298980713,10.93742903
28.13970287,7.856861572,-8.367150421,0.05119354248,11.47789618
28.14964188,8.13213913,-8.443641357,0.1440005493,11.72380068
28.15958087,8.359815674,-7.979157257,0.4620890808,11.56576824
28.16951987,8.675658875,-7.02055069,0.9798623657,11.20336196
28.17945888,9.015152893,-6.0715242,1.506916351,10.97302076
28.18939787,9.36302948,-5.449268188,2.009720764,11.01815876
28.19933687,9.735754395,-5.188660126,2.304906921,11.27030183
28.20927588,10.18257523,-5.193899231,2.283202057,11.65651917
28.21921487,10.82099762,-5.557493134,1.963616638,12.32215524
28.22915387,11.39011414,-6.256689148,1.493444366,13.08094932
28.23909287,11.76283905,-6.943610687,0.9538165283,13.69262129
28.24903187,11.93977112,-7.16440155,0.6089337158,13.93763194
28.25897088,11.93557983,-6.892566833,0.324225769,13.78661183
28.26890987,11.64548309,-6.147266693,0.1094224548,13.16883205
28.27884887,11.13220047,-5.00798584,-0.06735992432,12.20697943
28.28878788,10.52970337,-3.840114441,0.04730163574,11.20818314
28.29872687,10.07255402,-2.891686707,0.399818573,10.48704207
28.30866587,9.542655945,-2.132315826,0.826431427,9.812850869
28.31860488,9.03655838,-1.604812775,1.089284821,9.242367274
28.32854387,8.491990814,-1.246607666,1.212029572,8.668157494
28.33848287,8.074059906,-1.109792175,1.157542877,8.231766976
28.34842187,7.800129547,-1.114282837,0.8894503784,7.929361208
28.35836087,7.55643631,-1.188528442,0.5324427795,7.667843561
28.36829988,7.307803345,-1.349443817,0.2043251038,7.434160147
28.37823887,7.129075012,-1.522483978,0.001496887207,7.289833348
28.38817787,7.016808472,-1.680405579,-0.09744735718,7.215875555
28.39811688,6.977590027,-1.856589203,-0.1420545959,7.221763328
28.40805587,7.069947968,-2.082619171,-0.1312770081,7.371478856
28.41799487,7.260501709,-2.37990097,-0.08622070312,7.641089432
28.42793388,7.464826813,-2.700085144,0.0008981323242,7.938142096
28.43787287,7.664960632,-2.988535309,0.122744751,8.227881323
28.44781187,7.88051239,-3.221151581,0.2962339783,8.518570749
28.45775088,8.112679596,-3.395239563,0.4511618042,8.806064325
28.46768987,8.318052521,-3.573818207,0.5448669434,9.06967774
28.47762887,8.498577118,-3.789220276,0.6562353516,9.328164244
28.48756787,8.699908447,-3.929328918,0.7209008789,9.573282134
28.49750687,8.911268921,-3.93845993,0.7607180786,9.772454779
28.50744588,9.15361496,-3.858226776,0.827479248,9.967913653
28.51738487,9.431137848,-3.727249146,0.9018745422,10.18096876
28.52732387,9.76673996,-3.562142487,0.9511221313,10.43947804
28.53726288,10.14066238,-3.477718048,0.97701828,10.76485583
28.54720187,10.56413177,-3.597768402,1.018182678,11.20631579
28.55714087,11.09118576,-3.791166229,1.091380463,11.77193503
28.56707988,11.59189453,-3.948788452,1.175655212,12.3023215
28.57701887,12.12269073,-4.176165619,1.27190506,12.88478686
28.58695787,12.59795242,-4.410428467,1.384770355,13.41930972
28.59689687,12.96094757,-4.508474579,1.530567169,13.80779276
28.60683587,13.17619995,-4.40189621,1.697619781,13.99538668
28.61677488,13.35148544,-4.048032074,1.894610138,14.07971146
28.62671387,13.58574829,-3.509452057,2.097288666,14.18758014
28.63665287,14.04678955,-3.109932861,2.139051819,14.54508583
28.64659188,14.54959396,-3.096610565,2.031874695,15.01360038
28.65653087,15.10898071,-3.46349762,2.026036835,15.63272015
28.66646987,15.46673676,-3.874842224,2.124232635,16.08560575
28.67640888,15.36240372,-4.089346161,2.032922516,16.02682046
28.68634787,14.8636409,-4.062851257,1.75390274,15.5084092
28.69628687,14.02688095,-3.84490448,1.298549652,14.60215432
28.70622588,13.11692322,-3.602558441,0.9982740784,13.63923213
28.71616487,12.44482086,-3.505111084,1.116528168,12.97713393
28.72610388,11.94426178,-3.607498169,1.24032074,12.53865336
28.73604287,11.59952866,-3.952830048,1.268162842,12.31999056
28.74598187,11.55013138,-4.597689056,1.251697083,12.49443977
28.75592088,11.65656006,-5.323379974,1.258433075,12.87623472
28.76585987,11.84037781,-6.029761047,1.25199646,13.34616275
28.77579887,12.09170517,-6.677613831,1.139280853,13.85993583
28.78573788,12.24708206,-7.099586334,1.068777466,14.19638794
28.79567687,12.52116211,-7.381001129,0.9449848938,14.56542738
28.80561587,12.54466324,-7.392676849,0.8822653198,14.58761937
28.81555488,12.40290802,-7.111262054,0.9927355957,14.33135372
28.82549387,12.14110245,-6.642736359,1.196611633,13.89115526
28.83543287,11.76209061,-6.029611359,1.569186859,13.31034695
28.84537187,11.3812825,-5.42217453,1.980232086,12.76146101
28.85531087,10.92802505,-4.897216187,2.297123108,12.1934914
28.86524988,10.48958679,-4.509672089,2.504591675,11.68937778
28.87518887,10.07135651,-4.19831955,2.623145142,11.22225465
28.88512787,9.680668945,-3.970942383,2.717598724,10.81060024
28.89506688,9.346563721,-3.826492767,2.714904327,10.45805937
28.90500587,8.96515686,-3.79580658,2.573298798,10.06995789
28.91494487,8.544681244,-3.939956818,2.365530853,9.702091192
28.92488388,8.16956131,-4.141587524,2.053280182,9.386716078
28.93482287,7.795040131,-4.282444611,1.717229004,9.058192862
28.94476187,7.424111481,-4.369713135,1.400936737,8.727797425
28.95470087,7.188052368,-4.499493256,1.119372253,8.553743663
28.96464025,6.982829132,-4.621489563,0.8783734131,8.419596684
28.97457925,6.774911499,-4.723876648,0.6849755859,8.287558625
28.98451825,6.57941803,-4.877756653,0.5478607178,8.208617602
28.99445725,6.412964172,-5.059778137,0.4475692749,8.180940198
29.00439625,6.242019653,-5.21859787,0.3728746033,8.144667492
29.01433525,6.083199921,-5.404361572,0.3317102051,8.143861304
29.02427425,5.883365479,-5.601351929,0.3290158081,8.130029778
29.03421325,5.661826172,-5.740113373,0.3620970154,8.070705755
29.04415225,5.478607178,-5.771697693,0.4158352661,7.968723225
29.05409125,5.346581726,-5.762566681,0.5450166321,7.879730581
29.06403025,5.171296234,-5.720204773,0.6851252747,7.741604745
29.07396925,5.017266541,-5.644611969,0.8297245789,7.597568736
29.08390825,4.97056366,-5.630541229,0.9696835327,7.572964002
29.09384725,4.970413971,-5.761967926,1.031804352,7.679186783
29.10378625,5.060526581,-6.051166534,1.047521667,7.957565416
29.11372525,5.189109192,-6.44484787,1.01324295,8.336041
29.12366425,5.280419312,-6.844067688,0.9577084351,8.697200473
29.13360325,5.336851959,-7.245083771,0.9077124023,9.044178762
29.14354225,5.375920715,-7.558082886,0.9195378113,9.320444744
29.15348125,5.368136902,-7.713459778,1.070873108,9.45838912
29.16342025,5.41633667,-7.594157867,1.343905334,9.424118961
29.17335925,5.592220917,-7.284751282,1.662143555,9.332912579
29.18329825,5.952521667,-6.949298859,1.895059204,9.344330806
29.19323725,6.427633667,-6.811285858,1.847907257,9.545828975
29.20317625,6.890022125,-7.025789795,1.488804016,9.952420034
29.21311525,7.186405792,-7.593110046,0.9181906128,10.49489506
29.22305425,7.524402924,-8.252937927,0.4068539429,11.17556056
29.23299325,7.844736786,-8.774303741,0.2317181396,11.7720854
29.24293225,8.159083099,-9.087452545,0.2395019531,12.21514601
29.25287125,8.5638414,-9.008416901,0.336051178,12.43398106
29.26281025,9.065897369,-8.25144104,0.652792511,12.27611145
29.27274925,9.564211121,-6.829697571,1.165326691,11.81003343
29.28268825,9.952054596,-5.378315735,1.615290985,11.42710969
29.29262725,10.40097107,-4.320465546,1.934876404,11.42761429
29.30256625,10.8650061,-3.619323578,2.045795746,11.63327731
29.31250525,11.30868347,-3.335813141,1.917362823,11.94530248
29.32244425,11.62078445,-3.452570343,1.644180908,12.23381397
29.33238325,11.7131424,-3.941004639,1.24960144,12.42138181
29.34232225,11.73918823,-4.6475354,0.7442523193,12.64760994
29.35226125,11.85938828,-5.316494293,0.323177948,13.00056329
29.36220025,11.9108812,-5.662873993,0.08128097534,13.18877702
29.37213925,11.83588715,-5.657934265,-0.04161346436,13.11877191
29.38207825,11.43876297,-5.23611145,-0.01586700439,12.58023899
29.39201725,10.90632019,-4.522096252,0.1429527283,11.80752345
29.40195625,10.44557831,-3.676654358,0.4770579529,11.08401903
29.41189525,9.94217514,-2.877316589,0.9886940002,10.39727431
29.42183425,9.336684265,-2.330354004,1.430425415,9.728840615
29.43177325,8.686586151,-2.070943451,1.600920868,9.072405048
29.44171225,8.013735352,-1.978435822,1.654210052,8.418466219
29.45165125,7.471263428,-1.935924225,1.664837952,7.895521846
29.46159025,7.132667542,-1.963317261,1.63699585,7.576893581
29.47152925,6.938521271,-2.051483917,1.587149506,7.407476442
29.48146825,6.771917725,-2.248773651,1.41934845,7.275328352
29.49140725,6.581363983,-2.501747589,1.166075134,7.136723625
29.50134625,6.423143005,-2.725382538,0.93256073,7.039470545
29.51128525,6.372548218,-2.955753479,0.7177574158,7.061233966
29.52122425,6.540648651,-3.209475861,0.4945715332,7.302425698
29.53116325,6.75605072,-3.361409912,0.1568737793,7.547708746
29.54110225,6.905140686,-3.476221161,-0.2805166626,7.735875584
29.55104125,7.12353653,-3.589385834,-0.6861730957,8.006203649
29.56098025,7.379204865,-3.710484009,-0.9493258667,8.313938634
29.57091925,7.600744171,-3.862567749,-1.124012604,8.599659639
29.58085825,7.762707367,-3.994144135,-1.24376358,8.818149515
29.59079725,8.028554535,-4.068090363,-1.087488556,9.06585233
29.60073625,8.415499878,-4.0450383,-0.6535409546,9.360026112
29.61067525,8.901688843,-3.936813354,-0.06496490479,9.733590503
29.62061425,9.428293762,-3.813918915,0.4707710266,10.18137152
29.63055325,10.04291565,-3.590583344,0.8360115051,10.69819418
29.64049225,10.72280182,-3.175795898,1.209185486,11.24839046
29.65043125,11.3667627,-2.709066467,1.48595993,11.77923649
29.66037025,12.15981354,-2.3635849,1.667981415,12.49919041
29.67030925,12.95630722,-2.186203766,1.764680328,13.25743114
29.68024825,13.65355728,-2.156715088,1.851499786,13.94629334
29.69018725,14.21174652,-2.229912872,1.822909241,14.50066373
29.70012625,14.53297852,-2.272424469,1.689686279,14.80629654
29.71006525,14.67877533,-2.321222992,1.436113586,14.93040333
29.72000425,14.63147369,-2.402653656,1.089135132,14.86737981
29.72994325,14.60423035,-2.492915955,0.6566844177,14.83001714
29.73988225,14.53776855,-2.480042725,0.08666976929,14.74804523
29.74982125,14.59973969,-2.521057434,-0.2665956116,14.81820511
29.75976025,14.88250168,-3.07610321,-0.4758604431,15.20452927
29.76969925,15.01796997,-3.965553589,-0.4327500916,15.53873579
29.77963825,14.90540405,-4.701722717,-0.2215393066,15.63094195
29.78957725,14.6034819,-5.041665802,0.06765930176,15.4494225
29.79951625,14.00173325,-4.947661285,0.4430786133,14.85678985
29.80945525,13.29056213,-4.498445435,0.8741821289,14.05842266
