Time (s),Acceleration x (m/s^2),Acceleration y (m/s^2),Acceleration z (m/s^2),Absolute acceleration (m/s^2)
24.85050737,3.534899139,-8.384664001,0.1910028076,9.101350692
24.86044738,4.338128815,-8.021070099,0.669407959,9.143578849
24.87038637,4.541555786,-7.7131604,1.428928528,9.064237919
24.88032638,4.498295746,-7.701035614,2.518512726,9.267336214
24.89026538,5.054389343,-8.0396315,3.177741852,10.01401865
24.90020538,5.517825623,-8.693322144,3.183729401,10.77758704
24.91014438,5.780379639,-9.501641235,2.553390198,11.41112512
24.92008438,5.613626404,-10.16910324,1.609902191,11.72668952
24.93002438,5.144801331,-10.39363632,0.8520281982,11.62852565
24.93996338,4.602628784,-9.927505646,0.5816903687,10.95800729
24.94990338,3.925287323,-9.112749939,1.000220032,9.972488763
24.95984238,3.126248932,-8.462951202,1.735790405,9.187379592
24.96978238,2.825075226,-8.556356964,1.93996582,9.217144998
24.97972138,3.095562744,-9.538015594,1.375040588,10.12160989
24.98966138,3.539988556,-10.69361252,0.6182144165,11.28127017
24.99960038,4.014651489,-11.56719589,0.1996847534,12.24570624
25.00954038,4.412524109,-11.79651901,0.1898052979,12.59620006
25.01947938,4.628075867,-11.52767807,0.5757028198,12.43534807
25.02941938,4.687502289,-11.16408417,1.142424316,12.16201407
25.03935938,4.655169525,-10.95362183,1.798060913,12.03683752
25.04929838,4.443060608,-11.10166397,2.559527435,12.22861035
25.05923838,3.764970703,-11.52228928,3.052302704,12.50018825
25.06917738,3.117566986,-12.14155151,3.116818542,12.91708384
25.07911738,2.59530304,-12.52086273,2.993624725,13.1327602
25.08905637,2.194736023,-12.15786758,3.025059357,12.71933939
25.09899638,2.155966644,-11.3242511,3.435505829,12.02869716
25.10893537,1.792971497,-10.74241104,3.028651886,11.30428565
25.11887538,1.097966766,-10.79614929,1.139729919,10.91152395
25.12881437,1.359173584,-10.20981857,0.3176394653,10.30478738
25.13875438,2.689906311,-9.353150024,0.9753717041,9.781020463
25.14869337,4.552033997,-9.973909149,2.311942291,11.20468448
25.15863338,6.166875916,-11.1012149,2.575095062,12.95756325
25.16857338,7.454348602,-12.09170517,1.082698517,14.24601288
25.17851238,9.060807953,-13.41166031,0.08592132568,16.18574235
25.18845238,11.70925049,-14.83834351,0.1311273193,18.90238555
25.19839138,14.61006821,-15.94604004,0.9864486694,21.64955812
25.20833138,16.96167801,-16.41426636,1.53401001,23.65332635
25.21827038,17.995578,-15.94618973,0.6755451965,24.05365161
25.22821038,17.0493956,-14.27536423,-0.6200106812,22.24527652
25.23814938,14.75257187,-11.7860408,-0.5526507568,18.89059442
25.24808938,12.27776825,-8.821156311,-0.4577481079,15.12500992
25.25802838,9.719737701,-5.858517151,-0.9404942322,11.38771503
25.26796838,7.5154216,-4.008813629,-1.209335175,8.603176164
25.27790738,6.010600891,-3.225342865,-0.2863545227,6.827309762
25.28784738,4.972210236,-3.105741577,1.225202179,5.989125625
25.29778738,4.027225342,-3.400478668,2.47824646,5.824388778
25.30772638,3.449277191,-3.921096039,2.872227173,5.960050018
25.31766638,3.258873138,-4.322561188,2.064207458,5.793594893
25.32760538,3.490890656,-4.586163025,1.036594391,5.856085449
25.33754538,3.846401367,-4.769082642,0.3010240173,6.134294432
25.34748438,3.746109924,-4.923112335,0.1639091492,6.188476455
25.35742438,3.138822784,-4.869074707,-0.01077758789,5.793117738
25.36736338,2.627935181,-4.941673737,0.08906478882,5.597688377
25.37730338,2.429897003,-5.0629216,0.4441264343,5.633366921
25.38724237,2.709814911,-4.998405762,0.3600013733,5.697083289
25.39718238,3.135379944,-4.687951355,0.1065783691,5.640820352
25.40712238,3.567830658,-4.220772858,-0.4122427368,5.542046842
25.41706138,4.036206665,-3.584895172,-0.9961784363,5.489518113
25.42700138,4.381239166,-2.821183319,-1.41575592,5.39987933
25.43694038,4.664599915,-2.085014191,-1.728305969,5.393775863
25.44688038,4.772076416,-1.477427673,-2.008373566,5.384149908
25.45681938,4.733606415,-0.9213340759,-2.450853424,5.409488763
25.46675938,4.462370453,-0.5037025452,-2.667153625,5.223042674
25.47669838,4.496948547,-0.1523831177,-2.008972321,4.927650215
25.48663838,5.341342621,0.02245330811,-0.3559597778,5.353237573
25.49657738,6.477929077,-0.1859133911,2.04998703,6.797100539
25.50651738,6.791526947,-1.661844177,4.825365601,8.495335045
25.51645638,4.722080383,-5.40466095,10.16012192,12.4393119
25.52639638,1.972298584,-10.68897217,18.96615967,21.85999314
25.53633638,-0.2860551453,-16.9206633,21.51865173,27.37595745
25.54627538,-0.1719923401,-21.43662231,15.20852371,26.28416921
25.55621538,1.775757294,-25.15174667,13.56524094,28.63179066
25.56615438,3.743714905,-25.68568634,11.30479156,28.31197973
25.57609438,6.057603149,-20.16830978,7.93664566,22.50434669
25.58603338,4.992268524,-12.93430298,6.113886108,15.15250943
25.59597338,2.477498016,-8.145311737,5.358856201,10.05989262
25.60591238,1.172212372,-5.270539856,5.999972992,8.071700448
25.61585238,2.014660492,-3.830983429,6.815926208,8.074165035
25.62579138,5.196893005,-4.861290894,6.101012878,9.373484102
25.63573138,9.036708069,-8.06193512,4.046086121,12.76823024
25.64567138,11.58261383,-11.24012604,-0.1664538574,16.14078943
25.65561038,11.5179483,-13.46988922,-4.145928497,18.20136731
25.66555038,9.893226929,-15.77210175,-4.384981384,19.12755066
25.67548938,9.782457275,-16.43522278,-1.348845062,19.17374249
25.68542938,10.58538757,-12.08242447,-2.990930328,16.33955554
25.69536838,9.110803986,-6.907685394,-3.51963089,11.96288713
25.70530838,7.232210541,-3.012335815,-2.727029114,8.295524345
25.71524738,5.780679016,-0.7027885437,-3.881727905,6.998426477
25.7251875,5.876779175,-0.9782157898,-4.762346649,7.627147908
25.7351265,7.33295105,-2.547552338,-5.177732849,9.331190249
25.7450665,8.737779694,-3.799099731,-5.260211334,10.8835553
25.7550065,10.01657043,-4.70262085,-4.996759186,12.14141378
25.7649455,10.69825287,-6.100114746,-4.240980835,13.02497343
25.7748855,10.00279907,-7.259603577,-3.319946136,12.79765118
25.7848245,8.686137085,-7.762857056,-2.476450195,11.90981665
25.7947645,7.581134949,-7.957302704,-1.788929901,11.13519392
25.8047035,7.032974854,-7.966882782,-1.308728485,10.70732118
25.8146435,6.837182007,-7.947423248,-0.9322613525,10.52509883
25.8245825,6.766828308,-7.955057373,-0.8363108826,10.4772286
25.8345225,6.645879822,-7.943231964,-0.9145980835,10.39707374
25.8444615,6.284830627,-7.983947296,-0.89394104,10.20008044
25.8544015,5.694009247,-8.26311676,-0.7069798279,10.05985389
25.8643405,5.090614014,-8.630303192,-0.4680766296,10.03073178
25.8742805,4.507576447,-8.757239227,0.2275268555,9.851865446
25.8842205,2.623594208,-9.385033722,5.526657257,11.20294805
25.8941595,1.621577911,-9.500144348,5.861510925,11.28005177
25.9040995,2.238894196,-8.868308258,2.035467224,9.370307647
25.9140385,2.78361145,-8.397836609,0.1324745178,8.848146807
25.9239785,3.089724884,-8.184979248,-0.7939489746,8.78468213
25.9339175,3.302881622,-8.073311462,-1.193917236,8.804136718
25.9438575,3.431763611,-7.930957489,-1.063837738,8.706827143
25.9537965,3.341950378,-7.880811768,-0.5566923523,8.578212682
25.9637365,3.18612442,-8.076305237,0.08053253174,8.682429417
25.9736755,3.014281769,-8.23856781,0.403560791,8.781956243
25.9836155,3.246448975,-8.649912415,0.6216572571,9.25996077
25.9935545,3.572471008,-9.039701843,0.9455836487,9.765904308
26.0034945,3.904181213,-9.068741455,1.276395721,9.955595842
26.0134345,4.272714844,-9.112450562,1.714983673,10.20950618
26.0233735,4.789589996,-9.112899628,2.312840424,10.55150903
26.0333135,5.325774994,-9.047934723,2.792742462,10.8640882
26.0432525,5.647156677,-9.114097137,2.893183594,11.10529858
26.0531925,5.49118103,-9.175319824,2.621199188,11.00955259
26.0631315,4.704417114,-9.070687408,2.17168396,10.44629703
26.0730715,3.660787354,-9.164542236,1.705253906,10.01489338
26.0830105,2.961291962,-9.630223846,1.242266693,10.15153624
26.0929505,2.822829895,-10.47117508,0.6355783081,10.86360143
26.1028895,3.041525116,-11.29356491,0.09624984741,11.69635616
26.1128295,3.342848511,-11.98063614,-0.09310638428,12.43860713
26.1227695,3.841461639,-12.0435054,0.2142045593,12.64312989
26.1327085,4.476141815,-11.41705811,0.9849517822,12.30264977
26.1426485,5.128036194,-10.79180832,1.838476868,12.08883283
26.1525875,5.671256561,-10.45066772,2.442470856,12.13858603
26.1625275,5.851182404,-10.35875885,2.729873199,12.20624546
26.1724665,5.506299591,-10.48659302,2.82462616,12.17647245
26.1824065,4.828209686,-11.1317514,2.815495148,12.45610336
26.1923455,4.085454254,-12.12224167,2.46776825,13.02802977
26.2022855,3.480711823,-12.95540909,2.193239136,13.59294955
26.2122245,2.884351959,-12.77069321,2.020498352,13.24735841
26.2221645,2.840343475,-11.34894974,2.024090881,11.87279054
26.2321035,2.45369751,-10.3647464,2.336341553,10.90445282
26.2420435,1.447190552,-10.32642609,1.954785004,10.60898773
26.2519835,0.9210346985,-9.942025452,1.705253906,10.12916906
26.2619225,1.6907341,-9.249266052,2.593656464,9.75369459
26.2718625,3.624412994,-9.667047272,3.58399704,10.9285501
26.2818015,5.764812012,-10.40965302,3.364852753,12.36592768
26.2917415,7.391629028,-11.41466309,2.02304306,13.7485787
26.3016805,9.107810211,-13.00420761,0.8146060181,15.89733328
26.3116205,11.1423793,-14.7654451,0.4061054993,18.50232167
26.3215595,13.49638412,-16.14991608,0.6209088135,21.05606092
26.3314995,15.78452591,-16.71993073,1.343605957,23.03285954
26.3414385,17.15088455,-16.0050174,1.085392914,23.48385617
26.3513785,16.19152954,-14.0806192,0.1887574768,21.45845044
26.3613185,13.79336655,-11.53186935,-0.05792953491,17.97899684
26.3712575,11.42124939,-8.859326935,-0.09624984741,14.45482187
26.3811975,8.968000946,-6.382128296,-0.6164181519,11.02436274
26.3911365,6.553970947,-4.746030579,-0.560584259,8.111325178
26.4010765,5.150190125,-4.084556122,0.08562194824,6.573841202
26.4110155,4.608017578,-3.814817047,0.9972262573,6.064743631
26.4209555,4.012855225,-3.759731598,1.674567719,5.748283725
26.4308945,3.336860962,-4.105512543,1.672172699,5.548516545
26.4408345,2.955154724,-4.576732635,1.014739838,5.541580821
26.4507735,3.168910217,-4.828509064,0.2927911377,5.782924727
26.4607135,3.539389801,-4.822671204,-0.303868103,5.9898058
26.4706525,3.5102005,-4.754712524,-0.5709127808,5.937570222
26.4805925,3.108136597,-4.743785248,-0.6285429382,5.706056239
26.4905325,2.628683624,-4.645140381,-0.2463876343,5.343034121
26.5004715,2.134860535,-4.670437775,0.466280365,5.156358782
26.5104115,2.137854309,-4.643793182,0.5120851135,5.137846566
26.5203505,2.531385956,-4.620591431,0.1070274353,5.269652256
26.5302905,3.218756561,-4.439767456,-0.5480104065,5.511101911
26.5402295,4.083059235,-3.921096039,-1.169517975,5.780496445
26.5501695,4.868475952,-3.13343399,-1.646725616,6.019316566
26.5601085,5.390889587,-2.22437439,-2.017354889,6.170838899
26.5700485,5.450765076,-1.501826935,-2.305655365,6.105929144
26.5799875,5.242248688,-0.9659413147,-2.54381012,5.906368076
26.5899275,4.96697113,-0.4849914551,-2.436632996,5.553665391
26.5998675,5.278173981,-0.09310638428,-1.57846756,5.50993187
26.6098065,6.605613556,0.04415817261,0.1927990723,6.608574118
26.6197465,8.094118195,-0.2561174011,2.685415649,8.531811219
26.6296855,7.73546402,-2.432292023,6.709198151,10.52458018
26.6396255,4.355792084,-6.990912323,12.60573624,15.05823249
26.6495645,1.340612183,-13.19521042,20.27892975,24.23109182
26.6595045,0.2520758057,-19.68930588,19.46626968,27.68876963
26.6694435,1.951491852,-23.60037277,14.41547287,27.72348776
26.6793835,2.787952423,-26.05736343,14.13780029,29.77643808
26.6893225,2.131717072,-23.45128281,10.45156586,25.76319297
26.6992625,1.938768311,-16.32071091,7.771539001,18.18024327
26.7092025,1.021625519,-10.38854691,6.389163666,12.23875148
26.7191415,0.120050354,-6.442901917,5.467380524,8.450896224
26.72908138,-0.1440005493,-3.977828064,5.313201141,6.638822082
26.73902038,0.2230361938,-2.990630951,5.067861328,5.888704193
26.74896038,2.215842133,-4.426145782,2.088307343,5.372313319
26.75889938,6.023324432,-7.51901413,-2.44666214,9.939927883
26.76883937,10.04650818,-9.864037628,-5.128036194,14.98426909
26.77877838,11.28054199,-11.27949417,-4.601281586,16.60269281
26.78871837,11.45238464,-13.66029327,0.7366181946,17.8410575
26.79865738,9.34192337,-16.84387299,4.335284729,19.74290463
26.80859737,10.05923172,-14.92621078,-1.416803741,18.05511684
26.81853738,11.72182434,-9.117539978,-0.7900570679,14.87127739
26.82847637,10.45919998,-5.305267639,0.9656419373,11.76746333
26.83841638,8.546028442,-3.476969604,-1.78907959,9.398123512
26.84835538,7.433691559,-3.003354492,-4.237987061,9.068651649
26.85829538,7.680378571,-3.969744873,-5.107678528,10.04168658
26.86823438,8.313861237,-4.705315247,-4.825814667,10.70274579
26.87817438,8.99210083,-5.040617981,-4.42764267,11.21916782
26.88811338,9.449250183,-5.438939667,-4.225562897,11.69297975
26.89805338,9.383536835,-5.885610809,-3.827989655,11.71941479
26.90799238,8.674461365,-6.383774872,-3.203787689,11.23668622
26.91793238,7.596552887,-6.800208893,-2.527643738,10.50425817
26.92787138,6.798113251,-7.007827148,-1.847158813,9.936598049
26.93781138,6.377637634,-7.128775635,-1.337319031,9.658267238
26.94775138,6.348747711,-7.384593658,-0.9503736877,9.784785698
26.95769038,6.666985931,-7.738757172,-0.767454071,10.24334173
26.96763038,6.807693329,-7.994425507,-0.6843768311,10.52254243
26.97756938,6.340215454,-8.095016327,-0.6713539124,10.30428733
26.98750938,5.521567841,-8.164172516,-0.6647676086,9.878428026
26.99744838,4.800517273,-8.097860413,-0.6671626282,9.4374475
27.00738838,4.064348145,-7.993677063,0.07813751221,8.967937572
27.01732738,2.307751007,-8.442294159,4.876559143,10.01892581
27.02726738,1.795516205,-8.567134552,4.728966064,9.949009645
27.03720638,2.462678833,-8.4550177,1.762285309,8.980966588
27.04714638,3.149300995,-8.344397736,0.1701960754,8.920540176
27.05708638,3.713028717,-8.2572789,-0.6536906433,9.077254461
27.06702537,3.928580475,-8.194709015,-1.010698242,9.143768989
27.07696538,3.933220825,-8.12510376,-1.086590424,9.092206328
27.08690437,3.802243195,-8.180937653,-0.9857002258,9.075042651
27.09684438,3.775149536,-8.372389526,-0.5596861267,9.201190627
27.10678337,3.749552765,-8.696315918,0.08008346558,9.470558053
27.11672338,3.368744659,-9.135951691,0.8824150085,9.777152455
27.12666237,2.899021454,-9.779912567,1.831591187,10.36367413
27.13660238,2.934198303,-10.28421387,2.64320343,11.01640136
27.14654138,3.587739258,-10.39633072,2.965932312,11.39088758
27.15648138,4.362228699,-10.26161087,2.699935455,11.4725476
27.16642038,4.722679138,-9.930948486,2.106419678,11.19662627
27.17636038,4.655319214,-9.500743103,1.821562042,10.73565111
27.18630038,4.249064026,-8.935817871,2.010020142,10.09671071
27.19623938,3.7384758,-8.416847076,2.545157318,9.554964248
27.20617938,3.480711823,-8.246351624,2.755919037,9.365509043
27.21611838,3.651955719,-8.868008881,2.042652283,9.805650944
27.22605838,4.07662262,-10.26774811,0.8695417786,11.08158861
27.23599738,4.514312439,-11.64323776,0.1378633118,12.48851507
27.24593738,4.744982758,-12.32791397,-0.01616638184,13.20956417
27.25587638,4.733756104,-12.06521027,0.3311114502,12.96485173
27.26581638,4.663701782,-11.17096985,1.176104279,12.16239709
27.27575538,4.729415131,-10.37776932,1.953288116,11.57068701
27.28569538,4.829856262,-9.854008484,2.327360229,11.21809255
27.29563538,4.824467468,-9.797875214,2.47360611,11.19788249
27.30557438,4.776567078,-10.20353165,2.543959808,11.54986505
27.31551438,4.579277344,-11.43606857,2.502945099,12.57052821
27.32545338,4.010011139,-13.07560913,2.330952759,13.87389939
27.33539338,2.991978149,-13.98212402,2.30969696,14.48400585
27.34533237,1.904788971,-13.13249084,2.676284637,13.53709852
27.35527238,1.128203888,-11.4131662,2.736309814,11.79069964
27.36521137,0.6906637573,-10.64810715,2.070195007,10.86944845
27.37515138,0.539178772,-10.75288925,1.730251923,10.90454551
27.38509037,1.632355499,-10.96245346,2.507735138,11.36348124
27.39503038,4.170627136,-11.18968094,3.221600647,12.3685812
27.40497038,6.804549866,-11.27934448,3.419788513,13.60957252
27.41490938,8.724607086,-11.67886368,2.816842346,14.84753267
27.42484938,10.10279114,-12.64899628,1.335971832,16.2434084
27.43478838,11.52588181,-13.88183258,0.2362088013,18.04458428
27.44472838,13.0083989,-14.81304611,-0.07694000244,19.71422574
27.45466738,14.22881104,-14.92007355,0.04909790039,20.61722747
27.46460738,14.6672493,-14.07612854,-0.2194436646,20.33011933
27.47454638,14.22611664,-12.83071838,-0.8003855896,19.17421044
27.48448638,13.27649139,-11.19566849,-1.632804565,17.44345916
27.49442538,12.39138199,-9.480834503,-1.707948303,15.69552987
27.50436538,10.45964905,-7.967331848,-1.069974976,13.1919476
27.51430438,8.179590454,-6.514902191,-0.7517367554,10.48402397
27.52424438,6.332281952,-5.693560181,-0.6819818115,8.542805244
27.53418438,5.042563934,-5.412744141,-0.2354603577,7.401397959
27.54412338,4.357887726,-5.38594986,0.4427792358,6.942311918
27.55406338,3.545077972,-5.447471924,1.042731628,6.582538829
27.56400238,3.007845154,-5.432952118,0.9565109253,6.283232793
27.57394238,2.958148499,-5.489684143,0.7038363647,6.275560545
27.58388138,3.272494812,-5.503455505,0.4860392761,6.42133
27.59382138,3.294199677,-5.346731415,0.1760339355,6.282537408
27.60376038,2.723735962,-5.053940277,-0.2538720703,5.74678179
27.61370038,2.378254395,-4.775668945,-0.2121089172,5.339297522
27.62363938,2.545756073,-4.533771973,0.01990859985,5.199649857
27.63357938,3.009192352,-4.259691925,-0.1222956848,5.216816093
27.64351938,3.627706146,-3.948339386,-0.4227209473,5.378506186
27.65345838,4.293970642,-3.603456573,-0.9032217407,5.677930315
27.66339838,4.904101868,-3.114273834,-1.463057556,5.990780755
27.67333738,5.352718964,-2.567610626,-1.971250763,6.255402002
27.68327738,5.645061035,-1.899549866,-2.476749573,6.450526508
27.69321638,5.919590149,-0.993633728,-2.783162384,6.616256371
27.70315638,5.802683258,-0.1437011719,-2.741997986,6.419527706
27.71309538,5.433101807,0.4632865906,-2.406695251,5.960319768
27.72303538,5.395380249,0.8598120117,-1.885479126,5.779657106
27.73297413,6.194119263,0.9108558655,-0.5569917297,6.285460336
27.74291413,7.65702713,0.7713459778,1.730102234,7.887857303
27.75285413,8.027057648,-0.6523434448,5.388344879,9.689864137
27.76279313,4.761598206,-5.168751526,11.99231186,13.89979689
27.77273313,0.7665559387,-11.33442993,21.04743164,23.9175937
27.78267213,-1.569486237,-17.63512756,19.13680481,26.07064076
27.79261213,-0.3613485718,-22.02295303,12.70542892,25.42772025
27.80255113,1.663939819,-26.38143951,14.65916611,30.22648173
27.81249113,3.774850159,-25.94539627,10.38390656,28.19997512
27.82243013,4.768184509,-18.80225052,6.362070007,20.41411626
27.83237013,2.600542145,-11.62123352,5.544320526,13.13603357
27.84230913,0.416434021,-7.316485291,5.670508118,9.266015142
27.85224913,-0.5821394348,-4.842430115,6.939120026,8.481709879
27.86218913,0.05343887329,-4.22406601,7.346273346,8.474274095
27.87212813,2.929557953,-6.525979156,3.37802536,7.910863991
27.88206813,6.951843567,-10.14410522,-1.899849243,12.44348934
27.89200713,9.643246765,-12.64570312,-6.078260193,17.02501873
27.90194713,9.29986084,-14.82502121,-7.544910278,19.05765821
27.91188613,8.191565552,-17.97312469,-1.819765778,19.835486
27.92182613,9.665849762,-18.96226776,5.248236237,21.92122793
27.93176513,11.77571228,-13.05106018,0.04939727783,17.57839616
27.94170513,10.87937622,-5.709876251,-0.1466949463,12.28759672
27.95164413,9.309141541,-1.886077881,-0.3620970154,9.505183862
27.96158413,7.87706955,-0.7441026306,-1.307231598,8.01939947
27.97152313,6.665788422,-0.8705895996,-3.753294983,7.699213256
27.98146313,6.916517029,-2.193089447,-5.249433746,8.95569114
27.99140313,8.03379364,-2.839295654,-5.645360413,10.22122959
28.00134213,9.429940338,-3.324137421,-5.775888977,11.54705841
28.01128213,10.14156052,-4.531676331,-5.165009308,12.25008821
28.02122113,9.597292328,-5.626499634,-4.173321533,11.8820087
28.03116113,8.414901123,-6.376739502,-3.295247498,11.06038081
28.04110013,7.54820343,-6.916666718,-2.388732605,10.51292999
28.05104013,7.035818939,-7.163353729,-1.791025543,10.19922337
28.06097913,6.865772552,-7.414082336,-1.469494171,10.21111467
28.07091913,7.149432678,-7.782615967,-1.277593231,10.64498677
28.08085813,7.428452454,-7.96014679,-1.206790466,10.95455093
28.09079813,7.150929565,-8.145311737,-1.19930603,10.90505534
28.10073813,6.641089783,-8.453969879,-1.206491089,10.81800818
28.11067713,5.954317932,-8.57791214,-1.219364319,10.51291244
28.12061713,5.361251221,-8.395890656,-1.258283386,10.04078043
28.13055613,4.91083786,-8.192763062,-1.211430817,9.628357061
28.14049613,3.819307709,-8.662037201,0.8427474976,9.504116118
28.15043513,1.911375275,-8.907526703,6.211632843,11.02641238
28.16037513,1.470242615,-8.677455139,5.406307526,10.32898844
28.17031413,2.268981628,-8.439599762,2.577340393,9.111410718
28.18025413,3.224145355,-8.114326172,1.110690308,8.801763201
28.19019313,3.746708679,-7.979306946,0.2480342102,8.81865558
28.20013313,4.040996704,-8.172405396,-0.2393522644,9.120041328
28.21007213,3.995940399,-8.412805481,-0.5801934814,9.331637595
28.22001213,3.748355255,-8.577463074,-0.5301974487,9.375721265
28.22995213,3.276686096,-8.932225342,-0.1357676697,9.515238
28.23989113,2.556383972,-9.568851471,0.6631210327,9.926618104
28.24983113,2.043101349,-10.21296204,2.117197266,10.62832917
28.25977013,2.353106689,-10.71786209,3.533252563,11.52794659
28.26971013,3.122656403,-11.02622086,3.986060944,12.13330999
28.27964913,3.868854675,-10.89284821,3.413651276,12.05301595
28.28958913,4.410278778,-10.27897476,2.417622528,11.44346013
28.29952813,4.452790375,-9.370364227,1.772015076,10.52478529
28.30946813,4.083807678,-8.532406769,1.810485077,9.631059476
28.31940713,3.936963043,-8.100854187,2.31792984,9.300339526
28.32934713,4.345014496,-8.456065521,2.624043274,9.862545218
28.33928713,4.89916214,-9.75266922,2.234702911,11.14047771
28.34922613,5.157375183,-11.11004654,1.447489929,12.3339726
28.35916613,5.150489502,-11.90983337,0.7744894409,12.99890407
28.36910513,5.184019775,-12.10353058,0.3779640198,13.17240943
28.37904513,5.045707397,-11.93857361,0.3748205566,12.96646418
28.38898413,4.647685089,-11.78948364,0.7872129822,12.69695261
28.39892413,4.037703552,-11.8444194,1.352138214,12.58656421
28.40886313,3.247945862,-12.2559137,1.764979706,12.80123925
28.41880313,2.264041901,-12.73521698,1.976340179,13.08501272
28.42874213,1.559157715,-12.84688477,2.489622803,13.17845373
28.43868213,1.070424042,-12.41443405,2.931952972,12.80079406
28.44862213,1.205892334,-11.63784897,3.154689789,12.11799375
28.45856113,2.052831116,-10.87997498,3.564537506,11.63159055
28.46850113,2.329006805,-10.56532928,3.544628906,11.38485176
28.47844013,1.891316986,-10.43929138,2.666105804,10.93910438
28.48838013,2.222278748,-10.40501266,2.356699219,10.89756131
28.49831913,3.792812805,-10.82473984,2.791245575,11.8047225
28.50825913,5.859265594,-11.6095578,3.409310303,13.44381725
28.51819813,7.565118256,-12.61696289,2.802472229,14.97573429
28.52813813,9.312584381,-13.8364769,1.039139099,16.71083872
28.53807713,11.34535721,-15.13158371,-0.08367599487,18.91266659
28.54801713,13.43860428,-16.06399475,-0.3305126953,20.94653315
28.55795713,15.30327667,-16.11848145,-0.2688409424,22.22764037
28.56789613,16.45243698,-15.55669968,-0.4629872131,22.64747104
28.57783613,15.81206863,-14.01715118,-1.121168518,21.16031807
28.58777513,14.06819504,-11.55297546,-1.077758789,18.23586899
28.59771513,12.24109451,-8.750054169,-1.18763031,15.09365127
28.60765413,10.2068248,-6.185287628,-1.82889679,12.07401834
28.61759413,8.080346832,-4.473597107,-2.169738007,9.487509632
28.62753313,6.510112152,-3.386856995,-1.307680664,7.454018329
28.63747313,5.317242737,-3.090772705,0.06780899048,6.150653973
28.64741213,4.601431274,-3.32653244,1.190624084,5.801428579
28.65735213,3.770958252,-3.876788177,1.950743408,5.749348881
28.66729212,2.977009277,-4.625980225,1.926493835,5.828692458
28.67723113,2.942580872,-5.094206543,1.408870239,6.0493502
28.68717112,3.311713257,-5.501659241,0.9605525208,6.492946961
28.69711013,3.266956329,-5.729784851,0.4896318054,6.613862518
28.70705012,2.802921295,-5.839806061,0.2198927307,6.481362158
28.71698913,2.488125916,-5.809868317,0.04805007935,6.320415274
28.72692912,2.337239685,-5.523813171,-0.07933502197,5.998457747
28.73686813,2.821183319,-5.134622498,-0.1809736633,5.861414077
28.74680813,3.537593536,-4.656666412,-0.4499642944,5.865285839
28.75674713,4.170327759,-4.148622894,-0.8092172241,5.937805828
28.76668713,4.799619141,-3.567381592,-1.203197937,6.100019721
28.77662713,5.392835541,-2.883603516,-1.698667603,6.346913898
28.78656613,5.786217499,-2.148631897,-2.176923065,6.544916043
28.79650613,5.9534198,-1.427431641,-2.633323975,6.664470238
28.80644513,5.980812836,-0.7773335266,-3.103496246,6.78277661
28.81638513,5.853278046,-0.1236428833,-3.242407379,6.692485118
28.82632413,5.846991119,0.3733236694,-2.640059967,6.426242475
28.83626413,6.606661377,0.5903723145,-1.430724792,6.785535163
28.84620313,8.221952362,0.482895813,0.4884342957,8.250591316
28.85614313,9.743837585,-0.05583389282,4.111051025,10.57573774
28.86608213,8.161627808,-3.388802948,10.77683945,13.93687276
28.87602213,3.308719482,-9.415420532,21.9849321,24.14404705
28.88596113,-0.7114704895,-16.58835434,27.08273117,31.7671846
28.89590113,-0.8083190918,-21.60367493,13.13129333,25.29432772
28.90584113,0.3245251465,-26.65581894,13.37348969,29.8242892
28.91578013,1.555415497,-28.06888046,11.47962799,30.36549401
28.92572013,3.317700806,-21.48242706,6.226901093,22.61141544
28.93565913,2.55892868,-13.28487396,5.153183899,14.47726827
28.94559912,0.6779402161,-7.56227417,5.526956635,9.391210955
28.95553813,-0.5093907166,-4.229754181,5.960305481,7.326359311
28.96547812,-1.11039093,-3.025508423,3.403622131,4.687356702
28.97541713,1.63579834,-3.063529358,0.8797206116,3.582590779
28.98535712,7.712411957,-4.569697266,-0.09385482788,8.96505661
28.99529613,11.95429092,-7.057374115,-1.336420898,13.94624042
29.00523612,12.87667282,-9.835297394,-0.5125341797,16.21124514
29.01517613,9.4437117,-15.14430725,0.9324110413,17.87185282
29.02511512,6.276448059,-19.9783548,-3.80867981,21.28460717
29.03505513,10.03198837,-20.12385223,-3.602109375,22.77247047
29.04499413,12.72204437,-15.50385956,0.4068539429,20.05955145
29.05493413,10.29364426,-8.30413147,-2.049837341,13.38355501
29.06487313,8.275840302,-3.218157806,-2.899620209,9.340977985
29.07481313,7.307354279,-1.813927917,-3.237317963,8.195607887
29.08475213,6.56998764,-2.404749298,-4.243375854,8.182529891
29.09469213,6.715634766,-2.706222382,-4.50128952,8.525549673
29.10463113,8.069120178,-2.788251801,-4.679868164,9.735821208
29.11457113,9.308093719,-3.490591278,-4.338877258,10.84669037
29.12451113,9.432634735,-4.369563446,-3.672762451,11.02528307
29.13445013,8.495433655,-5.269192657,-3.095413055,10.4651023
29.14439013,7.612419891,-5.957760773,-2.326761475,9.942719396
29.15432913,7.227420502,-6.23543335,-1.720821533,9.699353737
29.16426913,7.071295166,-6.437363434,-1.199156342,9.637470583
29.17420813,7.191644897,-6.774612122,-0.8940907288,9.920409465
29.18414813,7.578141174,-7.066654816,-0.7214996338,10.38683762
29.19408713,7.38324646,-7.480095062,-0.5963598633,10.52709815
29.20402713,6.651867371,-7.94727356,-0.6132746887,10.38184003
29.21396613,5.874833221,-8.231682129,-0.6581813049,10.13446884
29.22390613,5.296585693,-8.387957153,-0.5313949585,9.934486691
29.23384513,4.152365112,-8.785979462,1.661245422,9.858768051
29.24378512,2.575693817,-9.398356018,4.970114594,10.93916512
29.25372513,2.590812378,-9.112450562,3.013683014,9.941395743
29.26366412,2.907553711,-8.666378174,0.9924362183,9.194830552
29.27360413,3.077151031,-8.588540039,0.4417314148,9.133838466
29.28354312,3.183280334,-8.510402527,0.206869812,9.088620356
29.29348313,3.315006409,-8.294850769,-0.2148033142,8.935320768
29.30342212,3.623365173,-7.97526535,-0.7478448486,8.791638329
29.31336213,3.863316193,-7.838300171,-1.017583923,8.797706441
29.32330112,3.829187164,-8.200696564,-0.9139993286,9.096674845
29.33324113,3.686234436,-8.80603775,-0.7506889343,9.575915573
29.34318113,3.48684906,-9.403595123,-0.2338137817,10.03196823
29.35312013,2.81399826,-10.18437149,0.9208850098,10.60603781
29.36306013,2.206711121,-10.90602081,2.258204041,11.35386936
29.37299913,2.298919373,-11.29012207,3.202590179,11.95861491
29.38293913,2.944826202,-10.96889008,3.351979523,11.84163492
29.39287813,3.314557343,-10.08378067,2.965183868,11.02094544
29.40281813,3.166365509,-9.186696167,2.731669464,10.09372454
29.41275713,2.899769897,-8.650511169,2.822530518,9.550219237
29.42269713,2.91114624,-8.54752533,2.672392731,9.416827735
29.43263613,3.174149323,-9.085356903,1.9083815,9.811261587
29.44257613,3.669169922,-10.2518811,0.8119116211,10.91893193
29.45251513,4.130660248,-11.59937897,-0.02859054565,12.31295106
29.46245513,4.432133331,-12.19708603,-0.3031196594,12.98093198
29.47239513,4.599036255,-11.66120041,0.009729766846,12.535343
29.48233413,4.779560852,-10.67699707,0.8379574585,11.72794275
29.49227413,4.966072998,-9.87316864,1.72591095,11.18571002
29.50221313,5.061125336,-9.507479095,2.309247894,11.01543346
29.51215313,4.967420197,-9.66959198,2.590962067,11.17539068
29.52209213,4.692442017,-10.37058426,2.700384521,11.69872243
29.53203213,4.126169586,-11.83618652,2.614612885,12.8045612
29.54197112,3.230432281,-13.50446732,2.335144043,14.08045553
29.55191113,2.737058258,-14.33239563,2.766247559,14.85130223
29.56185012,2.559976501,-13.57003098,3.166365509,14.16774826
29.57179013,2.58242981,-12.18990097,2.583028564,12.72535524
29.58173013,2.134561157,-11.22096588,1.42862915,11.51118621
29.59166913,1.819316711,-10.44902115,0.6083349609,10.62365416
29.60160913,2.443518677,-9.577832794,1.231189728,9.96099858
29.61154813,4.053420868,-9.693991241,2.991978149,10.92499978
29.62148813,5.839656372,-10.40665924,4.215533752,12.65586299
29.63142713,7.563621368,-11.32754425,3.496578827,14.06227899
29.64136713,9.404193878,-12.80212784,1.514550476,15.95704242
29.65130613,11.31721573,-14.31368454,0.1978884888,18.24829024
29.66124613,13.31810486,-15.2817215,-0.1642085266,20.27140581
29.67118513,15.34683609,-15.61043793,-0.08726852417,21.8910659
29.68112513,16.52758072,-14.80092133,0.2908451843,22.18812267
29.69106513,15.64202225,-12.76515472,1.079555054,20.21849337
29.70100413,13.46958984,-10.47955765,1.803749084,17.16113312
29.71094413,11.42080032,-8.479267273,1.323697357,14.28582613
29.72088313,9.606573029,-6.574627991,-0.1724414062,11.64223838
29.73082338,7.474257202,-5.354664917,-1.398691406,9.300177135
29.74076238,5.706283722,-4.791086884,-1.658401337,7.633248485
29.75070238,4.532724152,-4.550088043,-0.9822573853,6.497208555
29.76064138,3.7676651,-4.500840454,0.02305206299,5.869701568
29.77058138,2.779569855,-4.688699799,0.9690847778,5.536157484
29.78052138,2.023641815,-5.028044128,1.264720001,5.56559706
29.79046038,2.063908081,-5.286855927,1.034648438,5.768973873
29.80040038,2.794239349,-5.284760284,0.4788542175,5.997146502
29.81033938,3.195255432,-5.135969696,-0.05358856201,6.04902585
