Time (s),Acceleration x (m/s^2),Acceleration y (m/s^2),Acceleration z (m/s^2),Absolute acceleration (m/s^2)
0.002283916692,3.096460876,-5.197641449,-0.87522995,6.113065848
0.01222291667,1.940564575,-5.315596161,-1.218466187,5.788437895
0.02216291669,0.7833210754,-5.305567017,-1.290017395,5.516047331
0.03210191667,-0.233664093,-5.144501953,-1.019380188,5.249727157
0.04204191669,-1.217418365,-4.863985291,-0.5924679565,5.048908661
0.05198091667,-2.092648315,-4.639601898,-0.1733395386,5.092654449
0.06191991668,-2.774181061,-4.626129913,0.01796264648,5.394208115
0.07185991667,-2.97790741,-4.942272491,0.5755531311,5.798728423
0.08179891668,-2.185305634,-5.583538971,2.262245636,6.408527403
0.09173891667,0.02709365845,-6.081703033,4.723427582,7.700559329
0.1016779167,2.560575256,-6.43661499,7.220534821,10.00613218
0.1116179167,5.34373764,-7.09539505,10.46608566,13.72731263
0.1215569167,8.037984924,-8.50531311,13.89006546,18.16269449
0.1314959167,10.51697983,-10.75453583,14.79283813,21.09727389
0.1414359167,12.55065079,-12.98085617,13.92928391,22.80452613
0.1513749167,14.50079544,-13.4794693,14.85121674,24.74929897
0.1613149167,16.13419876,-11.2247081,14.15591263,24.22181463
0.1712539167,16.42354706,-7.544610901,11.80250656,21.58594943
0.1811939167,14.42235855,-3.98995285,8.584797821,17.25175074
0.1911329167,11.55716675,-1.635948029,6.443051605,13.33256701
0.2010729167,9.969568176,-0.8322692871,3.980223083,10.76694653
0.2110119167,9.427844696,-2.31209198,-1.761087799,9.865670538
0.2209519167,9.332792358,-5.7158638,-7.818990326,13.4502313
0.2308909167,8.911867676,-9.417216797,-10.40501266,16.62436905
0.2408299167,8.525072021,-11.41795624,-10.400522,17.64135583
0.2507699167,8.943152618,-12.20352264,-7.682025146,16.96818947
0.2607089167,9.334738312,-12.9711264,-3.136727142,16.28577652
0.2706489167,11.57153687,-13.55805588,9.80760498,20.34478951
0.2805879167,7.043602753,-12.02509369,16.19197861,21.3634124
0.2905279167,0.282462616,-9.078620911,4.925058289,10.33234445
0.3004669167,-1.374741211,-6.734345856,-0.9306147766,6.935947762
0.3104069167,-2.534529419,-5.913303223,-0.9809101868,6.50793202
0.3203459167,-2.009421387,-6.17451004,-1.498982849,6.664030172
0.3302849167,-0.08666976929,-7.051536255,-2.229613495,7.39613761
0.3402249167,1.079704742,-8.451125793,-2.184257813,8.795355121
0.3501639167,2.054777069,-9.935139771,-2.217638397,10.38494252
0.3601039167,2.910996552,-10.98355957,-2.267784119,11.58686008
0.3700429167,3.5102005,-11.09313171,-2.301015015,11.86059648
0.3799829167,3.841162262,-10.2837648,-2.250869293,11.20610363
0.3899219167,3.902384949,-9.263935547,-2.038910065,10.2570105
0.3998619167,3.719914398,-8.441246338,-1.970502319,9.432671003
0.4098009167,3.754941559,-7.698191528,-1.921105042,8.777948707
0.4197399167,3.48565155,-7.468269653,-1.891766052,8.455979963
0.4296799167,3.222947845,-7.533234558,-2.010918274,8.436871934
0.4396189167,3.444636841,-7.571854248,-2.466121674,8.676419528
0.4495589167,4.31881897,-7.575895844,-2.654579773,9.115546549
0.4594979167,5.384452972,-7.722890167,-1.688937836,9.564929553
0.4694379167,5.955066376,-7.889044647,-0.8369096375,9.919690455
0.4793769167,5.898933105,-7.77872406,-0.5399272156,9.777396442
0.4893169167,5.778882751,-7.525899811,-0.1044827271,9.489234451
0.4992559167,6.054459686,-7.254214783,0.7388635254,9.477659707
0.5091949167,6.4869104,-7.091503143,2.022144928,9.821328499
0.5191349167,6.759942627,-6.952292633,3.617826691,10.34987281
0.5290739167,6.763235779,-6.704707489,3.82499588,10.26279953
0.5390139167,6.773564301,-6.688990173,2.041005707,9.735988248
0.5489529167,6.703210602,-6.686744843,0.5695655823,9.485251389
0.5588929167,6.454427948,-6.544989624,-0.2655477905,9.196034197
0.5688319167,6.372847595,-6.408623199,-0.8138575745,9.074469788
0.5787719167,6.424190826,-6.372548218,-1.249002686,9.134528246
0.5887109167,6.827601929,-6.475084991,-1.258882141,9.493558763
0.5986499167,7.214547272,-6.649472351,-0.9919871521,9.861501579
0.6085899167,7.32711319,-6.948400726,-0.8449928284,10.13315712
0.6185289167,7.483537903,-7.339537354,-0.6761439514,10.5037764
0.6284689167,7.582631836,-7.703730011,-0.3348536682,10.81461458
0.6384079167,7.462431793,-7.940986633,0.09789642334,10.89755664
0.6483479167,7.159910889,-8.051157532,0.6991960144,10.7969596
0.6582869167,6.691385193,-8.084987183,1.550026703,10.60868683
0.6682265833,6.076463928,-8.149952087,2.918930054,10.57663867
0.6781655833,5.371280365,-8.343050537,5.210514679,11.2074354
0.6881045834,5.489384766,-8.426127777,5.326523438,11.38001873
0.6980445833,6.88942337,-8.300089874,2.068548431,10.98337557
0.7079835834,8.593479767,-8.038583679,-0.3845503235,11.77347022
0.7179235833,9.714797974,-7.63831604,-1.08584198,12.40565292
0.7278625834,10.24978546,-7.105424194,-1.045426025,12.5155132
0.7378025833,10.34872971,-6.51969223,-0.9213340759,12.26586523
0.7477415834,10.34858002,-6.205345917,-0.5921685791,12.0809805
0.7576815833,10.38480469,-6.414311371,0.0462538147,12.20613363
0.7676205834,10.32477951,-7.174879761,1.654210052,12.68133993
0.7775595833,10.19425095,-8.265362091,3.917802887,13.69628206
0.7874995834,10.38944504,-9.399852905,4.602928162,14.74736419
0.7974385833,10.96769257,-10.1789827,4.004322968,15.4898861
0.8073785834,11.04193817,-10.24035507,3.805386658,15.53287604
0.8173175833,10.38001465,-9.652826843,3.667523346,14.64146501
0.8272575834,9.717941437,-9.042994995,2.991828461,13.60754136
0.8371965833,8.979526978,-8.619824982,3.019820251,12.80830207
0.8471365834,8.252937927,-8.491691437,3.156186676,12.25484893
0.8570755833,7.579638062,-9.072034607,2.848426666,12.16002712
0.8670145833,6.987170105,-9.572893066,1.028960266,11.89620053
0.8769545833,7.25451416,-9.293873291,-2.973416748,12.15916377
0.8868935833,7.435038757,-9.165440369,-5.146597595,12.87526952
0.8968335833,7.066954193,-9.689799957,-4.998106384,12.99288775
0.9067725833,7.198979645,-10.49677185,-4.070186005,13.36315611
0.9167125833,7.871082001,-11.82002014,-2.944377136,14.50297089
0.9266515833,8.378526764,-13.72705444,-0.9782157898,16.11175473
0.9365915833,7.781568146,-15.3785701,3.958518219,17.68397827
0.9465305833,6.523434448,-15.61986832,9.150920563,19.24252661
0.9564705833,6.092181244,-15.23935959,7.644602966,18.10504646
0.9664095833,6.177054749,-14.37625443,2.682571564,15.87541769
0.9763485834,6.109994202,-13.23951828,-1.157542877,14.6272615
0.9862885833,5.570665741,-11.74592422,-3.430266724,13.4449166
0.9962275834,4.40533905,-10.13168106,-3.569177856,11.61021119
1.006167583,4.172423401,-8.318052521,-2.356699219,9.599643013
1.016106583,3.673061829,-6.884633331,-1.926194458,8.037399106
1.026046583,3.417393494,-6.044729919,-1.410516815,7.08568245
1.035985583,3.629203033,-5.311853943,-0.4508624268,6.449045193
1.045924583,3.623065796,-5.073399811,-0.1932481384,6.237253903
1.055864583,3.590583344,-5.09690094,-0.552052002,6.259029426
1.065803583,3.461401978,-5.12144989,-0.6646179199,6.217094949
1.075743583,3.2341745,-5.159321136,-0.7300318909,6.132815491
1.085682583,3.210972748,-5.283113708,-0.7584727478,6.228717151
1.095622583,3.411256256,-5.389841766,-0.9991722107,6.456423826
1.105561583,3.556454315,-5.441783752,-1.066532135,6.587781759
1.115501583,3.652853851,-5.468727722,-0.9286688232,6.64174299
1.125440583,3.513942719,-5.538931732,-1.076261902,6.647247389
1.135379583,2.621797943,-5.442681885,-1.321901093,6.18417602
1.145319583,1.072519684,-5.214406586,-1.395547943,5.503443338
1.155258583,-0.2353106689,-4.864584045,-1.369202728,5.059077501
1.165198583,-1.164877625,-4.577481079,-1.247056732,4.88522501
1.175137583,-1.7902771,-4.352648621,-0.9764195251,4.806665913
1.185077583,-2.16464859,-4.291126556,-0.8198451233,4.875614491
1.195016583,-2.378703461,-4.412524109,-0.6418652344,5.053769894
1.204956583,-2.218686218,-4.751119995,-0.04685256958,5.243844478
1.214895583,-1.913171539,-5.489684143,1.868264923,6.106330416
1.224834583,-0.1314266968,-6.082301788,5.70538559,8.340449193
1.234774583,2.627785492,-6.4577211,10.56023987,12.65409359
1.244713583,5.83172287,-7.175328827,14.68745728,17.35556789
1.254653583,9.532477112,-8.930429077,16.11922989,20.74729514
1.264592583,13.1317424,-12.2213356,14.09543839,22.81414223
1.274532583,15.41808792,-15.50101547,16.42115204,27.34324688
1.284471583,16.88339081,-16.47414185,18.59912292,30.03953409
1.294411583,16.6751738,-14.03601196,15.99753296,27.03686583
1.304350583,13.30283661,-9.181157684,10.07884094,19.04841602
1.314289583,9.167386322,-4.885540466,5.635630646,11.81819827
1.324229583,6.170169067,-2.253863068,4.869823151,8.177167148
1.334168583,4.021986237,-1.54329071,5.293591919,6.824971422
1.344108583,4.756658478,-3.32892746,2.948418732,6.511584364
1.354047583,7.744295654,-6.453380127,-4.799768829,11.1650352
1.363987583,10.22388931,-9.314230957,-11.88543411,18.23585356
1.373926583,9.758656769,-11.19761444,-12.57160721,19.4592718
1.383866583,8.142168274,-12.22013809,-9.315727844,17.38992422
1.393805583,7.695197754,-12.54735764,-4.757257233,15.46879919
1.403745583,8.208181,-12.52116211,3.300935669,15.33133759
1.413684583,6.295757904,-11.75999496,16.01729187,20.84436826
1.423623583,1.374142456,-9.362580414,8.478518829,12.70556811
1.433563583,-0.4785548401,-7.507787476,0.2912942505,7.528661226
1.443502583,-1.331032104,-6.805897064,-0.6429130554,6.964568796
1.453442583,-0.8834628296,-7.068600769,-1.790576477,7.345188052
1.463381583,0.7749385071,-7.958799591,-3.056044922,8.560515825
1.473321583,1.425635376,-8.949888611,-2.802472229,9.486136883
1.483260583,2.094594269,-9.790839844,-2.954855347,10.43930266
1.493200583,3.019520874,-10.34034714,-3.162473602,11.22682166
1.503139583,3.985611877,-10.22852966,-3.100951538,11.40718289
1.513078583,4.409530334,-9.529483337,-2.963986359,10.9105557
1.523018583,4.692142639,-8.714278564,-2.785856781,10.28182141
1.532957583,5.06531662,-8.087831268,-2.537223816,9.874611475
1.542897583,5.146447906,-7.97766037,-2.256707153,9.75816162
1.552836583,5.033133545,-7.912994843,-2.21853653,9.636899138
1.562776583,5.132077789,-7.490273895,-2.575693817,9.438041328
1.572715583,6.00132019,-7.339387665,-2.0371138,9.697024696
1.582654583,6.90813446,-7.445367279,-0.8545729065,10.19245361
1.592594583,7.097191315,-7.354805603,-0.2264790344,10.22323739
1.602533583,6.891369324,-7.082970886,0.3168910217,9.887358983
1.612473583,6.463858337,-6.609355774,1.694925385,9.398820161
1.622412583,5.491929474,-6.311924286,5.022355957,9.758367532
1.632352583,4.31642395,-6.45652359,6.644233246,10.22076553
1.642291583,4.552033997,-6.641987915,4.027075653,9.003019232
1.652231583,5.165009308,-6.821015625,1.279090118,8.65099109
1.662170583,5.39642807,-7.009473724,-0.2893482971,8.850868898
1.672112417,5.463039551,-7.122039642,-0.9430389404,9.025384881
1.682051417,5.468428345,-7.124883728,-1.14317276,9.053978168
1.691990417,5.449866943,-7.015311584,-0.9852511597,8.937917329
1.701930417,5.867049408,-6.774013367,-0.785716095,8.995936618
1.711869417,6.555767212,-6.580914917,-0.6277944946,9.310244401
1.721809417,6.998396759,-6.398444366,-0.5083428955,9.496107624
1.731748417,7.584727478,-6.370153198,-0.3312611389,9.910432716
1.741688417,8.216264191,-6.601422272,-0.2992277527,10.54397034
1.751627417,8.638536072,-6.921905823,-0.4372407532,11.07827898
1.761566417,8.82594635,-7.217690735,-0.2948867798,11.4052333
1.771506417,8.766370239,-7.435787201,0.1823208618,11.49666993
1.781445417,8.164621582,-7.635322266,0.9487271118,11.21870201
1.791385417,7.016658783,-7.870333557,2.200424194,10.77114281
1.801324417,6.000571747,-8.211773529,3.735332336,10.8347955
1.811264417,5.788762207,-8.559799805,3.989653473,11.07688022
1.821203417,6.646777954,-8.772806854,2.253414001,11.23475286
1.831143417,8.007747803,-8.730594635,0.5319937134,11.85876574
1.841082417,9.157806244,-8.358318787,-0.3520678711,12.40366317
1.851021417,9.951306152,-7.705825653,-0.6209088135,12.60134004
1.860961417,10.30217651,-7.075785828,-0.4454736328,12.50599987
1.870900417,10.29080017,-6.505471802,-0.06122268677,12.17478869
1.880840417,9.990075531,-6.271508331,0.6239025879,11.81197191
1.890779417,9.670340424,-6.504124603,2.079176331,11.83816265
1.900719417,9.750723267,-7.244335327,3.611390076,12.67277147
1.910658417,10.47057632,-8.216413879,3.906576233,13.87096837
1.920598417,11.46106659,-9.054970093,3.78877121,15.08984155
1.930537417,11.6679364,-9.343719635,4.351451111,15.56858899
1.940476417,10.94628708,-8.886719971,4.253404999,14.72706511
1.950416417,10.04111938,-7.968679047,3.394341431,13.26067412
1.960355417,9.837393036,-7.323670349,3.036884766,12.63460004
1.970295417,9.40628952,-7.279961243,1.770817566,12.02546935
1.980234417,8.742420044,-7.937394104,-0.1290316772,11.8088434
1.990174417,7.974816284,-8.717422028,-0.9059161377,11.8495496
2.000113417,7.674091644,-9.166338501,-2.782114563,12.27410304
2.010053417,7.853867798,-9.262288971,-4.398153992,12.91576536
2.019992417,7.628885651,-9.637408905,-4.397704926,13.05447645
2.029931417,7.829318848,-10.57251434,-3.547323303,13.6257035
2.039871417,8.644822998,-11.74906769,-2.488125916,14.79744325
2.049810417,9.041947174,-13.36615494,-1.319506073,16.19110876
2.059750417,8.477471008,-14.71350311,-0.2734812927,16.98321173
2.069689417,6.781497803,-15.8482933,2.317780151,17.39336707
2.079629417,5.260959778,-16.29436569,5.82588501,18.08659689
2.089568417,4.944368134,-15.46718582,5.287155304,17.07731316
2.099508417,4.536616058,-14.24497742,2.402054901,15.14166882
2.109447417,4.199367371,-12.49302063,-0.162412262,13.18091911
2.119386417,3.802392883,-10.42058029,-1.815424805,11.24021586
2.129326417,3.13822403,-8.679251404,-2.449057159,9.548598639
2.139265417,3.324137421,-7.445367279,-2.000290375,8.395507435
2.149205417,3.487148438,-6.740782471,-1.4929953,7.734816579
2.159144417,3.761976929,-5.971232758,-1.082399139,7.140005529
2.169084417,3.590733032,-5.404211884,-1.102906494,6.581433926
2.179023417,3.144660645,-5.047952728,-1.421444092,6.114836108
2.188963417,3.059038696,-4.752167816,-1.340462494,5.808412554
2.198902417,3.36634964,-4.385131073,-1.198557587,5.656697333
2.208841417,3.757037201,-4.299509125,-1.292711792,5.854247263
2.218781417,4.358486481,-4.450545044,-1.130898285,6.331088889
2.228720417,4.90380249,-4.790188751,-1.192869415,6.958169628
2.238660417,5.206173706,-5.20916748,-1.45093277,7.506322428
2.248599417,5.130131836,-5.476960602,-1.396446075,7.63317835
2.258539417,4.601431274,-5.551804962,-1.295555878,7.326265975
2.268478417,3.554508362,-5.636528778,-1.136586456,6.759941947
2.278417417,2.421514435,-5.820196838,-1.461261292,6.47098972
2.288357417,1.350641327,-5.984854431,-1.815125427,6.398233731
2.298296417,0.1133143616,-5.998775482,-1.838776245,6.27528848
2.308236417,-0.9713301086,-5.888305206,-1.387015686,6.126943193
2.318175417,-1.673070831,-5.713019714,-0.5655239868,5.979764012
2.328115417,-1.976489868,-5.720354462,0.336051178,6.061509528
2.338054417,-1.96107193,-6.092779999,1.535656586,6.582249796
2.347994417,-1.390907593,-6.708749084,3.481909332,7.685416762
2.357933417,0.2829116821,-7.254214783,7.358547821,10.33691913
2.367872417,2.633922729,-8.124505005,13.86147491,16.2814501
2.377812417,5.559139709,-9.286538544,18.47592911,21.41270158
2.387751417,8.095615082,-10.87338867,15.78302902,20.8056139
2.397691417,9.777068481,-12.41937378,12.00323914,19.84715755
2.407630417,10.66621948,-13.18637878,13.18637878,21.48323553
2.417570417,10.52745804,-11.48007706,12.5133783,19.98009455
2.427509417,9.772877197,-7.930508423,9.447004852,15.73683555
2.437449417,9.24836792,-4.975653076,6.485263824,12.34293642
2.447388417,9.138646088,-3.172502747,5.166206818,10.96673693
2.457327417,9.792785797,-2.678679657,6.76548111,12.20023414
2.467267417,11.22096588,-4.014501801,7.148534546,13.89704451
2.477206417,12.80287628,-6.84736084,1.407073975,14.58697531
2.487146417,13.01648209,-9.975406036,-7.769443359,18.14667412
2.497085417,11.55372391,-12.00249069,-13.84964951,21.66474349
2.507025417,10.03797592,-12.66770737,-12.25037521,20.28061792
2.516964417,9.814790039,-12.33569778,-7.062463531,17.27361961
2.526904417,9.633067932,-10.74046509,-1.107247467,14.46995456
2.536843417,7.695347443,-8.023914185,9.70821167,14.75977456
2.546782417,1.318757629,-5.694458313,9.187594299,10.88934645
2.556722417,-0.9761201477,-4.263434143,3.071612549,5.344575276
2.566661417,-0.5580395508,-4.075724487,-0.05358856201,4.114098926
2.576601417,0.2088157654,-5.256618805,-1.744921417,5.542598311
2.586540417,1.258133698,-6.990463257,-2.615211639,7.568937103
2.596480417,1.791175232,-8.786578217,-2.180365906,9.228556818
2.606419417,2.855312347,-10.53359528,-1.708696747,11.04667745
2.616359417,3.949387207,-11.89815765,-1.449585571,12.62002826
2.626298417,4.749623108,-12.44661713,-1.229992218,13.37871737
2.636237417,5.248535614,-11.62168259,-1.036893768,12.7939744
2.646177417,5.081782379,-9.623487854,-0.9848020935,10.92729911
2.656116417,4.661456451,-7.915090485,-1.189426575,9.262427825
2.666056417,4.368665314,-6.760092316,-1.548978882,8.196549293
2.675993542,4.672982483,-6.209537201,-1.374441833,7.892034458
2.685933542,5.2314711,-6.223907318,-0.6706054688,8.158126247
2.695872542,5.518125,-6.675069122,-0.06346801758,8.660847504
2.705811542,5.606890411,-7.147337036,0.3219804382,9.089846984
2.715751542,5.589676208,-7.43818222,0.545615387,9.32033964
2.725690542,5.296436005,-7.550897827,0.7482939148,9.253552622
2.735630542,5.087919617,-7.41019043,0.7861651611,9.023076188
2.745569542,5.284610596,-7.095694427,0.7795788574,8.881651409
2.755509542,5.54506897,-6.936126251,0.8387059021,8.919700939
2.765448542,5.479654999,-7.018754425,0.7816744995,8.938710623
2.775388542,5.32158371,-7.021149445,0.5861810303,8.829462096
2.785327542,5.374872894,-6.952442322,-0.1336720276,8.788832748
2.795266542,5.578599243,-6.95378952,-0.8378077698,8.954210187
2.805206542,5.562881927,-6.972799988,-1.100062408,8.987532048
2.815145542,5.60120224,-6.945556641,-1.010548553,8.979723379
2.825085542,5.723048859,-6.866520996,-0.8674461365,8.980805177
2.835024542,5.871989136,-6.8041008,-0.7914042664,9.022325909
2.844964542,5.946234741,-6.839577026,-0.6203100586,9.084178888
2.854903542,6.030359802,-6.803801422,-0.2836601257,9.096011005
2.864843542,6.020031281,-6.891668701,0.08622070312,9.151136985
2.874782542,5.918991394,-7.217690735,0.4246669006,9.343974564
2.884721542,5.820196838,-7.627987518,0.6276448059,9.615343094
2.894661542,5.787864075,-8.031398621,0.8331674194,9.934631463
2.904600542,6.020630035,-8.47028595,1.306034088,10.47375077
2.914540542,6.340514832,-8.795110474,2.155218201,11.05445892
2.924479542,6.526128845,-8.801547089,3.112926636,11.39069362
2.934419542,6.624923401,-8.538394318,3.51379303,11.36400145
2.944358542,6.877148895,-8.230185242,2.800077209,11.0847444
2.954297542,7.621700592,-7.941286011,1.286424866,11.0819327
2.964237542,8.657247162,-7.666906586,-0.01930984497,11.56415833
2.974176542,9.373956757,-7.322472839,-0.6539900208,11.91290799
2.984116542,9.548044739,-6.860832825,-0.7277865601,11.77989213
2.994055542,9.482630768,-6.482719116,-0.3965254211,11.49361413
3.003995542,9.279503174,-6.395300903,0.2348616028,11.27227629
3.013934542,9.118138733,-6.775360565,1.283131714,11.43207731
3.023874542,9.225914612,-7.495662689,2.609074402,12.17003405
3.033813542,9.819580078,-8.211025085,3.09601181,13.16929668
3.043752542,11.19731506,-8.745862885,2.48872467,14.42441447
3.053692542,12.40605148,-9.020092621,2.453996887,15.53365009
3.063631542,12.4629332,-8.809330902,3.12295578,15.57824983
3.073571542,11.52947433,-8.117020569,3.610192566,14.55500916
3.083510542,10.37432648,-7.642207947,3.430266724,13.33404372
3.093450542,9.488768005,-7.718549194,3.858675842,12.82583717
3.103389542,8.337661743,-8.291407928,3.016078033,12.13922467
3.113329542,7.266040192,-9.349108429,2.168839874,12.03765072
3.123268542,7.047794037,-10.16640884,0.3040177917,12.37415437
3.133207542,7.744595032,-10.36354889,-3.006947021,13.28245565
3.143147542,8.12270874,-10.84599564,-4.577181702,14.30260854
3.153086542,8.388705597,-11.65955383,-4.214186554,14.96913309
3.163026542,9.063951416,-12.82892212,-3.369493103,16.06517793
3.172965542,9.652976532,-14.64374817,-2.205214233,17.6771685
3.182905542,9.303603058,-16.22805359,-0.0,18.70579464
3.192844542,7.257208557,-15.9943895,5.481451263,18.39929019
3.202783542,5.725892944,-14.71305405,10.50725006,18.96475977
3.212723542,5.642366638,-13.51419708,7.378007355,16.39831749
3.222662542,5.301824799,-12.55439301,1.423539734,13.70213835
3.232602542,4.781955872,-11.31781448,-1.860930176,12.42670865
3.242541542,4.479734344,-9.955347748,-2.746338959,11.25696879
3.252481542,4.205953674,-8.787027283,-3.231480103,10.26373998
3.262420542,4.249363403,-7.842790833,-3.819307709,9.703276186
3.272360542,4.266876984,-7.04270462,-3.71033432,9.031750015
3.282299542,3.70913681,-6.266119537,-3.05978714,7.898369913
3.292238542,3.235821075,-5.596112823,-2.120939484,6.803337494
3.302178542,3.028053131,-4.907245331,-0.7095245361,5.80978378
3.312117542,2.990032196,-4.500541077,0.2606080627,5.409535939
3.322057542,3.099903717,-4.392615509,0.5140310669,5.400805681
3.331996542,3.256777496,-4.31762146,0.3132984924,5.41725121
3.341936542,3.413950653,-4.374353485,-0.5152285767,5.572745101
3.351875542,3.892505493,-4.840933228,-1.079555054,6.304892754
3.361815542,4.418062592,-5.178930359,-1.482666779,6.966986257
3.371754542,4.922962646,-5.304369507,-1.484762421,7.387585298
3.381693542,5.171595612,-5.389841766,-1.133143616,7.555118125
3.391633542,4.743785248,-5.419330444,-0.9627978516,7.266334746
3.401572542,3.608396301,-5.440436554,-0.8755293274,6.586761372
3.411512542,1.712738342,-5.421276398,-0.8424481201,5.747471552
3.421451542,0.3002755737,-5.263205109,-0.8861572266,5.345724279
3.431391542,-0.5180726624,-5.060975647,-0.7943980408,5.149071958
3.441330542,-1.132844238,-4.858297119,-0.6658154297,5.032861726
3.451269542,-1.677711182,-4.719685364,-0.4358935547,5.027936747
3.461209542,-1.995650024,-4.817581787,0.5028044128,5.238752292
3.471148542,-1.745370483,-5.591472473,2.217937775,6.263396085
3.481088542,0.5114863586,-6.085744629,4.812342682,7.775380896
3.491027542,3.911515961,-6.166726227,9.009464722,11.59736712
3.500967542,7.455097046,-6.553372192,14.13465683,17.27175969
3.510906542,10.65529221,-7.710016937,16.74717407,21.29430564
3.520845542,12.74389893,-9.710007935,15.14071472,22.04387571
3.530785542,14.02313873,-11.350746,13.6599939,22.62925734
3.540724542,14.95225662,-10.79390396,12.62714172,22.35001228
3.550664542,15.02485565,-8.186176758,10.01716919,19.82683676
3.560603542,14.29542252,-5.368735657,7.43937973,16.9860766
3.570543542,12.59106674,-3.102598114,5.417683868,14.05390961
3.580482542,10.33870056,-1.554816742,5.057832184,11.6141229
3.590422542,8.706195374,-1.65450943,4.026327209,9.733783958
3.600361542,9.278006287,-3.969445496,-1.09871521,10.15111192
3.610300542,10.51907547,-7.429649963,-7.680827637,14.9948578
3.620240542,10.23137375,-10.97233292,-11.13279922,18.68187135
3.630179542,9.053772583,-12.7256369,-10.37477554,18.74962933
3.640119542,8.781788177,-13.85833145,-6.328539734,17.58475389
3.650058542,10.09276199,-15.22409134,4.989873505,18.93503735
3.659998542,8.209079132,-15.19699768,20.9564209,27.15712237
3.669937333,1.85464325,-11.33862122,8.247998199,14.14332022
3.679876333,0.04924758911,-7.618257751,-2.66894989,8.072395556
3.689816333,-0.9740245056,-6.216123505,-3.772754517,7.336388199
3.699755333,-1.358125763,-6.334078217,-3.18028656,7.216597193
3.709695333,-0.7491920471,-6.823260956,-2.79768219,7.41250325
3.719634333,0.3165916443,-7.723039856,-2.370171204,8.084756423
3.729574333,0.8539741516,-8.896898804,-2.373464355,9.247562556
3.739513333,1.455124054,-10.10967682,-2.720143433,10.56986905
3.749453333,2.681224365,-10.81785416,-2.852917328,11.50452389
3.759392333,3.727698212,-10.69600754,-2.836152191,11.67664637
3.769331333,4.160448303,-10.01447479,-2.557880859,11.14189346
3.779271333,4.112697601,-8.991352386,-2.304607544,10.15233546
3.789210333,4.080364838,-8.229586487,-2.160307617,9.436228058
3.799150333,3.883823547,-7.879913635,-2.275567932,9.074983948
3.809089333,3.72201004,-8.070167999,-2.238894196,9.164803189
3.819029333,4.123026123,-8.204438782,-2.142494659,9.42880923
3.828968333,4.760101318,-8.055648193,-2.576442261,9.705157758
3.838907333,5.805078278,-8.020471344,-2.220332794,10.14676166
3.848847333,6.532864838,-8.232131195,-0.7394622803,10.53532683
3.858786333,6.440806274,-8.066874847,0.2327659607,10.32533947
3.868726333,5.984405365,-7.716603241,1.526824951,9.883838707
3.878665333,5.276527405,-7.383994904,4.685256958,10.21355741
3.888605333,4.820575562,-7.192842407,5.989494781,10.52848414
3.898544333,5.310207367,-7.240892487,4.022584991,9.839208113
3.908483333,5.704637146,-7.206464081,1.792073364,9.364162347
3.918423333,5.736670532,-6.982679443,-0.2151026917,9.03955033
3.928362333,5.820346527,-6.842421112,-1.549577637,9.115720006
3.938302333,5.927972717,-6.880591736,-1.985171814,9.296467625
3.948241333,5.717809753,-6.779252472,-2.019749908,9.095658423
3.958181333,5.565127258,-6.597979431,-1.588646393,8.776546663
3.968120333,5.918991394,-6.370302887,-1.006207581,8.753723304
3.978060333,6.52792511,-6.293063507,-0.5803431702,9.085882056
3.987999333,7.076234894,-6.606212311,-0.06601272583,9.680883175
3.997938333,7.580536194,-6.868167572,0.3683839417,10.23581758
4.007878333,8.018675079,-7.013365631,0.7135661316,10.67687333
4.017817333,8.322543182,-7.22292984,1.15844101,11.08049756
4.027757333,8.537645874,-7.462431793,1.811532898,11.48307175
4.037696333,8.475075989,-7.560477905,2.5414151,11.63814976
4.047636333,7.984096985,-7.541467438,3.294648743,11.46622196
4.057575333,7.222780151,-7.688761139,3.768413544,11.20207756
4.067514333,6.71039566,-7.981252899,3.198099518,10.90677075
4.077454333,6.98776886,-8.235574036,1.551972656,10.91156325
4.087393333,7.924670563,-8.314909058,0.08622070312,11.48675542
4.097333333,8.94884079,-8.128845978,-0.553099823,12.10230589
4.107272333,9.705666962,-7.624844055,-0.6327342224,12.3587447
4.117212333,10.24035507,-7.026238861,-0.3698808289,12.42456101
4.127151333,10.60828995,-6.558012543,0.1032852173,12.47212941
4.137090333,10.75917618,-6.470744019,0.992585907,12.59426961
4.147030333,10.70903046,-6.798412628,2.405198364,12.91072139
4.156969333,10.55619827,-7.466772766,3.454366608,13.38352219
4.166909333,10.63298859,-8.331374817,3.547772369,13.96635033
4.176848333,10.4217778,-9.14193924,3.781137085,14.36960345
4.186788333,9.695937195,-9.724677429,4.867278442,14.56952122
4.196727333,8.582702179,-9.977651367,5.391338654,14.22261706
4.206667333,7.803871765,-9.675130463,4.944667511,13.3775297
4.216606333,7.694898376,-8.855734406,3.928730164,12.37216285
4.226545333,7.413333893,-8.520431671,1.908980255,11.45423419
4.236485333,7.251670074,-9.019643555,0.4219725037,11.58096496
4.246424333,7.295678558,-9.391470337,-0.7762857056,11.91760296
4.256364333,7.429500275,-9.605375519,-2.743195496,12.44933069
4.266303333,7.710166626,-9.822573853,-4.276307373,13.19910721
4.276243333,8.106692047,-10.24619293,-4.602628784,13.85233256
4.286182333,8.73583374,-11.389216,-3.623065796,14.80390618
4.296121333,9.40748703,-13.5192865,-1.123563538,16.50861335
4.306061333,9.730365601,-15.65354828,3.760330353,18.81099872
4.316000333,9.063352661,-16.00247269,8.324788513,20.18726325
4.325940333,7.760462036,-15.4342543,7.870782623,18.98394574
4.335879333,6.689289551,-14.18165909,3.868405609,16.15025112
4.345819333,5.899232483,-12.47954865,0.1869612122,13.80489162
4.355758333,5.077740784,-10.66966232,-1.610800323,11.9255953
4.365697333,4.389472046,-8.912466431,-2.079775085,10.15012252
4.375637333,4.067940674,-7.225773926,-1.854044495,8.496907151
4.385576333,4.039499817,-6.160888367,-1.118174744,7.451470928
4.395516333,3.751498718,-5.680088196,-0.8113128662,6.855317142
4.405455333,3.231929169,-5.549559631,-1.320104828,6.556344638
4.415395333,2.992876282,-5.413043518,-1.210682373,6.302705798
4.425334333,3.194956055,-5.338049469,-1.320553894,6.359746765
4.435273333,3.28671524,-5.421575775,-1.381177826,6.488731243
4.445213333,3.447929993,-5.558391266,-0.9740245056,6.613067249
4.455152333,3.617677002,-5.659880219,-0.3004252625,6.723993331
4.465092333,3.997586975,-5.627397766,0.5417234802,6.92399968
4.475031333,4.509372711,-5.651647339,0.8731343079,7.282714014
4.484971333,4.861590271,-5.616021423,0.7580236816,7.466549169
4.494910333,4.849016418,-5.657036133,0.1598675537,7.452554976
4.504850333,4.531975708,-5.702541504,-0.545615387,7.304483525
4.514789333,3.579207001,-5.695655823,-1.004111938,6.801430643
4.524728333,2.009122009,-5.608387299,-1.53401001,6.151728704
4.534668333,0.5587879944,-5.382507019,-1.67202301,5.663857941
4.544607333,-0.5367837524,-5.054089966,-1.623823242,5.335612814
4.554547333,-1.284478912,-4.833748169,-1.236428833,5.152064023
4.564486333,-1.725461884,-4.759801941,-0.7035369873,5.111545512
4.574426333,-1.987716522,-4.784350891,-0.400866394,5.19631834
4.584365333,-2.167193298,-5.137466583,-0.1823208618,5.578846707
4.594304333,-1.857337646,-5.647156677,0.3019221497,5.952414523
4.604244333,-1.220262451,-6.478078766,1.685045929,6.803963898
4.614183333,0.4364923096,-7.149133301,4.981940002,8.7246982
4.624123333,3.391796722,-7.461234283,10.19065842,13.07760762
4.634062333,7.55763382,-7.932454376,16.73385178,20.00158635
4.644002333,12.51816833,-9.305848389,19.87027954,25.26126208
4.653941333,15.9690921,-12.17642899,16.2145816,25.81065637
4.663880333,16.51545593,-14.76709167,15.15209106,26.84051313
4.673820667,16.17177063,-14.86603592,14.3951152,26.26298785
4.683759667,15.86101685,-11.89606201,12.41952347,23.39514287
4.693699667,12.49825974,-7.27442276,8.537795563,16.79338191
4.703638667,8.036038971,-3.43071579,5.259313202,10.19843657
4.713578667,4.929848328,-0.7934999084,4.017345886,6.408752968
4.723517667,2.709216156,0.7168592834,3.034938812,4.130931252
4.733456667,2.745590515,0.4152365112,-1.5726297,3.191214943
4.743396667,4.957241364,-2.383942566,-8.205636292,9.87875959
4.753335667,7.231312408,-6.49978363,-11.73454788,15.23937927
4.763275667,8.182883606,-10.40905426,-11.12396759,17.29308098
4.773214667,9.436077576,-13.38905731,-7.555538177,18.0386411
4.783154667,11.08714417,-15.39548492,-2.912493439,19.19448722
4.793093667,15.96564926,-18.56619141,11.1317514,26.89835142
4.803032667,14.40080338,-18.23657684,22.43235168,32.29808469
4.812972667,4.620890808,-12.92696823,6.458020477,15.17119534
4.822911667,0.1115180969,-8.919801178,-2.891387329,9.377388231
4.832851667,-2.646795959,-7.052883453,-0.8292755127,7.578680079
4.842790667,-3.601211243,-6.177952881,-0.05269042969,7.15112582
4.852730667,-1.253044281,-5.616919556,-2.144290924,6.141489138
4.862669667,0.7173083496,-5.898633728,-2.901117096,6.612479983
4.872608667,1.858834534,-6.887776794,-2.72283783,7.636136513
4.882548667,3.015778656,-7.886649628,-3.016976166,8.966398856
4.892487667,3.723806305,-8.556506653,-3.139122162,9.845538454
4.902427667,4.356989594,-8.783434753,-2.935994568,10.23484971
4.912366667,4.916376343,-8.744665375,-2.595452728,10.3622538
4.922306667,5.262606354,-8.600664825,-2.329455872,10.34856636
4.932245667,5.49477356,-8.359965363,-2.165397034,10.23574627
4.942184667,5.73457489,-8.048313446,-2.150428162,10.11360667
4.952124667,5.955665131,-7.581883392,-2.239043884,9.897889696
4.962063667,6.277196503,-7.313341827,-1.839824066,9.811886527
