Time (s),Acceleration x (m/s^2),Acceleration y (m/s^2),Acceleration z (m/s^2),Absolute acceleration (m/s^2)
9.941941958,5.665119324,-6.187982025,-1.601070557,8.540967476
9.951881958,5.322332153,-6.006110229,-1.403481445,8.14679936
9.961820958,5.024750977,-5.800288239,-1.201850739,7.767619405
9.971760958,4.83015564,-5.63862442,-1.07536377,7.502059457
9.981700958,4.586312714,-5.497917023,-0.9014254761,7.216226423
9.991639958,4.432732086,-5.446124725,-0.8620573425,7.074781349
10.00157996,4.349505157,-5.547613678,-0.9580078125,7.11421054
10.01151896,4.328997803,-5.788762207,-1.117276611,7.314252996
10.02145896,4.281546478,-6.147566071,-1.31756012,7.606587507
10.03139796,4.210893402,-6.431076508,-1.469793549,7.826280174
10.04133796,4.206253052,-6.606511688,-1.526226196,7.979218497
10.05127696,4.2427771,-6.684349823,-1.426234131,8.04461521
10.06121696,4.284540253,-6.520590363,-1.198407898,7.8937675
10.07115596,4.533322906,-6.026617584,-0.926124115,7.597949852
10.08109596,4.981191559,-5.405708771,-0.7587721252,7.389837062
10.09103496,5.41513916,-4.959187317,-0.8327183533,7.389904656
10.10097496,5.97916626,-4.699926453,-1.152453461,7.692066484
10.11091396,6.629414062,-4.612657928,-1.710193634,8.255331989
10.12085396,7.247927856,-4.809648285,-2.432741089,9.032353184
10.13079396,7.610024872,-5.098996582,-3.009192352,9.641964702
10.14073296,8.015531616,-5.406756592,-3.605552216,10.31900047
10.15067296,8.269104309,-5.697302399,-4.137096863,10.86061283
10.16061196,8.543034668,-5.878276062,-4.483326874,11.29768962
10.17055196,8.954229584,-5.956413574,-4.731211395,11.74910428
10.18049096,9.442214813,-5.888305206,-4.724176025,12.08906108
10.19043096,10.07360184,-5.7158638,-4.462071075,12.41203574
10.20036996,10.85303101,-5.576952667,-3.94085495,12.82267604
10.21030996,11.55896301,-5.515131226,-3.370840302,13.24344603
10.22024896,12.11131439,-5.463039551,-2.873574371,13.59360758
10.23018896,12.5265509,-5.361999664,-2.462080078,13.84656478
10.24012796,12.79703842,-5.242997131,-2.16345108,13.99763308
10.25006796,12.83610718,-5.137466583,-2.04175415,13.97597833
10.26000696,12.61890884,-5.080285492,-2.154769135,13.77276991
10.26994696,12.07928101,-5.084925842,-2.50519043,13.34321848
10.27988696,11.28623016,-5.072501678,-2.946622467,12.71974247
10.28982596,10.50964508,-4.885690155,-3.238515472,12.03372721
10.29976596,9.748777313,-4.399201813,-3.386407928,11.21870734
10.30970496,9.049880676,-3.769611053,-3.43415863,10.38767314
10.31964496,8.514444122,-3.140020294,-3.496279449,9.725196972
10.32958396,8.080197144,-2.547103271,-3.554508362,9.187592212
10.33952396,7.68861145,-2.060764618,-3.552263031,8.716654719
10.34946296,7.382647705,-1.725012817,-3.547622681,8.370470897
10.35940296,7.138505402,-1.550775146,-3.503763885,8.101822282
10.36934196,6.96546524,-1.5129039,-3.423979797,7.907605319
10.37928146,6.785838776,-1.614243164,-3.313808899,7.722351863
10.38922046,6.551126862,-1.778451691,-3.20483551,7.506738587
10.39916046,6.33722168,-1.970801697,-3.110232239,7.32925525
10.40909946,6.215375061,-2.20910614,-3.045117645,7.265244563
10.41903946,6.161487122,-2.491568756,-2.946023712,7.269862043
10.42897846,6.228847046,-2.777025146,-2.788251801,7.367818693
10.43891846,6.355334015,-3.034340057,-2.558030548,7.492730498
10.44885846,6.516997833,-3.251538391,-2.341430969,7.650232784
10.45879746,6.774612122,-3.402873688,-2.172282715,7.886300205
10.46873746,7.079528046,-3.490890656,-2.061962128,8.158291655
10.47867646,7.377707977,-3.535647583,-2.049537964,8.433977988
10.48861646,7.72842865,-3.555556183,-2.114203491,8.765868215
10.49855546,8.095016327,-3.462749176,-2.2056633,9.07661125
10.50849546,8.439001007,-3.336561584,-2.373164978,9.379834392
10.51843446,8.920998688,-3.242856445,-2.570604401,9.834039989
10.52837446,9.542955322,-3.189417572,-2.806513824,10.44590353
10.53831346,10.23541534,-3.266806641,-3.030747528,11.16338584
10.54825346,10.99778,-3.451971588,-3.205284576,11.96415989
10.55819246,11.73260193,-3.690874786,-3.344794464,12.74614274
10.56813246,12.43524078,-3.88936203,-3.449277191,13.47812537
10.57807146,13.07725571,-4.020489349,-3.472029877,14.11502543
10.58801146,13.69397324,-4.053570557,-3.511547699,14.70670951
10.59795046,14.21144714,-3.944148102,-3.474275208,15.15229759
10.60789046,14.66156113,-3.614533539,-3.442990265,15.48807313
10.61783046,15.15209106,-3.182531891,-3.504512329,15.87438123
10.62776946,15.780634,-2.874322815,-3.675756226,16.4560422
10.63770946,16.45423325,-2.754272461,-3.892954559,17.13134273
10.64764846,16.84057983,-2.641556854,-4.024830322,17.51519942
10.65758846,16.58865372,-2.27227478,-4.029470673,17.22159397
10.66752746,15.69755676,-1.684596863,-3.97124176,16.27949373
10.67746746,14.57099945,-1.171763306,-3.957021332,15.14414316
10.68740646,13.56209747,-0.8798703003,-3.871998138,14.13141993
10.69734646,12.80362473,-1.051114197,-3.714226227,13.37285024
10.70728546,12.40021362,-1.62292511,-3.591930542,13.01157749
10.71722546,12.3288121,-2.337389374,-3.427871704,13.00820131
10.72716446,12.42805573,-3.157683563,-3.270548859,13.23344341
10.73710446,12.69525009,-4.105662231,-3.223097534,13.72640503
10.74704346,12.92726761,-5.155129852,-3.266956329,14.29554529
10.75698346,13.01348831,-6.181096344,-3.363056488,14.79415354
10.76692346,12.98549652,-7.167844391,-3.539988556,15.24902069
10.77686246,12.83341278,-7.972271576,-3.650458832,15.54282623
10.78680246,12.39198074,-8.56503891,-3.784430237,15.53199892
10.79674146,11.49609375,-8.767867126,-3.240162048,14.81669044
10.80668146,10.85752167,-7.946525116,-2.499502258,13.6850484
10.81662046,10.55515045,-7.155569916,-2.159110107,12.93348902
10.82656046,10.23796005,-6.431076508,-1.738933868,12.21468223
10.83649946,9.620943146,-5.431604919,-1.24151825,11.11783462
10.84643946,9.148076477,-4.48138092,-0.93256073,10.22935715
10.85637846,8.825646973,-3.861968994,-0.8083190918,9.667483062
10.86631846,8.640182648,-3.565585327,-0.855920105,9.386093657
10.87625746,8.557704163,-3.445085907,-1.025816803,9.281983492
10.88619746,8.434660034,-3.471131744,-1.298549652,9.212951573
10.89613646,8.12630127,-3.65764389,-1.670975189,9.066823547
10.90607646,7.758216705,-3.857029266,-2.022593994,8.89704938
10.91601546,7.508685608,-4.018543396,-2.289938049,8.818892609
10.92595546,7.320227509,-4.175716553,-2.540966034,8.80220699
10.93589546,7.134314117,-4.33753006,-2.738106079,8.786912418
10.94583446,6.990463257,-4.507875824,-2.809806976,8.779666066
10.95577446,6.829398193,-4.677173767,-2.808908844,8.741087062
10.96571346,6.689588928,-4.857698364,-2.718197479,8.702668037
10.97565346,6.604416046,-5.007087708,-2.507884827,8.659025634
10.98559246,6.53376297,-5.109325104,-2.159409485,8.570782396
10.99553246,6.38048172,-5.12848526,-1.826950836,8.387470262
11.00547146,6.29156662,-5.087320862,-1.512005768,8.231087749
11.01541146,6.126909027,-5.006488953,-1.260977783,8.012116501
11.02535046,5.978866882,-4.919370117,-1.085392914,7.818256156
11.03529046,5.74625061,-4.883295135,-0.9229806519,7.597227175
11.04522946,5.549859009,-4.856500854,-0.7217990112,7.409961497
11.05516946,5.431604919,-4.906646576,-0.6239025879,7.346207665
11.06510846,5.393434296,-5.047353973,-0.5703140259,7.408790301
11.07504846,5.444777527,-5.323529663,-0.5909710693,7.637723299
11.08498746,5.547314301,-5.762117615,-0.725690918,8.031271547
11.09492746,5.573958893,-6.286626892,-0.9165440369,8.451671337
11.10486746,5.521268463,-6.720275116,-1.085392914,8.764963255
11.11480646,5.479056244,-7.062912598,-1.2461586,9.025392121
11.12474646,5.447172546,-7.354206848,-1.357527008,9.251968801
11.13468546,5.447471924,-7.46512619,-1.39000946,9.345329619
11.14462546,5.434898071,-7.342531128,-1.355880432,9.235220201
11.15456446,5.567671967,-7.063511353,-1.310973816,9.089049241
11.16450446,6.059249725,-6.725065155,-1.347797241,9.151915973
11.17444346,6.690187683,-6.564898224,-1.594334564,9.507807456
11.18438346,7.208559723,-6.714586945,-1.971101074,10.04660393
11.19432246,7.549999695,-7.021897888,-2.326911163,10.56996031
11.20426246,7.600145416,-7.263495483,-2.532433777,10.8135932
11.21420146,7.585026855,-7.413782959,-2.59994339,10.92046317
11.22414146,7.6043367,-7.350913696,-2.432142334,10.85251976
11.23408046,7.588769073,-6.951394501,-2.126627655,10.50875096
11.24402046,7.622598724,-6.2997995,-1.78907959,10.04949207
11.25395946,7.878267059,-5.665718079,-1.538051605,9.825123711
11.26389946,8.511600037,-5.196593628,-1.503623199,10.08527656
11.27383946,9.320368195,-4.911137238,-1.685944061,10.66915834
11.28377846,10.04770569,-4.766388245,-1.994003448,11.29826961
11.29371846,10.78162949,-4.797972565,-2.308050385,12.02460692
11.30365746,11.55566986,-5.14135849,-2.740501099,12.94130671
11.31359746,11.98961746,-5.569318542,-3.131637726,13.5858526
11.32353646,12.03212906,-5.8445961,-3.473377075,13.82012234
11.33347646,11.7980159,-5.979615326,-3.811523895,13.76505332
11.34341546,11.60940811,-5.953120422,-4.032913513,13.65585555
11.35335546,11.45238464,-5.69251236,-4.198768616,13.46073805
11.36329446,11.23623413,-5.152734833,-4.33753006,13.10029773
11.37323446,10.97547638,-4.418960724,-4.371808777,12.61352479
11.3831735,10.89224945,-3.685186615,-4.287983093,12.27226538
11.3931135,10.9712851,-3.029250641,-4.012406158,12.0683412
11.4030525,11.03610031,-2.474803619,-3.660188599,11.88768874
11.4129925,10.99284027,-2.160756683,-3.344944153,11.69188001
11.4229315,10.86156326,-2.053429871,-2.938988342,11.43799734
11.4328715,10.55365356,-1.975891113,-2.455044708,11.01412701
11.4428115,10.06836273,-1.806742859,-2.004032593,10.42364593
11.4527505,9.548793182,-1.534608765,-1.807491302,9.838775336
11.4626905,9.122928772,-1.314117279,-1.886676636,9.408202928
11.4726295,8.874295807,-1.147663422,-2.097438354,9.190729299
11.4825695,8.628357239,-1.008303223,-2.400857391,9.012732119
11.4925085,8.439450073,-0.9246272278,-2.759511566,8.927158402
11.5024485,8.296796722,-0.9758207703,-3.084186401,8.905125928
11.5123875,8.208929443,-1.169817352,-3.414399719,8.967336321
11.5223275,8.081095276,-1.491498413,-3.670666809,9.000136843
11.5322665,7.951015778,-1.845362549,-3.817810822,9.011087298
11.5422065,7.902217255,-2.172432404,-3.889062653,9.071345457
11.5521455,7.854017487,-2.435585175,-3.873944092,9.089835458
11.5620855,7.67573822,-2.617307281,-3.833079071,8.969935886
11.5720245,7.474406891,-2.690355377,-3.774550781,8.794998808
11.5819645,7.314389648,-2.714305573,-3.610342255,8.596645966
11.5919035,7.321425018,-2.689756622,-3.373534698,8.498163999
11.6018435,7.600145416,-2.675685883,-3.121159515,8.640783646
11.6117825,8.060587921,-2.825524292,-2.865191803,9.009216904
11.6217225,8.598868561,-3.144361267,-2.712808685,9.549182126
11.6316625,9.124425659,-3.537743225,-2.684966583,10.14789714
11.6416015,9.646689606,-4.019740906,-2.729274445,10.80119791
11.6515415,10.16551071,-4.540507965,-2.858156433,11.49447166
11.6614805,10.57296341,-4.926555176,-3.045267334,12.05537865
11.6714205,10.96604599,-5.099445648,-3.247945862,12.52228665
11.6813595,11.42603943,-5.038971405,-3.394042053,12.94083194
11.6912995,11.93258606,-4.800068207,-3.467239838,13.3209991
11.7012385,12.63747025,-4.641996918,-3.65420105,13.95016039
11.7111785,13.58050919,-4.71429657,-3.920197906,14.90042864
11.7211175,14.60527817,-4.910089417,-4.152065735,15.95815711
11.7310575,15.42706924,-4.992118835,-4.269122314,16.76726338
11.7409965,15.77749054,-4.735702057,-4.289929047,17.02232572
11.7509365,15.54756866,-4.059857483,-4.143982544,16.59463544
11.7608755,15.11661484,-3.112926636,-3.974684601,15.93739232
11.7708155,14.67428467,-2.189945984,-3.934568024,15.34963581
11.7807545,14.32491119,-1.529519348,-3.998784485,14.95101293
11.7906945,14.09094772,-1.315913544,-4.053869934,14.72142308
11.8006335,13.84291351,-1.596430206,-4.091142426,14.52281964
11.8105735,13.39354797,-2.39397171,-4.103117523,14.21104505
11.8205125,12.93490173,-3.407214661,-4.075574799,13.98324371
11.8304525,12.3448288,-4.161047058,-3.880530396,13.59292562
11.8403925,11.73888885,-4.683610382,-3.55121521,13.12816999
11.8503315,10.99328934,-4.841232605,-3.100801849,12.405842
11.8602715,10.70618637,-4.933141479,-3.241808624,12.22569567
11.8702105,10.64511337,-5.779331818,-3.625011749,12.64356853
11.8801505,10.39423508,-5.758525085,-2.887196045,12.22851729
11.8900895,10.29379395,-5.223088531,-3.271896057,11.99783945
11.9000295,10.28765671,-5.228627014,-3.265609131,11.99327411
11.9099685,10.0435144,-5.097499695,-3.163671112,11.69895293
11.9199085,9.858648834,-4.774621124,-3.096161499,11.38315333
11.9298475,9.573491821,-4.538562012,-2.941682739,10.99562586
11.9397875,9.423503723,-4.328249359,-2.77777359,10.73555732
11.9497265,9.36422699,-4.158352661,-2.487227783,10.54357368
11.9596665,9.275910645,-3.931723938,-2.123783569,10.29618512
11.9696055,9.169332275,-3.734733582,-1.89790329,10.08101811
11.9795455,9.065298615,-3.720662842,-1.679208069,9.941967144
11.9894845,8.976233826,-3.757336578,-1.44509491,9.837614099
11.9994245,8.886270905,-3.843108215,-1.340612183,9.774074502
12.0093635,8.741521912,-4.001628571,-1.318907318,9.703955537
12.0193035,8.557105408,-4.115691376,-1.37833374,9.594934724
12.0292435,8.437653809,-4.263284454,-1.475032654,9.567931723
12.0391825,8.3369133,-4.446653137,-1.525328064,9.570970337
12.0491225,8.145311737,-4.4896138,-1.513652344,9.423050397
12.0590615,7.925119629,-4.484823761,-1.454525299,9.221540497
12.0690015,7.81734375,-4.545298004,-1.347647552,9.142579022
12.0789405,7.70971756,-4.631818085,-1.221310272,9.076622852
12.0888805,7.567213898,-4.639452209,-1.045575714,8.937587569
12.0988195,7.395970001,-4.732109528,-0.9547146606,8.832027679
12.1087595,7.197482758,-4.897216187,-0.8518785095,8.74712418
12.1186985,6.865173798,-5.022206268,-0.7150630188,8.536069482
12.1286385,6.452032928,-5.186414795,-0.5935157776,8.29939084
12.1385775,6.02122879,-5.601052551,-0.5867797852,8.244470653
12.1485175,5.411846008,-6.117029572,-0.5245092773,8.184206619
12.1584565,4.788392487,-6.587501221,-0.4617897034,8.157029157
12.1683965,4.237837372,-7.01935318,-0.4499642944,8.211763058
12.1783355,3.772754517,-7.346123657,-0.4387376404,8.269927457
12.1882755,3.457959137,-7.433691559,-0.3950285339,8.208123971
12.1982145,3.329825592,-7.294780426,-0.369282074,8.027323912
12.2081545,3.480562134,-7.083569641,-0.4983137512,7.908197533
12.2180935,3.942800903,-6.941215668,-0.7702981567,8.01994471
12.2280335,4.60667038,-6.884633331,-1.117276611,8.35870176
12.2379735,5.29224472,-6.962172089,-1.57966507,8.886789978
12.2479125,5.836213531,-7.148534546,-2.046993256,9.452677712
12.2578525,6.26701767,-7.316185913,-2.424358521,9.933760669
12.2677915,6.605912933,-7.356601868,-2.575544128,10.2171965
12.2777315,6.886878662,-7.214098206,-2.654579773,10.32080929
12.2876705,7.121740265,-6.968159637,-2.607427826,10.29918021
12.2976105,7.34702179,-6.675667877,-2.400108948,10.21292288
12.3075495,7.598947906,-6.257886658,-2.077529755,10.06087892
12.3174895,7.912695465,-5.766608276,-1.822160797,9.959156114
12.3274285,8.333470459,-5.464835815,-1.75510025,10.11887036
12.3373685,8.715027008,-5.360502777,-1.781744843,10.38562952
12.3473075,9.085207214,-5.279670868,-1.902244263,10.6786913
12.3572475,9.440717926,-5.21979538,-2.096091156,10.98940476
12.3671865,9.65088089,-5.158273315,-2.318827972,11.18589508
12.3771265,9.777816925,-5.108726349,-2.699636078,11.35750077
12.38706571,9.701026611,-5.041216736,-3.047961731,11.34961912
12.39700571,9.607321472,-5.084925842,-3.347788239,11.37386402
12.40694471,9.584269409,-5.311704254,-3.540737,11.51560857
12.41688471,9.610464935,-5.604794769,-3.599414978,11.69318386
12.42682471,9.53621933,-5.759872284,-3.532653809,11.68739709
12.43676371,9.31976944,-5.63398407,-3.365900574,11.39864753
12.44670371,9.119785309,-5.23730896,-3.248544617,11.00694923
12.45664271,8.909622345,-4.64993042,-3.237767029,10.55871008
12.46658271,8.678652649,-4.014651489,-3.342549133,10.12961367
12.47652171,8.410111084,-3.438050537,-3.553759918,9.755991467
12.48646171,8.214467926,-3.068319397,-3.767216034,9.54379295
12.49640071,8.105494537,-2.843636627,-3.941154327,9.450820514
12.50634071,8.159681854,-2.723735962,-4.034560089,9.501411509
12.51627971,8.346792755,-2.716850281,-4.01225647,9.65134326
12.52621971,8.568930817,-2.759361877,-3.840114441,9.78709008
12.53615871,8.732989655,-2.83046402,-3.574866028,9.851715688
12.54609871,8.812624054,-2.921025696,-3.252436523,9.837330795
12.55603771,8.933273163,-3.018622742,-2.960393829,9.883288131
12.56597771,9.086404724,-3.079396362,-2.759511566,9.983002397
12.57591671,9.28818512,-3.116070099,-2.637664948,10.14581451
12.58585671,9.638606415,-3.152743835,-2.53437973,10.45301908
12.59579571,10.01133133,-3.172203369,-2.421813812,10.77751415
12.60573571,10.28615982,-3.162922668,-2.259700928,10.99615442
12.61567471,10.5943689,-3.164868622,-2.147883453,11.26367831
12.62561471,10.87997498,-3.063978424,-2.049537964,11.48748994
12.63555371,11.06289459,-2.790197754,-1.992955627,11.58208584
12.64549371,11.21782242,-2.482437744,-2.0079245,11.66335277
12.65543371,11.40089172,-2.12842392,-2.21374649,11.80725175
12.66537271,11.48501678,-1.82410675,-2.518812103,11.89862977
12.67531271,11.65281784,-1.71887558,-2.862647095,12.12177567
12.68525171,11.9174675,-1.798809357,-3.165317688,12.46117903
12.69519171,12.23974731,-2.046244812,-3.369193726,12.85884904
12.70513071,12.55618927,-2.422562256,-3.46694046,13.24939142
12.71507071,12.8093129,-2.861299896,-3.467838593,13.57539828
12.72500971,12.98145493,-3.172951813,-3.425476685,13.7956401
12.73494971,13.11348038,-3.329526215,-3.362607422,13.94117072
12.74488871,13.29610062,-3.358266449,-3.39913147,14.12863546
12.75482871,13.56299561,-3.29030777,-3.301085358,14.34148317
12.76476771,13.94754593,-3.332669678,-3.324586487,14.72051629
12.77470771,14.35305267,-3.533402252,-3.523672485,15.19576653
12.78464671,14.73550735,-3.815715179,-3.69162323,15.66278843
12.79458671,14.94552063,-4.01929184,-3.932023315,15.9682216
12.80452571,14.8848967,-3.934867401,-3.993246002,15.90563877
12.81446571,14.59584778,-3.652853851,-3.986959076,15.56528048
12.82440471,14.20022049,-3.181933136,-3.876189423,15.0597412
12.83434471,13.66044296,-2.50743576,-3.596570892,14.34678564
12.84428371,13.10015808,-1.774110718,-3.287613373,13.62240846
12.85422371,12.67234772,-1.165925446,-3.126248932,13.10424401
12.86416271,12.28674957,-0.8937913513,-3.01877243,12.68369288
12.87410271,11.98767151,-0.9951306152,-2.948718109,12.38505114
12.88404171,11.69892197,-1.498683472,-2.955903168,12.15928414
12.89398171,11.45283371,-2.244732056,-3.042872314,12.06089938
12.90392171,11.26198059,-3.01293457,-3.143612823,12.07444753
12.91386071,11.03011276,-3.729195099,-3.175047455,12.06860431
12.92380071,10.814561,-4.434528351,-3.163222046,12.10891181
12.93373971,10.56413177,-5.030888214,-3.159629517,12.11998247
12.94367971,10.23915756,-5.451064453,-3.131937103,12.01513551
12.95361871,9.574689331,-6.071374512,-3.516637115,11.87025698
12.96355871,9.246421967,-6.051465912,-2.553988953,11.34193187
12.97349771,9.21798111,-5.470673676,-2.910846863,11.10731631
12.98343771,9.561067657,-5.407654724,-3.276536407,11.46265393
12.99337671,9.719438324,-4.984035645,-2.854713593,11.28970692
13.00331671,9.785900116,-4.37495224,-2.496508484,11.00620747
13.01325571,9.795330505,-4.271217957,-2.441123657,10.96133602
13.02319571,9.672885132,-4.339925079,-2.210902405,10.82994672
13.03313471,9.642198944,-4.241280212,-1.95403656,10.71348296
13.04307471,9.640252991,-4.345762939,-1.683848419,10.70772986
13.05301371,9.552086334,-4.531526642,-1.480571136,10.67563478
13.06295371,9.306297455,-4.669539642,-1.290167084,10.4917255
13.07289271,8.953032074,-4.770729218,-1.136436768,10.2082383
13.08283271,8.611292725,-4.798721008,-1.067879333,9.915767846
13.09277171,8.322393494,-4.780309296,-1.053359528,9.655213966
13.10271171,8.147407379,-4.774770813,-1.066083069,9.503431824
13.11265071,8.076903992,-4.777914276,-1.069226532,9.445003351
13.12259071,7.994425507,-4.854105835,-1.118923187,9.419404001
13.13252971,7.863597565,-5.001549225,-1.217867432,9.398662798
13.14246971,7.655230865,-5.153782654,-1.326391754,9.323269294
13.15240971,7.386838989,-5.283562775,-1.401086426,9.189367172
13.16234871,7.065157928,-5.404361572,-1.481020203,9.017593992
13.17228871,6.678212585,-5.511987762,-1.551673279,8.797057599
13.18222771,6.297703857,-5.602250061,-1.564995575,8.572951112
13.19216771,5.978866882,-5.729036407,-1.606609039,8.435040009
13.20210671,5.759872284,-5.846841431,-1.611997833,8.364222645
13.21204671,5.660778351,-5.962251434,-1.639091492,8.383285431
13.22198571,5.61647049,-6.079308014,-1.679956512,8.445411806
13.23192571,5.673202515,-6.133046265,-1.734592896,8.532777729
13.24186471,5.881120148,-6.153703308,-1.890119476,8.719414558
13.25180471,6.126759338,-6.137836304,-2.120939484,8.927967225
13.26174371,6.282884674,-5.9733284,-2.302960968,8.969889699
13.27168371,6.484515381,-5.836812286,-2.465822296,9.066289042
13.28162271,6.698121185,-5.902675323,-2.574496307,9.291632506
13.29156271,6.796915741,-5.996979218,-2.588567047,9.426690972
13.30150171,6.787784729,-6.120622101,-2.565814362,9.493125922
13.31144171,6.858737183,-6.464457092,-2.588417358,9.774015841
13.32138071,7.063960419,-7.017257538,-2.665207672,10.30751047
13.33132071,7.317832489,-7.520660706,-2.683469696,10.83106732
13.34125971,7.394173737,-7.843539276,-2.577190704,11.08317759
13.35119971,7.319329376,-7.907007294,-2.295476532,11.01646764
13.36113871,7.301815796,-7.691754913,-1.858235779,10.76720241
13.37107871,7.456743622,-7.203769684,-1.377585297,10.45920955
13.38101808,7.711214447,-6.580765228,-1.0484198,10.19158885
13.39095708,7.926017761,-6.052064667,-0.8919950867,10.01223749
13.40089608,8.26191925,-5.701044617,-0.8502319336,10.07393239
13.41083608,8.704997864,-5.523064728,-0.8518785095,10.34441534
13.42077608,9.12906601,-5.525010681,-0.9015751648,10.70880138
13.43071508,9.452543335,-5.693859558,-1.034498749,11.08335688
13.44065508,9.607920227,-5.954916687,-1.177002411,11.36479206
13.45059408,9.495503998,-6.256988525,-1.344055023,11.4508072
13.46053408,9.183403015,-6.566245422,-1.583407288,11.39989686
13.47047308,8.86336853,-6.700067139,-1.829495544,11.26042874
13.48041308,8.523575134,-6.514303436,-1.946402435,10.90302549
13.49035208,8.187224579,-6.136489105,-2.058519287,10.43669711
13.50029208,8.111332397,-5.588927765,-2.211650848,10.09560431
13.51023108,8.054001617,-4.943919067,-2.361938324,9.741048734
13.52017108,7.905809784,-4.299060059,-2.574346619,9.360075119
13.53011008,7.746990051,-3.692671051,-2.753374329,9.012920977
13.54005008,7.566016388,-3.143612823,-2.899320831,8.69097042
13.54998908,7.338339844,-2.702629852,-2.929707642,8.350965612
13.55992908,7.124734039,-2.417622528,-2.87372406,8.053882529
13.56986808,6.957082672,-2.267933807,-2.722688141,7.807531862
13.57980808,6.837481384,-2.271077271,-2.493664398,7.624126558
13.58974708,6.752158813,-2.390678558,-2.213297424,7.497044624
13.59968708,6.714736633,-2.605332184,-1.879042511,7.443537103
13.60962608,6.751560059,-2.869532776,-1.535357208,7.495005226
13.61956608,6.867119751,-3.162024536,-1.232237549,7.659904844
13.62950508,7.12353653,-3.399879913,-1.0776091,7.966504722
13.63944508,7.598648529,-3.352727966,-1.511257324,8.441809225
13.64938408,8.024962006,-3.548071747,-1.271306305,8.865948795
13.65932408,8.301137695,-3.935166779,-1.507814484,9.309561167
13.66926408,8.890611877,-3.617976379,-2.174827423,9.841880255
13.67920308,9.318721619,-3.239862671,-2.789299622,10.25258383
13.68914308,9.809700623,-3.008593597,-3.445984039,10.82389337
13.69908208,10.08946884,-2.693798218,-4.002227325,11.18354836
13.70902208,10.29933243,-2.328258362,-4.378544769,11.43104062
13.71896108,10.45261368,-2.05462738,-4.490960999,11.56059501
13.72890108,10.84674408,-1.928140411,-4.351151733,11.84491891
13.73884008,11.3136232,-1.934726715,-4.072730713,12.17901362
13.74878008,11.84636536,-2.058818665,-3.701802063,12.58087616
13.75871908,12.51143234,-2.340981903,-3.389102325,13.17202149
13.76865908,13.0946196,-2.665656738,-3.022664337,13.70077691
13.77859808,13.6147879,-3.016227722,-2.861898651,14.23553804
13.78853808,13.99858978,-3.384611664,-2.785856781,14.66891646
13.79847708,14.3102417,-3.619173889,-2.69469635,15.0047601
13.80841708,14.45409256,-3.672612762,-2.629432068,15.14340745
13.81835608,14.58028015,-3.590733032,-2.679877167,15.25318572
13.82829608,14.80152008,-3.641178131,-2.952909393,15.52619879
13.83823508,15.21600815,-3.971541138,-3.341201935,16.07680545
13.84817508,15.69216797,-4.44515625,-3.611689453,16.70472539
13.85811408,15.96894241,-4.832700348,-3.751199341,17.10069036
13.86805408,15.67121155,-4.838538208,-3.560645599,16.7832214
13.87799308,14.84208572,-4.406087494,-3.087030487,15.78704763
13.88793308,13.86955811,-3.735182648,-2.623145142,14.60127124
13.89787208,13.05240738,-3.030897217,-2.187550964,13.57707831
13.90781208,12.43045074,-2.434537354,-1.820065155,12.79670719
13.91775108,11.86223236,-1.97858551,-1.57727005,12.12910294
13.92769108,11.49609375,-1.695823517,-1.498084717,11.71666534
13.93763008,11.36766083,-1.818867645,-1.51529892,11.61155128
13.94757008,11.33727402,-2.356699219,-1.714235229,11.70582828
13.95750908,11.34056717,-3.047812042,-2.055974579,11.92160448
13.96744908,11.22231308,-3.709585876,-2.348616028,12.05061556
13.97738908,11.0455307,-4.284989319,-2.523302765,12.11329595
13.98732808,10.84000809,-4.79153595,-2.682272186,12.15150921
13.99726808,10.35456757,-5.314099274,-2.912044373,11.99736317
14.00720708,9.703870697,-6.365812225,-2.833158417,11.94635754
14.01714708,9.18280426,-6.043382721,-2.743494873,11.3301868
14.02708608,8.812923431,-5.625451813,-2.877615967,10.84407678
14.03702608,8.869805145,-5.765710144,-2.866389313,10.96052209
14.04696508,9.105115814,-5.249733124,-2.283501434,10.75533406
14.05690508,9.47185318,-4.47210022,-2.243534546,10.71210205
14.06684408,9.73515564,-3.952830048,-1.61005188,10.62969368
14.07678408,9.8989151,-3.919898529,-1.459165649,10.74631514
14.08672308,9.75506424,-3.920347595,-1.228794708,10.58491096
14.09666308,9.545649719,-3.550466766,-0.79215271,10.21531932
14.10660208,9.361382904,-3.468736725,-0.6439608765,10.00411465
14.11654208,9.238638153,-3.666475525,-0.6581813049,9.961359361
14.12648108,8.957822113,-3.816164246,-0.7385641479,9.764792039
14.13642108,8.657396851,-3.929927673,-0.8717871094,9.54750567
14.14636008,8.510252838,-4.216731262,-1.145717468,9.566498546
14.15630008,8.46789093,-4.572990417,-1.301543427,9.711407388
14.16623908,8.372838593,-4.822371826,-1.320853271,9.752145892
14.17617908,8.162675629,-5.04540802,-1.361718292,9.692249079
14.18611808,7.892038422,-5.277275848,-1.364263,9.591408883
14.19605808,7.566465454,-5.508245544,-1.341360626,9.454703421
14.20599708,7.207811279,-5.671855316,-1.306333466,9.264393844
14.21593708,6.785539398,-5.785319366,-1.279988251,9.00843133
14.22587608,6.414910126,-5.898933105,-1.228495331,8.801004743
14.23581608,5.979914703,-5.929319916,-1.186582489,8.504363146
14.24575508,5.651048584,-5.908363495,-1.223256226,8.266768721
14.25569508,5.503605194,-5.908662872,-1.307231598,8.179903515
14.26563508,5.457650757,-5.959557037,-1.338516541,8.191086521
14.27557408,5.489235077,-6.089187469,-1.423839111,8.320890793
14.28551308,5.59296936,-6.298003235,-1.550775146,8.56452302
14.29545308,5.751639404,-6.589447174,-1.642684021,8.89947081
14.30539308,5.874234467,-6.921905823,-1.704206085,9.237084452
14.31533208,5.912255402,-7.201674042,-1.706750793,9.472690811
14.32527208,5.818400574,-7.383695526,-1.604064331,9.536549021
14.33521108,5.692961426,-7.446714478,-1.445843353,9.484399259
14.34515108,5.685027924,-7.454498291,-1.311572571,9.466219408
14.35509008,5.891748047,-7.508685608,-1.304986267,9.633070319
14.36503008,6.380182343,-7.770940247,-1.541793823,10.17208765
14.37496908,7.012018433,-8.264014893,-1.888323212,11.00127762
14.38490971,7.471263428,-8.732091522,-2.176024933,11.69633635
14.39484871,7.60089386,-8.8704039,-2.168839874,11.88114133
14.40478871,7.610174561,-8.572822723,-1.845362549,11.61091767
14.41472771,7.659721527,-7.829169159,-1.3350737,11.03402218
14.42466771,7.703730011,-6.753955078,-0.7915539551,10.27569574
14.43460671,7.760462036,-5.67844162,-0.4020639038,9.624506513
14.44454671,8.029003601,-4.769681396,-0.3198847961,9.344361173
14.45448571,8.661737823,-4.113745422,-0.5110372925,9.602591454
14.46442571,9.540410614,-3.718866577,-0.9364526367,10.28233178
14.47436471,10.39184006,-3.534599762,-1.519340515,11.08116108
14.48430471,10.95496902,-3.513942719,-2.104773102,11.69569192
14.49424371,11.32484985,-3.810476074,-2.663261719,12.24193265
14.50418371,11.47648453,-4.444557495,-3.31485672,12.74566842
14.51412271,11.01035385,-5.079986115,-3.679498444,12.67173467
14.52406271,10.34378998,-5.374723206,-3.710633698,12.23316979
14.53400171,9.553583221,-5.402565308,-3.606001282,11.55257155
14.54394171,8.905730438,-5.153333588,-3.397784271,10.83576576
14.55388071,8.527916107,-4.75171875,-3.164718933,10.26253527
14.56382071,8.335566101,-4.320914612,-2.881358185,9.821109423
14.57375971,8.17659668,-3.835923157,-2.529140625,9.37910401
14.58369971,8.079299011,-3.349584503,-2.219135284,9.023267161
14.59363871,8.076155548,-2.908002777,-1.918410645,8.795514083
14.60357871,8.147557068,-2.607577515,-1.704505463,8.722814084
14.61351871,8.031398621,-2.40923996,-1.486858063,8.515782283
14.62345771,7.816445618,-2.313738556,-1.383423157,8.268256638
14.63339771,7.596852264,-2.288890228,-1.368903351,8.051402312
14.64333671,7.455097046,-2.265987854,-1.419049072,7.920029873
14.65327671,7.54236557,-2.123783569,-1.71887558,8.021986556
14.66321571,7.711813202,-2.029479675,-2.085313568,8.242535004
14.67315571,8.065827026,-1.373843079,-3.139271851,8.763563098
14.68309471,8.499924316,-1.078956299,-4.168531494,9.52835321
14.69303471,7.871082001,-2.312391357,-2.279609528,8.51455843
14.70297371,7.437882843,-3.266507263,-1.308728485,8.22830123
14.71291371,7.501350861,-3.10888504,-1.12206665,8.197222975
14.72285271,7.866142273,-2.799478455,-0.8830137634,8.396010194
14.73279271,8.214318237,-2.693947906,-1.28822113,8.740245598
14.74273171,8.366551666,-2.583926697,-1.538500671,8.890604494
14.75267171,8.586893463,-2.534080353,-2.078278198,9.191057766
14.76261071,8.819060669,-2.46073288,-2.644850006,9.530281682
14.77255071,9.168434143,-2.268981628,-3.010988617,9.913350328
14.78248971,9.638905792,-2.055525513,-3.309467926,10.39645459
14.79242971,10.18766464,-1.978884888,-3.55585556,10.97035118
14.80236871,10.91365494,-2.067201233,-3.768712921,11.72963691
14.81230871,11.71119644,-2.208208008,-3.924987946,12.54726405
14.82224771,12.45455063,-2.546354828,-4.14907196,13.37215586
14.83218771,13.04237823,-2.937491455,-4.348607025,14.05855146
14.84212671,13.50626358,-3.179687805,-4.306245117,14.52836252
14.85206671,13.6891832,-3.252286835,-4.186494141,14.67984467
14.86200571,13.86416931,-3.062331848,-4.085005188,14.77431333
14.87194571,14.21249496,-2.719394989,-3.994293823,15.01147912
14.88188471,14.73984833,-2.500550079,-4.07078476,15.49474646
14.89182471,15.38350983,-2.601889343,-4.300407257,16.18380998
14.90176371,16.02717133,-2.920127563,-4.480333099,16.89587969
