Time (s),Acceleration x (m/s^2),Acceleration y (m/s^2),Acceleration z (m/s^2),Absolute acceleration (m/s^2)
10.02090896,3.900888062,-11.40418488,-1.534758453,12.15021991
10.03091296,4.061504059,-11.10241241,-1.770967255,11.95389901
10.04091696,3.659589844,-11.30179779,-1.930834808,12.03542081
10.05092096,3.330274658,-11.53815628,-1.795216827,12.14259376
10.06092496,3.321293335,-11.43546982,-1.905537415,12.0595204
10.07092896,3.319347382,-10.95676529,-2.263592834,11.6701596
10.08093296,3.031196594,-10.12943573,-2.378703461,10.83752053
10.09093696,2.400558014,-9.038654022,-2.058668976,9.575910571
10.10094096,1.542691956,-7.79399231,-1.234033813,8.040463547
10.11094396,0.3197351074,-7.664361877,-2.030976563,7.935334859
10.12094796,-0.2573149109,-7.417824554,-1.908680878,7.663771576
10.13095196,-0.6837780762,-7.577093353,-0.7949967957,7.649308207
10.14095596,-0.2275268555,-8.190368042,1.004710693,8.254897983
10.15095996,-0.3839515686,-8.120164032,0.406255188,8.13938118
10.16096396,-0.162412262,-7.287595367,-0.7289840698,7.325765609
10.17096796,0.5189707947,-6.193969574,-0.4052073669,6.228866894
10.18097196,1.059945831,-5.193001099,-0.628692627,5.337227744
10.19097496,1.874102783,-4.369713135,0.001197509766,4.754645681
10.20097896,2.434537354,-3.769461365,0.6289920044,4.531163432
10.21098296,2.787353668,-2.942880249,1.432371368,4.299019931
10.22098696,2.931204529,-2.622396698,1.96930481,4.39853224
10.23099096,2.833008728,-2.675835571,2.1459375,4.448716917
10.24099496,2.530038757,-2.814297638,1.880389709,4.225781912
10.25099896,2.223775635,-2.952909393,1.167871399,3.876696476
10.26100296,1.984573059,-2.872227173,0.2785707092,3.502259385
10.27100696,1.816772003,-2.789299622,-0.5420228577,3.372631268
10.28100996,1.762434998,-3.054997101,-1.42862915,3.805281285
10.29101396,1.729653168,-3.826792145,-2.490071869,4.882263421
10.30101796,1.998194733,-5.033881989,-3.772155762,6.600144631
10.31102196,2.286794586,-6.577921143,-5.442681885,8.838623317
10.32102596,2.253863068,-8.54513031,-7.791297913,11.78148861
10.33102996,2.71580246,-11.03086121,-11.60806091,16.24199988
10.34103396,4.602179718,-14.46232544,-17.00673431,22.79403271
10.35103796,5.987698517,-19.459384,-21.74108917,29.78582075
10.36104196,6.501879272,-22.80747162,-19.77852036,30.88114414
10.37104596,7.079378357,-20.29030609,-14.52175186,25.93637207
10.38104896,5.461842041,-15.86401062,-12.05323517,20.65863087
10.39105296,2.362836456,-10.91380463,-9.92930191,14.94272947
10.40105696,1.391506348,-6.64722702,-9.394164734,11.59190442
10.41106096,2.286195831,-4.937033386,-9.373058624,10.83767586
10.42106496,3.195105743,-4.629572754,-6.389013977,8.512411186
10.43106896,4.496499481,-5.445226593,-1.536704407,7.227064457
10.44107296,6.501729584,-7.332052917,1.309027863,9.886609202
10.45107696,9.295519867,-11.17067047,-0.3423381042,14.53642885
10.46107996,8.942703552,-15.68827606,-3.161126404,18.33266682
10.47108396,3.909869385,-17.76176422,-4.264481964,18.68028783
10.48108796,-0.1258882141,-14.67338654,-6.027665405,15.86369662
10.49109196,1.724563751,-7.068151703,-0.4583468628,7.289922529
10.50109596,3.840713196,1.315314789,12.4430246,13.0885443
10.51109996,8.345295868,3.317850494,10.79809525,14.04460594
10.52110396,11.05421265,1.301693115,2.292632446,11.36425034
10.53110796,8.920848999,-1.992955627,-6.93163559,11.47174751
10.54111196,2.931653595,-7.838749237,-8.486901398,11.91923142
10.55111596,-1.494941254,-13.19865326,-0.09729766846,13.28340183
10.56111896,-2.679278412,-15.80353638,3.611988831,16.43096948
10.57112296,-0.2472857666,-15.49457886,3.867956543,15.97198209
10.58112696,2.222727814,-13.35986801,4.693340149,14.33366785
10.59113096,2.682870941,-12.0421582,3.423530731,12.80359064
10.60113496,0.9981243896,-11.35493729,-1.32923584,11.47596275
10.61113896,-1.579365692,-11.98333054,-5.558091888,13.30364582
10.62114296,-2.694995728,-12.30426315,-4.908742218,13.51864061
10.63114696,-1.130898285,-12.0581749,-4.434079285,12.89726994
10.64114996,0.007933502197,-12.80332535,-3.568429413,13.29130887
10.65115396,0.9785151672,-11.81852325,-1.403182068,11.94168764
10.66115796,1.47667923,-10.51398605,-0.6825805664,10.63909773
10.67116196,1.472937012,-9.743089142,-0.6369255066,9.874360919
10.68116596,1.695524139,-8.912316742,-0.6325845337,9.094193478
10.69116996,1.678759003,-7.960595856,-0.9129515076,8.186745301
10.70117396,1.447190552,-7.319329376,-1.307231598,7.574681344
10.71117796,1.039588165,-7.066654816,-1.270408173,7.254811559
10.72118196,0.6831793213,-6.983876953,-1.106648712,7.103938531
10.73118496,0.1287322998,-7.398514709,-1.140927429,7.487076019
10.74118896,-0.1508862305,-8.058791656,-1.519490204,8.202178985
10.751193,-0.4321513367,-8.527317352,-1.655108185,8.697199498
10.761197,0.338745575,-8.93357254,-1.99145874,9.159114303
10.771201,0.8831634521,-8.802445221,-2.262844391,9.13145576
10.781205,1.121916962,-8.575816498,-2.534978485,9.012737775
10.791209,1.428479462,-8.397836609,-2.410138092,8.852851456
10.801213,1.662442932,-8.29829361,-2.170935516,8.737182289
10.811217,1.832639008,-8.26551178,-2.026485901,8.705394639
10.821221,1.761686554,-8.1484552,-1.6907341,8.506435415
10.831224,1.494342499,-7.900870056,-1.275946655,8.141550652
10.841228,1.398541718,-7.70732254,-1.020877075,7.899425908
10.851232,1.233584747,-7.827223206,-0.9360035706,7.978925813
10.861236,0.8921447754,-8.202642517,-0.8484356689,8.29452287
10.87124,0.444276123,-8.752598877,-0.7797285461,8.79848538
10.881244,0.2915936279,-9.390721893,-0.9283694458,9.441003885
10.891248,0.1037342834,-10.1364711,-1.501976624,10.24767002
10.901252,-0.3224295044,-10.82638641,-2.28514801,11.06962082
10.911256,-0.5969586182,-11.14761841,-2.45953537,11.4313197
10.921259,-0.5469625854,-11.20958954,-1.870210876,11.37768669
10.931263,-0.6252497864,-10.89015381,-1.448388062,11.0038273
10.941267,-1.097966766,-10.57760376,-1.237776031,10.70622818
10.951271,-2.338736572,-10.58419006,-0.7006929016,10.86212404
10.961275,-3.518134003,-10.84554657,-0.05448669434,11.40202245
10.971279,-3.957620087,-11.20300323,0.1682501221,11.88269104
10.981283,-3.581152954,-11.44879211,-0.1293310547,11.99650882
10.991287,-2.619253235,-11.56435181,-0.8303233337,11.88630124
11.001291,-0.7575746155,-11.80085999,-2.274370422,12.04188426
11.011294,1.849703522,-12.54705826,-4.129762115,13.33810366
11.021298,3.26800415,-13.32274521,-7.429200897,15.60026977
11.031302,2.868035889,-13.35507797,-8.723110199,16.20729432
11.041306,0.4305047607,-13.67630997,-5.024601288,14.57646757
11.05131,-1.667981415,-14.13226181,-1.62636795,14.32299056
11.061314,-2.549797668,-14.08585831,-0.07050338745,14.31495173
11.071318,-2.00088913,-13.6546051,0.3953279114,13.80608858
11.081322,-0.889151001,-13.3321756,0.4305047607,13.36872582
11.091326,0.4463717651,-13.06498123,0.4478686523,13.08027403
11.10133,2.092199249,-12.08706482,1.539249115,12.36299808
11.111333,4.700375519,-10.67594925,3.095263367,12.0685574
11.121337,5.451363831,-9.746382294,2.728825378,11.49590463
11.131341,4.478087769,-9.941875763,2.504441986,11.18777875
11.141345,4.474195862,-11.47109573,1.678609314,12.42667273
11.151349,5.685177612,-13.03579193,1.178499298,14.27031802
11.161353,7.085216217,-13.7688176,0.9346563721,15.51303353
11.171357,6.58989624,-13.49818039,0.0802331543,15.02111992
11.181361,5.295537872,-12.54316635,-1.055754547,13.65607415
11.191365,4.766238556,-11.73065598,-2.203567657,12.85227723
11.201369,4.167333984,-11.42499161,-2.923420715,12.50773738
11.211372,3.315305786,-10.94059891,-3.037184143,11.82845909
11.221376,2.583777008,-10.22837997,-2.743345184,10.90053225
11.23138,2.06166275,-9.767189026,-2.476450195,10.28500075
11.241384,2.329455872,-9.452243958,-1.979034576,9.934176279
11.251388,2.218237152,-8.893905029,-1.161734161,9.239683382
11.261392,0.5839356995,-8.41879303,-1.509910126,8.57303246
11.271396,-0.2037263489,-8.227341156,-1.097218323,8.302682396
11.2814,-0.4227209473,-7.973169708,-1.171164551,8.069805115
11.291404,-0.7394622803,-7.573351135,-1.279090118,7.716121008
11.301407,-0.720302124,-7.57634491,-0.6167175293,7.635455314
11.311411,0.05298980713,-7.920179901,0.675844574,7.949139795
11.321415,0.07634124756,-7.892936554,0.9699829102,7.952681452
11.331419,0.549357605,-6.945706329,-1.184337158,7.067339294
11.341423,1.28822113,-6.026467896,-0.5581892395,6.187843259
11.351427,2.130070496,-5.339396667,-0.3921844482,5.761958498
11.361431,2.338137817,-4.810696106,0.3118016052,5.357882578
11.371435,2.68062561,-4.242328033,1.251547394,5.171989142
11.381439,3.078947296,-3.526067505,1.945055237,5.069152629
11.391443,3.127895508,-3.104394379,2.125729523,4.892823394
11.401446,2.984793091,-2.938239899,1.89790329,4.59829103
11.41145,2.632276154,-2.936443634,1.316661987,4.157544678
11.421454,2.093097382,-3.075354767,0.4424798584,3.746285095
11.431458,1.628014526,-3.350782013,-0.4110452271,3.74795005
11.441462,1.168619843,-3.647465057,-1.314716034,4.049463166
11.451466,0.9199868774,-4.18185379,-2.562221832,4.9899156
11.46147,0.8572673035,-5.062472534,-3.976181488,6.494116923
11.471474,1.168170776,-6.176156616,-5.905070343,8.624348629
11.481478,1.632056122,-7.437882843,-8.036488037,11.07117195
11.491482,2.091301117,-9.135951691,-10.04366409,13.73733388
11.501485,3.429069214,-11.57318344,-12.36847961,17.28225618
11.511489,5.31454834,-15.30073196,-16.0367514,22.79329327
11.521493,6.161187744,-20.07460464,-19.14159485,28.4139163
11.531497,6.670728149,-22.67619461,-16.78624283,28.99114286
11.541501,6.156098328,-20.43984512,-12.10487778,24.54002611
11.551505,4.895270233,-16.24466904,-9.771679688,19.57903641
11.561509,3.887416077,-11.01738922,-8.033494263,14.17857183
11.571513,3.888912964,-5.952671356,-7.79399231,10.55008324
11.581517,3.627855835,-2.298919373,-8.020770721,9.098303754
11.591521,2.904559937,-0.7274871826,-5.134023743,5.943391777
11.601524,2.704575806,-1.011746063,-0.4300556946,2.919470549
11.611528,3.764371948,-2.882256317,0.7828720093,4.80528732
11.621532,6.428980865,-6.859635315,-2.049837341,9.622277524
11.631536,7.818990326,-11.89127197,-3.724255371,14.71084759
11.64154,6.732549591,-16.01310059,-3.673810272,17.75509775
11.651544,4.807253265,-16.78250061,-5.319039001,18.24977223
11.661548,4.971910858,-14.3925705,-7.331154785,16.90005365
11.671552,4.054468689,-9.741891632,-1.23328537,10.6237546
11.681556,2.286195831,-3.686084747,11.42753632,12.22303147
11.69156,5.738317108,-0.6535409546,9.339378662,10.98086485
11.701564,8.947194214,-1.139280853,1.245110779,9.104973697
11.711567,7.203320618,-4.58795929,-5.926326141,10.39512097
11.721571,2.546205139,-9.118138733,-5.262905731,10.83151842
11.731575,0.1272354126,-11.64473465,0.5773493958,11.65973268
11.741579,-0.7035369873,-13.12440765,2.668800201,13.41147028
11.75158246,0.1606159973,-13.36854996,3.38970108,13.79253417
11.76158646,2.178569641,-12.23959763,3.942950592,13.04226879
11.77159046,2.805316315,-11.03879471,3.86361557,12.02714902
11.78159446,1.484612732,-10.91859467,2.66311203,11.33631113
11.79159846,-1.774709473,-11.94456116,-3.542533264,12.58458092
11.80160246,-3.213816833,-13.06962158,-6.885681152,15.11807633
11.81160646,-1.289867706,-13.65385666,-3.802243195,14.23195748
11.82160946,-0.5547463989,-13.29325653,-3.223396912,13.68972974
11.83161346,0.3448828125,-11.51705017,-2.504441986,11.79125178
11.84161746,1.388063507,-9.882299652,-1.18179245,10.04903976
11.85162146,1.381626892,-9.57603653,-0.4251159668,9.68452849
11.86162546,1.351240082,-8.551566925,-0.1496887207,8.658957983
11.87162946,1.436113586,-7.400011597,-0.2200424194,7.541287193
11.88163346,1.883084106,-6.611900482,-0.5328918457,6.895448314
11.89163746,2.165995789,-5.842350769,-1.097368011,6.32683308
11.90164146,1.20170105,-6.390211487,-1.419198761,6.655299646
11.91164546,0.8361611938,-7.471413116,-1.736688538,7.716039565
11.92164946,-0.1213975525,-8.06897049,-1.357676697,8.183294455
11.93165346,-0.3999682617,-8.587043152,-1.007854156,8.655232793
11.94165646,0.3302133179,-8.816366272,-1.47428421,8.944879485
11.95166046,0.3091072083,-8.91486145,-1.897603912,9.1198247
11.96166446,0.5221142578,-8.711584167,-1.970053253,8.946810148
11.97166846,1.029259644,-8.635093231,-2.187401276,8.967102925
11.98167246,1.257984009,-8.613987122,-2.23021225,8.986497904
11.99167646,1.045126648,-8.432265015,-2.058668976,8.742625518
12.00168046,0.680634613,-8.141120453,-1.887275391,8.384683304
12.01168446,0.4942721558,-7.976612549,-1.590592346,8.148658585
12.02168846,0.3694317627,-7.930358734,-1.270258484,8.039939434
12.03169246,0.3514691162,-8.189769287,-0.8750802612,8.24388361
12.04169646,0.5233117676,-8.559949493,-0.5628295898,8.594380006
12.05170046,0.7509883118,-9.172475739,-0.5008584595,9.216786523
12.06170346,0.8021818542,-9.814490662,-0.7159611511,9.873212397
12.07170746,0.5789959717,-10.47970734,-1.128952332,10.55623207
12.08171146,0.4236190796,-11.06738525,-1.542841644,11.18243398
12.09171546,0.3463796997,-11.38607254,-1.840273132,11.53903081
12.10171946,0.5807922363,-11.11363907,-1.818568268,11.27641271
12.11172346,0.3890409851,-10.76561279,-1.480720825,10.8739278
12.12172746,-1.407373352,-11.23413849,-0.9789642334,11.36419545
12.13173146,-3.521127777,-11.69009033,-0.04834945679,12.20896762
12.14173546,-5.279521179,-12.07508972,0.8458909607,13.20593303
12.15173946,-5.906417542,-12.27806763,0.7417076111,13.64502997
12.16174346,-4.757406921,-12.11086533,-0.33230896,13.01600587
12.17174746,-2.053429871,-11.92255692,-1.972597961,12.2578579
12.18175146,0.8830137634,-12.40769806,-3.869303741,13.02697954
12.19175446,2.923720093,-13.41989319,-6.185437317,15.06324358
12.20175846,3.080593872,-13.68259689,-8.088579712,16.19038721
12.21176246,1.440753937,-13.97733398,-6.816225586,15.61738033
12.22176646,-0.2597099304,-14.00053574,-2.708168335,14.26242006
12.23177046,-1.937121735,-13.34579727,0.08337661743,13.48590735
12.24177446,-2.961291962,-13.03564224,1.366807709,13.43746189
12.25177846,-2.301314392,-13.23951828,2.229613495,13.62174983
12.26178246,0.5536985779,-13.23727295,2.284249878,13.44432128
12.27178646,3.332220612,-12.00892731,2.732717285,12.7587528
12.28179046,4.854255524,-10.02510269,4.893174591,12.16592118
12.29179446,5.204826508,-9.738149414,4.171824646,11.80363901
12.30179846,4.252656555,-9.804311829,2.21374649,10.91376616
12.31180146,3.727698212,-11.02247864,1.568288727,11.74096669
12.32180546,5.148992615,-12.69599854,1.060843964,13.74139344
12.33180946,6.924151154,-13.46629669,1.096918945,15.18183938
12.34181346,6.944957886,-13.54787704,0.4555027771,15.23105037
12.35181746,5.910608826,-13.1649733,-1.09991272,14.47278918
12.36182146,5.510341187,-12.49302063,-2.326312408,13.8510344
12.37182546,4.776118011,-11.98662369,-2.775827637,13.19832072
12.38182946,4.013903046,-11.37364838,-2.196831665,12.25958255
12.39183346,3.632496185,-10.64182022,-1.90493866,11.40491813
12.40183746,3.256178741,-9.975555725,-1.905387726,10.66512608
12.41184146,2.823578339,-9.514514465,-1.885179749,10.10210289
12.42184546,2.084864502,-9.008117523,-1.463656311,9.361363741
12.43184846,0.844094696,-8.43046875,-1.05186264,8.537664447
12.44185246,-0.1824705505,-7.857610016,-1.245260468,7.957763775
12.45185646,-0.736917572,-7.543862457,-1.889071655,7.811625951
12.46186046,-1.062789917,-7.341932373,-1.953288116,7.671298967
12.47186446,-1.441203003,-7.47680191,-1.879641266,7.843002243
12.48186846,-1.108444977,-8.068072357,-1.307381287,8.248132374
12.49187246,0.1743873596,-7.790250092,-0.5462141418,7.81132238
12.50187646,0.3975732422,-7.169940033,-0.58737854,7.204937065
12.51188046,0.9141490173,-6.460116119,-0.9794132996,6.597576761
12.52188446,2.019151154,-5.480253754,0.3803590393,5.852762218
12.53188846,2.895428925,-4.576283569,2.336191864,5.897768425
12.54189246,3.723506927,-3.718118134,2.372566223,5.772172622
12.55189646,4.084107056,-2.875670013,2.152074738,5.438826541
12.56189946,3.912563782,-2.356100464,2.026036835,4.996417716
12.57190346,3.365002441,-2.272424469,1.612746277,4.368993586
12.58190746,2.602488098,-2.709814911,1.13029953,3.923470171
12.59191146,1.767524414,-3.266357574,0.3833528137,3.733656885
12.60191546,1.126407623,-3.653751984,-0.5990542603,3.870085748
12.61191946,0.5539979553,-4.159999237,-1.746268616,4.545543033
12.62192346,0.4950205994,-4.774770813,-3.142565002,5.737525294
12.63192746,0.5833369446,-5.618266754,-4.722080383,7.36228541
12.64193146,0.6381230164,-6.513255615,-6.447991333,9.187289694
12.65193546,1.099164276,-7.457941132,-8.190068665,11.13131945
12.66193946,2.374362488,-8.798403625,-9.693392487,13.30456168
12.67194346,3.934118958,-11.01289856,-10.87413712,15.96897256
12.68194646,5.669310608,-14.24752213,-13.05629929,20.13951143
12.69195046,6.32434845,-18.24136688,-16.32250717,25.28179364
12.70195446,6.23303833,-21.04892853,-16.9392247,27.72806327
12.71195846,5.435646515,-20.22923309,-13.85758301,25.11574668
12.72196246,4.672683105,-16.84432205,-10.57715469,20.4313816
12.73196646,4.362827454,-12.12134354,-9.129664764,15.7896172
12.74197046,3.650458832,-7.301815796,-8.573870544,11.8386494
12.75197437,2.954705658,-3.186573486,-8.434510345,9.4881769
12.76197837,2.497705994,-0.4448748779,-7.303462372,7.731559448
12.77198238,2.258204041,0.5828878784,-3.992946625,4.624161169
12.78198637,3.406765594,-0.5312452698,-1.050665131,3.604465365
12.79199038,5.460943909,-3.584296417,-0.846789093,6.586815691
12.80199437,7.501051483,-7.480095062,-1.3549823,10.67958672
12.81199737,8.209677887,-11.34041748,-0.4981640625,14.00899879
12.82200137,7.75881546,-14.29751816,0.01601669312,16.26709868
12.83200537,7.31888031,-16.69807617,-2.24308548,18.36908243
12.84200937,7.337741089,-17.75098663,-8.615034943,21.0513372
12.85201337,3.826941833,-14.88384888,-6.447991333,16.66586432
12.86201737,0.2511776733,-7.595654755,8.781937866,11.61376313
12.87202137,2.687361603,-2.681374054,8.415350189,9.231998592
12.88202537,6.208938446,-2.536625061,1.795965271,6.943405114
12.89202937,4.21463562,-5.363197174,-3.883973236,7.849349364
12.90203338,0.8256829834,-7.886499939,-3.588787079,8.703908684
12.91203737,0.3963757324,-9.452393646,1.359772339,9.557920285
12.92204138,1.145867157,-10.36265076,2.735561371,10.77872155
12.93204437,2.161954193,-10.76830719,2.849474487,11.3468053
12.94204838,2.960244141,-10.5279071,3.585344238,11.50889077
12.95205237,3.122057648,-10.4907843,3.915557556,11.62477485
12.96205637,2.480192413,-11.19072876,3.285368042,11.92381683
12.97206037,0.2134561157,-12.47011826,0.8261320496,12.49927626
12.98206437,-3.462898865,-14.52579346,-5.561085663,15.93474248
12.99206837,-4.096381531,-16.52578445,-5.927074585,18.02809215
13.00207237,-2.029779053,-15.16391647,-2.46297821,15.4961488
13.01207637,-0.09894424438,-11.85444855,-2.23365509,12.06345537
13.02208037,1.102457428,-10.39603134,-2.132615204,10.66962641
13.03208437,1.429676971,-9.614656219,-0.6553372192,9.742435903
13.04208737,1.15140564,-8.493936768,0.3255729675,8.577802429
13.05209138,1.347348175,-7.520960083,0.3161425781,7.647230466
13.06209537,1.833237762,-6.708599396,-0.1351689148,6.955885075
13.07209938,2.419867859,-6.121370544,-0.8235873413,6.633644089
13.08210337,2.890489197,-5.985752563,-1.658251648,6.850836451
13.09210737,2.369572449,-6.879094849,-2.009720764,7.548231387
13.10211137,1.421444092,-7.776778107,-1.652563477,8.076493489
13.11211537,0.2125579834,-8.221652985,-0.8767268372,8.270998044
13.12211937,-0.8753796387,-8.499624939,-0.09310638428,8.54509113
13.13212337,-0.1914518738,-9.064250793,-0.5031037903,9.080220795
13.14212737,0.0730480957,-8.901688843,-1.364861755,9.006011764
13.15213137,0.1642085266,-8.570727081,-1.594633942,8.719356889
13.16213537,0.3112028503,-8.241411896,-1.619781647,8.404844426
13.17213837,0.4242178345,-7.996521149,-1.717229004,8.189822141
13.18214238,0.5701643372,-8.07241333,-1.680854645,8.265241477
13.19214637,0.6174659729,-8.248147888,-1.53745285,8.412904913
13.20215038,0.6273454285,-8.242310028,-1.332379303,8.372841303
13.21215437,0.6505471802,-8.280780029,-1.106499023,8.379670018
13.22215837,0.7917036438,-8.652157745,-0.8053253174,8.725547386
13.23216237,1.007105713,-9.350006561,-0.6098318481,9.423841016
13.24216637,1.102906494,-10.08243347,-0.7336244202,10.16907431
13.25217037,1.070424042,-10.62834824,-1.048868866,10.73348591
13.26217437,0.9321116638,-11.21363113,-1.413211212,11.34070198
13.27217837,0.5213658142,-11.63156204,-1.572779388,11.74898689
13.28218237,-0.05643264771,-11.46121628,-1.778302002,11.5984922
13.29218538,-0.8422984314,-11.312276,-2.407892761,11.59633574
13.30218937,-2.029030609,-11.62437698,-2.59874588,12.08290468
13.31219338,-3.24001236,-11.74652298,-2.056723022,12.35753178
13.32219737,-4.090244293,-11.72002808,-0.9704319763,12.4511403
13.33220138,-4.36327652,-11.57258469,-0.1184037781,12.3683838
13.34220537,-3.58399704,-11.46181503,-0.03023712158,12.0091279
13.35220937,-1.358874207,-11.45253433,-0.6245013428,11.54976552
13.36221337,1.080752563,-11.71224426,-1.693578186,11.88330336
13.37221737,2.828069,-12.60843063,-3.651057587,13.42761032
13.38222137,3.250640259,-13.53156097,-6.063890076,15.18026901
13.39222537,2.151326294,-13.50791016,-6.946005707,15.34075738
13.40222937,-0.05777984619,-13.78887589,-5.697601776,14.91975545
13.41223237,-2.264341278,-14.05427399,-2.848726044,14.51775116
13.42223638,-3.611390076,-13.44144836,-0.2619552612,13.92060677
13.43224037,-3.695365448,-12.67144958,0.9165440369,13.23107756
13.44224438,-2.427651672,-12.40141113,0.9032217407,12.66902918
13.45224837,-0.7292834473,-12.23226288,0.8705895996,12.2848702
13.46225238,1.934427338,-10.9102121,2.778222656,11.42336458
13.47225637,5.437891846,-9.861792297,4.790188751,12.23811764
13.48226037,6.399641876,-10.20607635,3.490441589,12.54203306
13.49226437,5.645210724,-11.26826752,2.531535645,12.85499629
13.50226837,5.490582275,-12.70303391,2.210453339,14.01426659
13.51227237,6.731651459,-14.03167099,1.64627655,15.64970123
13.52227537,6.935826874,-14.49555634,1.317410431,16.12335009
13.53227937,5.246439972,-13.61374008,0.1453477478,14.59041389
13.54228337,3.991599426,-12.52325775,-1.40288269,13.21865842
13.55228737,3.800746307,-11.96297287,-2.762804718,12.85268386
13.56229137,3.731889496,-11.77795761,-3.528013458,12.84889737
13.57229538,3.171155548,-11.7011673,-3.339854736,12.57490252
13.58229937,2.708018646,-11.40283768,-2.689606934,12.02464376
13.59230338,2.895877991,-10.91290649,-2.251468048,11.51289476
13.60230737,2.921175385,-10.29693741,-1.856738892,10.86313329
13.61231137,2.399510193,-9.283095703,-1.883233795,9.771391125
13.62231537,1.204994202,-8.259524231,-2.201921082,8.632508789
13.63231937,0.1456471252,-7.732769623,-2.135608978,8.023575564
13.64232237,-0.4185296631,-7.381599884,-1.527573395,7.549613527
13.65232637,-0.4854405212,-7.231611786,-1.068029022,7.326155029
13.66233037,-0.3540138245,-7.112758942,-0.1905537415,7.124112315
13.67233437,-1.098415833,-7.398215332,0.003293151855,7.479312688
13.68233837,-1.027014313,-8.036338348,0.5740562439,8.122009174
13.69234237,-0.2713856506,-7.436086578,0.7991880798,7.483831596
13.70234638,1.13149704,-6.285878448,0.4683760071,6.404055707
13.71235037,1.552272034,-5.296885071,1.149609375,5.638097342
13.72235438,2.565365295,-4.182751923,1.824555817,5.235027858
13.73235837,3.032693481,-3.110531616,2.129771118,4.838239525
13.74236238,3.237916718,-2.357597351,2.430944824,4.685281494
13.75236708,3.196303253,-1.93996582,2.309846649,4.394907668
13.76237008,2.76490036,-2.154918823,1.820813599,3.950153326
13.77237408,2.116149445,-2.500999146,1.161135406,3.475819418
13.78237808,1.657054138,-2.771187286,0.3640429688,3.249282179
13.79238208,1.487606506,-3.023712158,-0.4188290405,3.395765908
13.80238608,1.523681488,-3.448079681,-1.408870239,4.024397361
13.81239008,1.707050171,-4.18888916,-2.59530304,5.21501779
13.82239408,1.951491852,-5.292843475,-3.871998138,6.842140169
13.83239808,1.972148895,-6.446195068,-5.741011505,8.854491246
13.84240208,2.092648315,-7.913743286,-7.722141724,11.25335428
13.85240608,2.558778992,-10.18482056,-10.19005966,14.63267698
13.86241008,3.909120941,-13.0774054,-14.03316788,19.57624987
13.87241308,5.927523651,-17.55414597,-19.39501785,26.82257062
13.88241708,6.898105316,-23.40907059,-21.46251846,32.49935602
13.89242108,7.604935455,-25.23003387,-15.45176788,30.54745134
13.90242508,6.658303986,-20.95252899,-10.38749908,24.31546052
13.91242908,3.578308868,-13.81297577,-8.995992737,16.86803128
13.92243308,1.725312195,-6.389762421,-9.810299377,11.83417677
13.93243708,0.7083270264,-0.8134085083,-10.29603928,10.35238066
13.94244108,0.3321592712,1.979184265,-8.256829834,8.497219489
13.95244508,1.095122681,2.341430969,-4.199517059,4.931281395
13.96244908,2.738704834,0.2766247559,0.2368075562,2.762807131
13.97245308,5.622008972,-2.99302597,1.841021576,6.629822757
13.98245708,8.950786743,-7.409741364,2.522853699,11.89056942
13.99246008,10.70468948,-12.38000565,3.020568695,16.64267863
14.00246408,10.81785416,-16.54494461,0.1755848694,19.76845949
14.01246808,9.563911743,-20.08298721,-6.758595428,23.24808369
14.02247208,7.686366119,-21.19951538,-15.61702423,27.42974886
14.03247608,1.696721649,-14.70601868,-2.766696625,15.05989575
14.04248008,-1.494791565,-4.946314087,14.13974625,15.0543299
14.05248408,3.920646973,-0.3498225403,8.599617004,9.457656217
14.06248808,6.657705231,-0.9199868774,-0.2667453003,6.726259573
14.07249208,3.947441254,-4.195475464,-5.513185272,7.973676609
14.08249608,0.3041674805,-8.196205902,-1.825004883,8.402437258
14.09250008,-0.7252418518,-10.84928879,2.940784607,11.26415807
14.10250408,-0.1221459961,-12.50739075,3.698508911,13.04333972
14.11250808,1.362616425,-13.07022034,3.006198578,13.48052718
14.12251108,2.716700592,-12.99417847,2.68302063,13.5435496
14.13251508,3.344345398,-12.72189468,2.70292923,13.4289641
14.14251908,2.546654205,-12.73536667,1.651815033,13.09211613
14.15252308,0.2264790344,-12.92157944,-0.8062234497,12.94868735
14.16252708,-1.685644684,-13.55715775,-4.415368195,14.35734657
14.17253108,-0.6801855469,-13.46450043,-5.351521454,14.50497177
14.18253508,1.06129303,-11.56794434,-4.066144409,12.30760779
14.19253908,1.596130829,-10.0926123,-3.121458893,10.68419217
14.20254308,1.781146088,-9.650431824,-2.310445404,10.08173962
14.21254708,1.76917099,-9.195827179,-1.35842514,9.462479715
14.22255108,1.865869904,-8.15668808,-0.7695497131,8.402692288
14.23255408,1.958227844,-7.429949341,-0.5462141418,7.7030613
14.24255808,1.948947144,-6.94331131,-0.5358856201,7.231537894
14.25256208,1.658700714,-6.402186584,-0.4643344116,6.629848231
14.26256608,1.072220306,-6.363566895,-0.07948471069,6.453755327
14.27257008,0.6563850403,-7.195686493,-0.1627116394,7.227393756
14.28257408,1.083746338,-8.0993573,-0.9038204956,8.221373747
14.29257808,0.533789978,-8.476572876,-1.225501556,8.581321199
14.30258208,-0.2896476746,-8.53929245,-1.128802643,8.618445726
14.31258608,-0.664019165,-8.542585602,-1.254092102,8.659644174
14.32259008,-0.8470884705,-8.517886963,-1.618584137,8.711588363
14.33259408,-0.5966592407,-8.631500702,-1.666334839,8.811099728
14.34259808,-0.4528083801,-8.785231018,-1.380130005,8.904497644
14.35260108,-0.3466790771,-8.716823273,-1.253942413,8.813374264
14.36260508,0.109871521,-8.407416687,-1.216669922,8.49570555
14.37260908,0.7438032532,-8.040679321,-1.288071442,8.177095772
14.38261308,1.222208405,-7.795040131,-1.417402496,8.016574946
14.39261708,1.330732727,-7.694598999,-1.597777405,7.970608257
14.40262108,1.320553894,-8.019423523,-1.649719391,8.293165276
14.41262508,1.328786774,-8.936117249,-1.5726297,9.170225185
14.42262908,1.195264435,-10.02405487,-1.695673828,10.23648586
14.43263308,0.9018745422,-10.90721832,-2.045496368,11.13395009
14.44263708,0.6327342224,-11.3428125,-2.48288681,11.62860589
14.45264108,0.2665956116,-11.39670044,-2.625390472,11.69822761
14.46264508,-0.3773652649,-11.19222565,-2.528242493,11.48043246
14.47264908,-1.140178986,-10.86650299,-2.50279541,11.20914271
14.48265208,-2.178869019,-10.75258987,-2.163002014,11.18231805
14.49265608,-3.352129211,-11.03131027,-1.225651245,11.59434334
14.50266008,-4.505181427,-11.5073204,0.07349716187,12.35801296
14.51266408,-5.061873779,-12.03991287,1.107247467,13.10755756
14.52266808,-4.477339325,-12.3726709,1.477727051,13.24059024
14.53267208,-2.526595917,-12.3647374,1.010548553,12.66063293
14.54267608,0.5599855042,-12.66321671,-0.3752696228,12.68114618
14.55268008,2.878813477,-13.53305786,-2.798280945,14.11600504
14.56268408,3.956123199,-13.76986542,-5.60239975,15.38333473
14.57268808,3.044668579,-13.81073044,-8.050409088,16.2731487
14.58269208,0.6893165588,-13.70145767,-7.002887421,15.40277676
14.59269608,-2.37526062,-13.90862686,-3.281625824,14.48657421
14.60270008,-4.391717377,-13.71448059,-0.2315684509,14.4023534
14.61270308,-4.102518768,-13.03923477,1.606609039,13.76348416
14.62270708,-1.734892273,-12.61516663,1.922152863,12.87815794
14.63271108,1.547032928,-11.81582886,1.303190002,11.98771983
14.64271508,4.013753357,-10.16940262,2.092798004,11.13134175
14.65271908,5.644911346,-8.596323853,4.01569931,11.04027395
14.66272308,5.355413361,-8.829089813,3.637286224,10.94820215
14.67272708,4.181554413,-9.812245331,2.65263382,10.99099731
14.68273108,4.650678864,-11.88678131,1.933828583,12.90984418
14.69273508,7.081923065,-13.92988266,1.238225098,15.67572858
14.70273908,8.388855286,-14.83819382,0.5195695496,17.05329415
14.71274308,6.536307678,-13.80908386,0.03412902832,15.27793441
14.72274708,4.793182526,-12.1934935,-0.1820214844,13.10301546
14.73275108,4.007017365,-11.45373184,-0.8533753967,12.1643911
14.74275508,3.292253723,-11.59638519,-1.63460083,12.16499092
14.75275796,2.881058807,-11.84322189,-2.39052887,12.42083061
14.76276196,2.708018646,-11.63201111,-2.740501099,12.25346456
14.77276596,2.26523941,-11.14881592,-2.919977875,11.74536831
14.78276996,1.496438141,-10.57715469,-3.100053406,11.12321265
14.79277396,0.6641688538,-9.65432373,-2.511926422,9.997842833
14.80277796,-0.5884263611,-8.675209808,-2.077080688,8.939786071
14.81278196,-1.378034363,-8.075556793,-2.189047852,8.479712656
14.82278596,-1.460512848,-7.745193787,-2.176923065,8.176803691
14.83278996,-1.086740112,-7.549251251,-1.836680603,7.84510001
14.84279396,-0.4980143738,-7.438780975,-1.413660278,7.588274909
14.85279796,-0.2915936279,-7.498357086,-1.05306015,7.577553795
14.86280196,0.3225791931,-7.421566772,-0.2574645996,7.433034287
14.87280596,1.034798126,-6.674320679,0.6625222778,6.786479165
14.88280896,2.072440338,-5.919290771,0.75353302,6.316709919
14.89281296,2.093696136,-5.382656708,1.174457703,5.893717642
14.90281696,2.559976501,-4.827012177,1.865420837,5.773501636
14.91282096,2.897973633,-4.046385498,2.285896454,5.476934304
14.92282496,2.949466553,-3.025209045,2.49935257,4.908971988
14.93282896,2.958597565,-2.563119965,2.229463806,4.504818794
14.94283296,2.727777557,-2.44785965,1.866169281,4.11283054
14.95283696,2.27931015,-2.555036774,1.04018692,3.578471252
14.96284096,1.858385468,-2.816692657,0.1294807434,3.376998569
14.97284496,1.390308838,-3.262765045,-0.7232958984,3.619634147
14.98284896,1.161434784,-3.872596893,-1.923050995,4.477059591
14.99285296,1.096020813,-4.718787231,-3.352578278,5.891349223
15.00285696,1.338217163,-5.541177063,-5.014572144,7.592193504
15.01285996,1.886377258,-6.226302338,-6.932533722,9.507117532
