"Time (s)","Acceleration x (m/s^2)","Acceleration y (m/s^2)","Acceleration z (m/s^2)","Absolute acceleration (m/s^2)"
1.443958346E-3,-1.921808578E1,-4.559219055E0,6.225374268E1,6.531194207E1
1.138395834E-2,-1.892709091E1,-1.620979156E0,2.090343109E1,2.824563285E1
2.132295835E-2,-1.097622482E1,2.274669800E0,7.874375153E0,1.369881083E1
3.126195833E-2,-1.384635635E1,2.058519287E0,-5.096302185E0,1.489736157E1
4.120195835E-2,-1.546958084E1,7.411088562E-1,-5.134772186E0,1.631634331E1
5.114095833E-2,-1.308084824E1,8.095166016E-1,-2.415077820E0,1.332653400E1
6.107995834E-2,-9.948013000E0,8.370593262E-1,-9.642947388E-1,1.002963087E1
7.101995836E-2,-7.664511566E0,2.866539001E-1,-2.070195007E-1,7.672663493E0
8.095895834E-2,-5.897136841E0,-3.704795837E-1,-1.206491089E-1,5.909994437E0
9.089895835E-2,-4.292623444E0,-8.406518555E-1,-2.656974792E-1,4.382226229E0
1.008379583E-1,-2.953508148E0,-9.593550110E-1,-4.481680298E-1,3.137582987E0
1.107769583E-1,-1.974992981E0,-7.197033691E-1,-4.758604431E-1,2.155229309E0
1.207169583E-1,-1.308129730E0,-3.918850708E-1,-3.893403625E-1,1.419987048E0
1.306559583E-1,-7.361691284E-1,-2.683918762E-1,-5.520520020E-1,9.585095710E-1
1.405949583E-1,-2.565664673E-1,-1.679507446E-1,-3.861968994E-1,4.931347178E-1
1.505349583E-1,1.796264648E-3,-1.209484863E-1,-3.447331238E-1,3.653391432E-1
1.604739583E-1,2.399510193E-1,-1.321751404E-1,-3.616479492E-1,4.536915236E-1
1.704139583E-1,5.289999390E-1,-2.037263489E-1,-5.378315735E-1,7.814142065E-1
1.803529583E-1,9.136999512E-1,-4.748126221E-1,-1.254690857E0,1.623127775E0
1.902919583E-1,1.476379852E0,-7.542814636E-1,-2.780168610E0,3.236970110E0
2.002319584E-1,2.283202057E0,-7.330256653E-1,-4.574936371E0,5.165305514E0
2.101709583E-1,3.151246948E0,-6.715036011E-1,-5.348976746E0,6.244423644E0
2.201099583E-1,3.755091248E0,-5.595364380E-1,-5.679339752E0,6.831448699E0
2.300499583E-1,3.955973511E0,-2.872526550E-1,-5.861211548E0,7.077149236E0
2.399889583E-1,4.005520477E0,-7.589218140E-2,-5.944288788E0,7.168299876E0
2.499279583E-1,3.718118134E0,-2.395019531E-3,-5.898633728E0,6.972681554E0
2.598679583E-1,3.713328094E0,1.905537415E-1,-5.618865509E0,6.737712214E0
2.698069583E-1,3.801494751E0,3.135978699E-1,-5.211113434E0,6.457972529E0
2.797469583E-1,3.638483734E0,3.332070923E-1,-4.688101044E0,5.943726293E0
2.896859583E-1,3.457510071E0,5.095404053E-1,-4.090992737E0,5.380541691E0
2.996249583E-1,3.107687531E0,7.104226685E-1,-3.476819916E0,4.717064647E0
3.095649584E-1,2.569406891E0,8.228388977E-1,-2.746189270E0,3.849736501E0
3.195039583E-1,2.041754150E0,8.273295593E-1,-1.989363098E0,2.968299134E0
3.294429583E-1,1.634600830E0,8.098159790E-1,-1.400188293E0,2.299619327E0
3.393829583E-1,1.353934479E0,7.786807251E-1,-9.035211182E-1,1.804392600E0
3.493219583E-1,1.051413574E0,6.912625122E-1,-4.869374084E-1,1.349230301E0
3.592619583E-1,8.524772644E-1,6.517446899E-1,-1.926493835E-1,1.090230440E0
3.692009583E-1,9.689350891E-1,6.725514221E-1,-1.083746338E-1,1.184443196E0
3.791399583E-1,1.281185760E0,6.535409546E-1,-1.978884888E-1,1.451796331E0
3.890799583E-1,1.752555542E0,5.932164001E-1,-5.128335571E-1,1.919988251E0
3.990189583E-1,2.240540771E0,5.685177612E-1,-8.942404175E-1,2.478487708E0
4.089579583E-1,2.550845490E0,5.396278381E-1,-1.215472412E0,2.876696734E0
4.188979583E-1,2.473157043E0,5.647755432E-1,-1.312770081E0,2.856368754E0
4.288369583E-1,1.821562042E0,5.813909912E-1,-1.163231049E0,2.238126500E0
4.387769584E-1,9.903405762E-1,5.149291992E-1,-8.825646973E-1,1.422971181E0
4.487159583E-1,4.638853455E-1,4.658312988E-1,-7.926017761E-1,1.029760161E0
4.586549583E-1,3.742218018E-3,4.173321533E-1,-1.385818176E0,1.447298224E0
4.685949583E-1,-8.825646973E-1,2.053729248E-1,-3.501219177E0,3.616577693E0
4.785339583E-1,-2.823578339E0,-3.655398560E-1,-7.349117432E0,7.881354011E0
4.884729583E-1,-6.837182007E0,-1.058448944E0,-8.513396301E0,1.097020002E1
4.984129583E-1,-1.840228226E1,-2.551294556E0,-9.691745911E0,2.095430827E1
5.083519583E-1,-5.388838852E1,-8.721313934E0,-1.236788086E1,5.597306683E1
5.182909583E-1,-8.023854309E1,-1.621278534E1,-1.705837692E1,8.361857706E1
5.282309583E-1,-7.826414886E1,-1.045291306E1,-3.075055389E0,7.901896199E1
5.381699583E-1,-7.863388000E1,-2.262844391E0,1.900043839E1,8.092851295E1
5.481099583E-1,-6.049415176E1,-1.834734650E0,5.970289719E1,8.501379054E1
5.580489583E-1,-2.603476044E1,-4.521647186E0,6.200391220E1,6.739984549E1
5.679879583E-1,-2.266182449E1,-6.858737183E-1,2.328902023E1,3.250241800E1
5.779279583E-1,-1.313832870E1,3.644022217E0,9.347012787E0,1.653061484E1
5.878669583E-1,-1.585008957E1,1.996997223E0,-4.569397888E0,1.661603847E1
5.978059583E-1,-1.585622681E1,5.685177612E-1,-3.755240936E0,1.630475316E1
6.077459583E-1,-1.289463547E1,9.211843872E-1,-7.744894409E-1,1.295067714E1
6.176849583E-1,-9.470356293E0,4.852908325E-1,5.254074097E-1,9.497326384E0
6.276249583E-1,-6.677913208E0,-5.132826233E-1,9.693841553E-1,6.767399021E0
6.375639583E-1,-4.797822876E0,-1.152752838E0,5.158273315E-1,4.961251988E0
6.475029583E-1,-3.273093567E0,-1.225651245E0,-1.197509766E-1,3.497099193E0
6.574429583E-1,-1.990859985E0,-1.040935364E0,-4.679269409E-1,2.294782241E0
6.673819583E-1,-1.126407623E0,-6.917115784E-1,-5.941145325E-1,1.449217416E0
6.773209583E-1,-7.417076111E-1,-4.239184570E-1,-5.837860107E-1,1.034718872E0
6.872609583E-1,-6.721023560E-1,-2.583627319E-1,-6.137237549E-1,9.461129560E-1
6.971999583E-1,-5.014572144E-1,-1.029858398E-1,-9.611512756E-1,1.088979888E0
7.071399583E-1,-3.246748352E-1,-8.322692871E-2,-2.005529480E0,2.033344281E0
7.170789583E-1,-4.076023865E-1,-3.847000122E-2,-2.789449310E0,2.819334514E0
7.270179583E-1,-6.665638733E-1,-3.891906738E-2,-3.349883881E0,3.415778697E0
7.369579583E-1,-2.995271301E-1,-1.824705505E-1,-4.492757263E0,4.506426503E0
7.468969583E-1,1.210682373E0,-1.794767761E-1,-5.635630646E0,5.767000650E0
7.568359583E-1,2.745889893E0,-2.588117981E-1,-6.859485626E0,7.393202142E0
7.667764167E-1,4.154011688E0,-2.163002014E-1,-7.717201996E0,8.766858361E0
7.767154167E-1,5.222639465E0,-5.463638306E-2,-7.666008453E0,9.276132477E0
7.866554167E-1,5.708678741E0,1.645079041E-1,-6.877747650E0,8.939770051E0
7.965944167E-1,5.867348785E0,3.173400879E-2,-5.926176453E0,8.339445795E0
8.065334167E-1,5.744753723E0,-1.001417542E-1,-5.486989746E0,7.944764325E0
8.164734167E-1,5.127287750E0,2.007325745E-1,-5.220244446E0,7.319858285E0
8.264124167E-1,4.298161926E0,3.131488037E-1,-4.417014771E0,6.171083989E0
8.363514167E-1,3.992796936E0,3.727249146E-1,-3.547922058E0,5.354353571E0
8.462914167E-1,3.652105408E0,4.818479919E-1,-2.767744446E0,4.607652408E0
8.562304167E-1,3.171903992E0,5.644761658E-1,-2.162403259E0,3.880154137E0
8.661704167E-1,2.548450470E0,6.381230164E-1,-1.463057556E0,3.007048086E0
8.761094167E-1,1.854044495E0,6.999444580E-1,-7.012916565E-1,2.102192479E0
8.860484167E-1,1.137035522E0,6.306385803E-1,-2.257305908E-1,1.319662494E0
8.959884167E-1,8.071215820E-1,5.412744141E-1,-4.909790039E-2,9.730538748E-1
9.059274167E-1,6.664141846E-1,6.239025879E-1,1.892065430E-1,9.322882711E-1
9.158664167E-1,6.638694763E-1,7.024891663E-1,4.120930481E-1,1.050730408E0
9.258064167E-1,1.049916687E0,8.144563293E-1,5.275030518E-1,1.429658572E0
9.357454167E-1,1.622026978E0,8.845106506E-1,5.634283447E-1,1.931523261E0
9.456854167E-1,2.167193298E0,9.111552429E-1,3.176394653E-1,2.372303838E0
9.556244167E-1,2.869981842E0,1.128203888E0,-8.951385498E-2,3.085069289E0
9.655634167E-1,3.043321381E0,1.500928802E0,-4.851411438E-1,3.427820623E0
9.755034167E-1,1.510209503E0,1.093625793E0,-7.316784668E-1,2.003023589E0
9.854424167E-1,5.474116516E-1,6.053411865E-1,-4.718188477E-1,9.427144284E-1
9.953814167E-1,2.149530029E-1,3.951782227E-1,-6.541397095E-2,4.545872949E-1
1.005321417E0,1.273851013E-1,2.047741699E-1,9.759704590E-2,2.601626570E-1
1.015260417E0,5.149291992E-2,-7.933502197E-2,-1.388662262E0,1.391879465E0
1.025199417E0,-1.458117828E0,-6.158193970E-1,-4.997058563E0,5.241749271E0
1.035139417E0,-4.911286926E0,-1.812730408E0,-8.762478333E0,1.020724044E1
1.045078417E0,-1.368723724E1,-3.873944092E0,-9.551786957E0,1.713430886E1
1.055018417E0,-4.615067917E1,-1.067879333E1,-1.182705551E1,4.882418516E1
1.064957417E0,-8.012687531E1,-2.768298294E1,-1.518337601E1,8.612315947E1
1.074896417E0,-7.848838257E1,-1.955593323E1,-9.053173828E-1,8.089301776E1
1.084836417E0,-7.855768845E1,-9.363029480E-1,1.662981812E1,8.030403432E1
1.094775417E0,-6.947682220E1,4.130211182E0,4.264526871E1,8.162540298E1
1.104714417E0,-2.870820099E1,-2.586321716E0,6.904497025E1,7.482016961E1
1.114654417E0,-2.342044693E1,-7.897576904E-1,2.634955582E1,3.526244664E1
1.124593417E0,-1.132963989E1,3.357518005E0,1.178484329E1,1.668880459E1
1.134533417E0,-9.755962372E0,2.461331635E0,-1.171912994E0,1.012967597E1
1.144472417E0,-1.014260834E1,7.906558228E-1,-3.576063538E0,1.078359267E1
1.154411417E0,-8.414751434E0,5.375321960E-1,-2.064207458E0,8.680894827E0
1.164351417E0,-6.144272919E0,5.780978394E-1,-1.672172699E0,6.393938407E0
1.174290417E0,-3.674259338E0,2.826123047E-1,-1.240021362E0,3.888149223E0
1.184230417E0,-2.060465240E0,-1.222956848E-1,-1.271905060E0,2.424503191E0
1.194169417E0,-1.088686066E0,-3.644920349E-1,-1.514400787E0,1.900395100E0
1.204108417E0,-4.852908325E-1,-4.869374084E-1,-1.664388885E0,1.800779163E0
1.214048417E0,-2.424957275E-1,-4.776567078E-1,-1.718127136E0,1.799700243E0
1.223987417E0,-3.447331238E-1,-4.670288086E-1,-1.852397919E0,1.941219947E0
1.233926417E0,-7.005432129E-1,-3.972738647E-1,-2.052831116E0,2.205153715E0
1.243866417E0,-1.127305756E0,-3.622467041E-1,-2.341430969E0,2.623802570E0
1.253805417E0,-1.288819885E0,-3.685336304E-1,-2.754871216E0,3.063688814E0
1.263745417E0,-1.350192261E0,-3.132984924E-1,-3.323538666E0,3.600983803E0
1.273684417E0,-1.394949188E0,-3.610491943E-1,-4.037104797E0,4.286543468E0
1.283623417E0,-1.267264709E0,-5.574407959E-1,-4.932692413E0,5.123295280E0
1.293563417E0,-3.502716064E-2,-7.988887024E-1,-5.899980927E0,5.953925175E0
1.303502417E0,1.902543640E0,-5.246589661E-1,-6.937174072E0,7.212442266E0
1.313441417E0,3.850742340E0,-1.727407837E-1,-7.267986145E0,8.226887537E0
1.323381417E0,5.321583710E0,-1.532812500E-1,-7.394173737E0,9.111342029E0
1.333320417E0,6.226901093E0,-2.606080627E-1,-7.397017822E0,9.672542915E0
1.343260417E0,6.205495605E0,-4.372407532E-1,-6.010151825E0,8.649929488E0
1.353199417E0,5.305417328E0,-4.266128540E-1,-4.400698700E0,6.906200156E0
1.363138417E0,4.359234924E0,-1.514849854E-1,-3.675307159E0,5.703837265E0
1.373078417E0,3.994593201E0,7.035369873E-2,-3.531007233E0,5.331954291E0
1.383017417E0,3.812122650E0,2.333647156E-1,-3.527265015E0,5.198878405E0
1.392956417E0,3.328029327E0,4.034111023E-1,-3.175795898E0,4.617813261E0
1.402896417E0,2.835104370E0,5.459147644E-1,-2.611020355E0,3.892719745E0
1.412835417E0,2.299667816E0,6.363267517E-1,-1.955383759E0,3.084948856E0
1.422775417E0,1.738185425E0,6.917115784E-1,-1.349144440E0,2.306500422E0
1.432714417E0,1.392703857E0,7.794291687E-1,-7.897576904E-1,1.780688371E0
1.442653417E0,1.282682648E0,8.593629456E-1,-4.397854614E-1,1.605363105E0
1.452593417E0,1.399589539E0,9.157955933E-1,-4.129911804E-1,1.722815765E0
1.462532417E0,1.819466400E0,9.732760620E-1,-6.619235229E-1,2.166994929E0
1.472471417E0,2.187401276E0,9.657916260E-1,-9.840536499E-1,2.585699014E0
1.482411417E0,2.220482483E0,9.496252441E-1,-1.126856689E0,2.664983407E0
1.492350417E0,1.970053253E0,9.907896423E-1,-1.019230499E0,2.429321870E0
1.502290417E0,1.767823792E0,1.094523926E0,-6.987469482E-1,2.193497408E0
1.512229417E0,1.249002686E0,9.090596008E-1,-2.583627319E-1,1.566252971E0
1.522168417E0,6.366261292E-1,6.057902527E-1,-1.454974365E-1,8.907548274E-1
1.532108417E0,2.347119141E-1,4.498146057E-1,8.517288208E-2,5.144679601E-1
1.542047417E0,1.020877075E-1,1.520837402E-1,3.353027344E-1,3.820723593E-1
1.551986417E0,1.175056458E-1,-2.900967407E-1,-1.563798065E0,1.594812868E0
1.561926417E0,-2.802172852E0,-1.478924561E0,-6.680308228E0,7.393639737E0
1.571865417E0,-1.100975510E1,-3.871249695E0,-1.073567505E1,1.585736423E1
1.581805417E0,-3.854574371E1,-1.019470001E1,-1.246338226E1,4.177370183E1
1.591744417E0,-7.880512390E1,-3.001692947E1,-1.209754303E1,8.519163196E1
1.601683417E0,-7.891843826E1,-2.424059143E1,-2.750380554E0,8.260321279E1
1.611623417E0,-7.851802094E1,-5.861660614E0,1.824795319E1,8.082342774E1
1.621562417E0,-6.306281021E1,5.875282288E-1,5.306330429E1,8.241952125E1
1.631502417E0,-3.541605194E1,-2.443069611E0,6.053741180E1,7.017865453E1
1.641441417E0,-3.936409195E1,1.568887482E0,1.100092346E1,4.090248721E1
1.651380417E0,-1.412582520E1,3.577859802E0,6.734645233E0,1.605289583E1
1.661320417E0,-7.272776184E0,7.710466003E-1,5.852828979E-2,7.313768649E0
1.671259417E0,-8.138575745E0,3.544628906E-1,-2.701282654E0,8.582481405E0
1.681198417E0,-6.941964111E0,5.137316895E-1,-1.232836304E0,7.069276577E0
1.691138417E0,-5.252128143E0,8.592132568E-2,-8.390052795E-1,5.319413724E0
1.701077417E0,-3.197800140E0,-7.301815796E-1,-5.284011841E-1,3.322393518E0
1.711017417E0,-1.526675262E0,-1.045575714E0,-7.533833313E-1,1.997886977E0
1.720956417E0,-7.494914246E-1,-8.909472656E-1,-1.162632294E0,1.645368736E0
1.730895417E0,-5.830375671E-1,-8.247848511E-1,-1.678908691E0,1.959320609E0
1.740835417E0,-6.764433289E-1,-7.798782349E-1,-2.017654266E0,2.266432081E0
1.750774417E0,-9.824070740E-1,-6.349795532E-1,-2.409988403E0,2.678874166E0
1.760713417E0,-1.608854370E0,-4.086502075E-1,-2.970572662E0,3.402897195E0
1.770653042E0,-2.389780426E0,-1.676513672E-1,-3.553610229E0,4.285709175E0
1.780592042E0,-3.165167999E0,-1.564247131E-1,-4.708309021E0,5.675467469E0
1.790532042E0,-3.480262756E0,-1.414558411E-1,-6.081253967E0,7.008130166E0
1.800471042E0,-2.683769073E0,-2.041754150E-1,-6.906787262E0,7.412692785E0
1.810410042E0,-5.426216125E-1,-2.890489197E-1,-7.485633545E0,7.510838639E0
1.820350042E0,1.940564575E0,-2.559677124E-2,-7.812703400E0,8.050141643E0
1.830289042E0,4.358636169E0,4.945715332E-1,-8.166567535E0,9.270120580E0
1.840228042E0,5.927972717E0,5.857319641E-1,-8.177494812E0,1.011708277E1
1.850168042E0,6.791077881E0,4.264631653E-1,-8.048463135E0,1.053937230E1
1.860107042E0,6.899602203E0,8.771759033E-2,-7.475903778E0,1.017356094E1
1.870047042E0,6.294261017E0,-1.520837402E-1,-6.377787323E0,8.961976476E0
1.879986042E0,5.417983246E0,-5.777984619E-2,-5.029840393E0,7.393049124E0
1.889925042E0,4.382137299E0,3.094065857E-1,-4.276307373E0,6.130714843E0
1.899865042E0,3.739673309E0,6.436614990E-1,-3.600911865E0,5.231254424E0
1.909804042E0,3.392096100E0,8.740324402E-1,-3.040327606E0,4.638301479E0
1.919743042E0,3.081342316E0,1.013991394E0,-2.656525726E0,4.192848429E0
1.929683042E0,2.765648804E0,9.768685913E-1,-2.476599884E0,3.838832184E0
1.939622042E0,2.232607269E0,9.262738037E-1,-1.978286133E0,3.123481135E0
1.949562042E0,1.627565460E0,8.951385498E-1,-1.232387238E0,2.229130022E0
1.959501042E0,1.181343384E0,9.572593689E-1,-6.530918884E-1,1.654825279E0
1.969440042E0,1.190474396E0,1.091530151E0,-3.653901672E-1,1.655952092E0
1.979380042E0,1.416953430E0,1.246907043E0,-2.758763123E-1,1.907522461E0
1.989319042E0,1.900447998E0,1.402134247E0,-2.411485291E-1,2.373991502E0
1.999259042E0,2.703527985E0,1.534159698E0,-8.786727905E-2,3.109731532E0
2.009198042E0,2.840642853E0,1.505718842E0,5.665718079E-1,3.264574193E0
2.019137042E0,1.745370483E0,9.207353210E-1,7.908055115E-1,2.125898637E0
2.029077042E0,1.057101746E0,4.712200928E-1,1.148262177E0,1.630343063E0
2.039016042E0,6.303392029E-1,3.260220337E-1,1.265169067E0,1.450610439E0
2.048955042E0,2.812651062E-1,2.345622253E-1,1.169817352E0,1.225806728E0
2.058895042E0,-9.011260986E-2,1.148112488E-1,1.021326141E0,1.031701988E0
2.068834042E0,-3.441343689E-1,-1.678010559E-1,1.306183777E0,1.361139860E0
2.078774042E0,1.681004333E-1,-6.656657410E-1,1.035247192E0,1.242217929E0
2.088713042E0,5.786965942E-1,-7.453001404E-1,-4.183799744E-1,1.032184020E0
2.098652042E0,-9.613009644E-1,-1.317560120E0,-3.074306946E0,3.480147613E0
2.108592042E0,-7.547005920E0,-2.851270752E0,-5.957012329E0,1.002861103E1
2.118531042E0,-5.908588028E1,-2.068084396E1,-1.452758972E1,6.426421569E1
2.128470042E0,-8.097216751E1,-4.642101700E1,-1.476110413E1,9.449493598E1
2.138410042E0,-7.811296326E1,-1.801174438E1,2.434537354E0,8.019965671E1
2.148349042E0,-7.856816666E1,5.508993988E0,1.073866882E1,7.948977818E1
2.158289042E0,-6.949373703E1,2.047442322E0,4.128160446E1,8.085630695E1
2.168228042E0,-3.793695969E1,3.469485168E0,4.312906265E1,5.754447222E1
2.178167042E0,-2.003852966E1,3.258573761E0,1.090123077E1,2.304338965E1
2.188107042E0,-1.130254623E1,1.229692841E0,1.098864899E0,1.142222395E1
2.198046042E0,-7.386389923E0,3.592529297E-2,-2.154469757E0,7.694269729E0
2.207985042E0,-4.956792297E0,-1.193019104E-1,-1.880988464E0,5.303031249E0
2.217925042E0,-3.044369202E0,-3.197351074E-1,-2.016606445E0,3.665667188E0
2.227864042E0,-1.587748260E0,-5.499563599E-1,-2.226170654E0,2.789127519E0
2.237804042E0,-4.986131287E-1,-7.529342651E-1,-2.225571899E0,2.401810846E0
2.247743042E0,1.597178650E-1,-8.568182373E-1,-2.315235443E0,2.473855785E0
2.257682042E0,4.337979126E-1,-1.112785950E0,-2.740950165E0,2.989863041E0
2.267622042E0,4.017645264E-1,-1.416953430E0,-3.187172241E0,3.511016755E0
2.277561042E0,-9.804611206E-2,-1.620530090E0,-3.434458008E0,3.798846222E0
2.287500042E0,-8.110134888E-1,-1.654060364E0,-3.603306885E0,4.046909818E0
2.297440042E0,-1.676962738E0,-1.647174683E0,-3.928580475E0,4.578114569E0
2.307379042E0,-2.136207733E0,-1.376387787E0,-4.775369568E0,5.409434474E0
2.317319042E0,-2.286495209E0,-9.168434143E-1,-5.793252869E0,6.295271319E0
2.327258042E0,-1.673519897E0,-8.578660583E-1,-6.559659119E0,6.823908761E0
2.337197042E0,-4.025129700E-1,-7.806266785E-1,-7.011719055E0,7.066512493E0
2.347137042E0,1.470991058E0,-4.382885742E-1,-7.819289703E0,7.968513226E0
2.357076042E0,3.426374817E0,-1.651066589E-1,-8.188122711E0,8.877649358E0
2.367016042E0,4.947062531E0,2.544708252E-3,-8.111182709E0,9.500774657E0
2.376955042E0,5.871839447E0,1.245410156E-1,-7.901618500E0,9.845282315E0
2.386894042E0,6.342161407E0,-3.367996216E-2,-6.892566833E0,9.366516066E0
2.396834042E0,5.785019989E0,-3.778143311E-1,-5.326523438E0,7.872804575E0
2.406773042E0,4.777016144E0,-3.062631226E-1,-4.531227264E0,6.591335287E0
2.416712042E0,4.194727020E0,2.095642090E-2,-3.955524445E0,5.765617710E0
2.426652042E0,3.766766968E0,2.824626160E-1,-3.228037262E0,4.968756694E0
2.436591042E0,3.252137146E0,5.575904846E-1,-2.480940857E0,4.128240630E0
2.446531042E0,2.695444794E0,8.490344238E-1,-1.771566010E0,3.335375273E0
2.456470042E0,2.140099640E0,1.050814819E0,-1.425785065E0,2.777967117E0
2.466409042E0,1.830842743E0,1.079555054E0,-1.288969574E0,2.485732654E0
2.476349042E0,1.588945770E0,1.071022797E0,-9.729766846E-1,2.149074713E0
2.486288042E0,1.422641602E0,1.044976959E0,-5.962101746E-1,1.863156607E0
2.496227042E0,1.480720825E0,1.062340851E0,-4.146377563E-1,1.868964075E0
2.506167042E0,1.654509430E0,1.128353577E0,-2.733316040E-1,2.021210878E0
2.516106042E0,1.946851501E0,1.137933655E0,-2.577639771E-1,2.269706157E0
2.526046042E0,2.719095612E0,1.424288177E0,2.168989563E-1,3.077194000E0
2.535985042E0,3.159479828E0,1.593286743E0,5.969586182E-1,3.588486453E0
2.545924042E0,2.481539612E0,1.132095795E0,5.635780334E-1,2.785192980E0
2.555864042E0,1.833537140E0,6.328839111E-1,8.104147339E-1,2.102182801E0
2.565803042E0,1.420995026E0,3.276686096E-1,6.728507996E-1,1.606026706E0
2.575743042E0,1.147813110E0,1.492396545E-1,4.370910645E-1,1.237253414E0
2.585682042E0,9.431886292E-1,4.535568237E-2,2.576142883E-1,9.787885623E-1
2.595621042E0,5.936654663E-1,4.969665527E-2,1.445993042E-1,6.130394785E-1
2.605561042E0,1.643582153E-1,4.655319214E-2,6.500981140E-1,6.721669290E-1
2.615500042E0,2.706372070E-1,-9.849517822E-2,3.767665100E-1,4.742349639E-1
2.625439042E0,-4.486170959E-1,-8.408015442E-1,-5.071603546E0,5.160365013E0
2.635379042E0,-6.025869141E0,-2.785707092E0,-1.242790604E1,1.408985846E1
2.645318042E0,-3.473721359E1,-7.862549744E0,-1.783885391E1,3.983363410E1
2.655258042E0,-7.861651611E1,-1.791579391E1,-2.019300842E1,8.312213825E1
2.665197042E0,-7.876874954E1,-1.025607239E1,-8.048762512E0,7.984037514E1
2.675136042E0,-7.846727646E1,-2.205214233E0,1.919578217E1,8.081122755E1
2.685076042E0,-6.396303818E1,-1.034049683E0,5.547853180E1,8.467707483E1
2.695015042E0,-3.312371887E1,-1.784289551E0,5.848562851E1,6.723788503E1
2.704954042E0,-3.633873322E1,-1.457968140E-1,7.751331024E0,3.715653268E1
2.714894042E0,-1.240949432E1,1.855092316E0,4.440815277E0,1.331006225E1
2.724833042E0,-4.209396515E0,9.931846619E-1,-6.318360901E-1,4.370886825E0
2.734773042E0,-2.723137207E0,6.300398254E-1,-2.093845825E0,3.492365498E0
2.744712042E0,-1.518891449E0,6.506968689E-1,-1.198407898E0,2.041229810E0
2.754651042E0,-1.060245209E0,2.552192688E-1,-1.452279968E0,1.816142584E0
2.764591792E0,-6.587800598E-1,-2.612068176E-1,-1.522483978E0,1.679338451E0
2.774530792E0,-2.983296204E-1,-5.514532471E-1,-1.757794647E0,1.866264522E0
2.784470792E0,-1.103205872E-1,-7.125183105E-1,-2.209405518E0,2.324075239E0
2.794409792E0,-2.004331970E-1,-7.500901794E-1,-2.462828522E0,2.582311575E0
2.804348792E0,-2.372566223E-1,-8.180488586E-1,-2.457290039E0,2.600724702E0
2.814288792E0,-3.766168213E-1,-9.219328308E-1,-2.375410309E0,2.575727957E0
2.824227792E0,-6.599775696E-1,-9.648934937E-1,-2.539918213E0,2.796028321E0
2.834166792E0,-8.566685486E-1,-8.390052795E-1,-3.118016052E0,3.340633916E0
2.844106792E0,-1.518741760E0,-5.086422729E-1,-4.057462463E0,4.362143411E0
2.854045792E0,-1.867965546E0,-1.938468933E-1,-5.155578918E0,5.486972378E0
2.863985792E0,-1.720522156E0,-1.276844788E-1,-6.209387512E0,6.444609615E0
2.873924792E0,-6.770420837E-1,-1.474433899E-1,-7.087162170E0,7.120954512E0
2.883863792E0,1.107546844E0,2.213896179E-1,-8.081694031E0,8.160236013E0
2.893803792E0,3.216660919E0,3.023712158E-1,-8.503816223E0,9.096880024E0
2.903742792E0,4.410877533E0,1.032852173E-1,-7.788453827E0,8.951341880E0
2.913681792E0,4.775519257E0,-2.300715637E-1,-6.888824615E0,8.385369502E0
2.923621792E0,4.470154266E0,-4.893324280E-1,-5.610033875E0,7.189868251E0
2.933560792E0,3.970493317E0,-6.885681152E-1,-4.871170349E0,6.321965185E0
2.943500792E0,3.692521362E0,-6.876699829E-1,-4.443210297E0,5.818051371E0
2.953439792E0,3.460354156E0,-4.812492371E-1,-3.900438995E0,5.236322762E0
2.963378792E0,3.063379669E0,-3.757186890E-2,-3.790717163E0,4.873935089E0
2.973318792E0,2.652783508E0,3.403921509E-1,-3.912863159E0,4.739580705E0
2.983257792E0,2.538121948E0,5.999523926E-1,-3.025209045E0,3.994232801E0
2.993197792E0,2.256108398E0,8.068222046E-1,-2.035467224E0,3.143901079E0
3.003136792E0,1.856140137E0,8.593629456E-1,-1.503174133E0,2.538364307E0
3.013075792E0,1.530866547E0,8.020321655E-1,-1.043779449E0,2.018980812E0
3.023015792E0,1.328188019E0,8.175997925E-1,-6.643185425E-1,1.695249822E0
3.032954792E0,1.185235291E0,8.590635681E-1,-3.269201660E-1,1.499883230E0
3.042893792E0,1.340163116E0,8.845106506E-1,-2.356100464E-1,1.622932027E0
3.052833792E0,1.776056671E0,8.262817383E-1,-3.230282593E-1,1.985312587E0
3.062772792E0,2.234253845E0,7.756869507E-1,-4.113446045E-1,2.400580112E0
3.072712792E0,2.514770508E0,7.388635254E-1,-5.566923523E-1,2.679532868E0
3.082651792E0,2.569556580E0,7.508386230E-1,-6.327342224E-1,2.750769392E0
3.092590792E0,2.295027466E0,8.487350464E-1,-5.866300964E-1,2.516274452E0
3.102530792E0,1.616488495E0,8.527766418E-1,-3.879931641E-1,1.868368740E0
3.112469792E0,1.076561279E0,6.180647278E-1,-1.218466187E-1,1.247331068E0
3.122408792E0,7.825726318E-1,4.357438660E-1,4.730163574E-2,8.969560109E-1
3.132348792E0,5.388793945E-1,3.962260437E-1,1.314266968E-1,6.816590469E-1
3.142287792E0,3.785627747E-1,2.239343262E-1,2.911445618E-1,5.274670726E-1
3.152227792E0,5.113366699E-1,-5.987548828E-2,-3.878434753E-1,6.445718156E-1
3.162166792E0,-1.010099487E0,-7.084767151E-1,-4.471800842E0,4.638883810E0
3.172105792E0,-1.000654129E1,-2.523302765E0,-1.034858002E1,1.461475398E1
3.182045792E0,-3.806374603E1,-6.489155731E0,-1.162288010E1,4.032430093E1
3.191984792E0,-7.843180023E1,-1.911689621E1,-1.084614532E1,8.145331102E1
3.201924792E0,-7.887008881E1,-1.543500275E1,-6.418802032E0,8.062215104E1
3.211863792E0,-7.847820374E1,-5.955365753E0,1.293894333E1,7.976033536E1
3.221802792E0,-7.447043793E1,1.321751404E-1,3.104663818E1,8.068306723E1
3.231742792E0,-3.490845749E1,2.675236816E0,6.701309555E1,7.560762046E1
3.241681792E0,-2.503918076E1,5.554499359E0,2.192834976E1,3.374411889E1
3.251620792E0,-9.769883423E0,5.864205322E0,1.369352417E1,1.781437988E1
3.261560792E0,-5.343438263E0,1.819466400E0,2.106719055E0,6.025035737E0
3.271499792E0,-8.606502686E0,1.087638245E0,-2.918181610E0,9.152629641E0
3.281439792E0,-9.091643829E0,1.112785950E0,-1.320104828E0,9.254131880E0
3.291378792E0,-8.167465668E0,8.776249695E-1,-1.085243225E0,8.285859876E0
3.301317792E0,-6.555617523E0,3.594026184E-1,-5.352868652E-1,6.587247026E0
3.311257792E0,-4.915478210E0,-6.975494385E-2,-8.906478882E-2,4.916779874E0
3.321196792E0,-3.591930542E0,-3.257226562E-1,-2.261796570E-1,3.613753935E0
3.331136792E0,-2.581232300E0,-5.204676819E-1,-7.765850830E-1,2.745310763E0
3.341075792E0,-1.813029785E0,-6.933581543E-1,-1.447789307E0,2.421552479E0
3.351014792E0,-1.417552185E0,-8.370593262E-1,-1.894759827E0,2.510027353E0
3.360954792E0,-1.268162842E0,-1.026864624E0,-2.336341553E0,2.849768377E0
3.370893792E0,-7.155120850E-1,-1.092727661E0,-2.693049774E0,2.993080081E0
3.380832792E0,-1.478924561E-1,-1.137334900E0,-3.082539825E0,3.288989910E0
3.390772792E0,1.077758789E-2,-1.081800385E0,-3.407663727E0,3.575273459E0
3.400711792E0,1.951940918E-1,-9.888436890E-1,-3.733087006E0,3.866762362E0
3.410651792E0,7.509883118E-1,-1.077309723E0,-4.139342194E0,4.342664330E0
3.420590792E0,1.434167633E0,-1.075962524E0,-4.690645752E0,5.021622220E0
3.430529792E0,2.193688202E0,-1.041085052E0,-5.073848877E0,5.624950528E0
3.440469792E0,2.702629852E0,-7.426057434E-1,-5.272485809E0,5.971162200E0
3.450408792E0,3.149899750E0,-3.475772095E-1,-5.290897522E0,6.167355587E0
3.460347792E0,3.368594971E0,-1.480421448E-1,-4.740492096E0,5.817354542E0
3.470287792E0,3.242706757E0,-2.237846375E-1,-3.936663666E0,5.105149115E0
3.480226792E0,2.690654755E0,-4.111949158E-1,-3.689677277E0,4.585021556E0
3.490166792E0,2.085313568E0,-4.592449951E-1,-3.989503784E0,4.524994927E0
3.500105792E0,1.985321503E0,-3.863465881E-1,-4.332740021E0,4.781568910E0
3.510044792E0,1.995350647E0,-1.924996948E-1,-4.484225006E0,4.911899250E0
3.519984792E0,1.981728973E0,1.291813660E-1,-4.338727570E0,4.771634361E0
3.529923792E0,1.943109283E0,4.625381470E-1,-3.717220001E0,4.219874378E0
3.539863792E0,1.860780487E0,7.131170654E-1,-3.065325623E0,3.656126522E0
3.549802792E0,1.702709198E0,8.671467590E-1,-2.385439453E0,3.056384056E0
3.559741792E0,1.476230164E0,9.448352051E-1,-1.726060638E0,2.459929753E0
3.569681792E0,1.304986267E0,9.734257507E-1,-1.133143616E0,1.983572863E0
3.579620792E0,1.156944122E0,9.647438049E-1,-7.108717346E-1,1.665709739E0
3.589559792E0,9.621990967E-1,9.539662170E-1,-5.902226257E-1,1.477917925E0
3.599499792E0,9.940827942E-1,9.621990967E-1,-7.113208008E-1,1.555636521E0
3.609438792E0,1.248703308E0,9.455836487E-1,-8.125103760E-1,1.764528690E0
3.619378792E0,1.664987640E0,8.545729065E-1,-1.168021088E0,2.206071612E0
3.629317792E0,2.251468048E0,6.559359741E-1,-1.698966980E0,2.895833071E0
3.639256792E0,2.578687592E0,3.888912964E-1,-2.047891388E0,3.315829500E0
3.649196792E0,2.361788635E0,1.336720276E-1,-2.057920532E0,3.135434688E0
3.659135792E0,1.686243439E0,1.008901978E-1,-1.730700989E0,2.418454399E0
3.669074792E0,1.061592407E0,1.044827271E-1,-1.362766113E0,1.730614503E0
3.679014792E0,8.698411560E-1,-6.735992432E-3,-1.247954865E0,1.521203587E0
3.688953792E0,2.742297363E-1,-3.266207886E-1,-2.740201721E0,2.773191043E0
3.698893792E0,-2.852468262E0,-1.489103394E0,-7.372019806E0,8.043673298E0
3.708832792E0,-1.303968384E1,-3.819906464E0,-1.107666595E1,1.753047543E1
3.718771792E0,-5.183331207E1,-1.152513336E1,-8.894653473E0,5.383898030E1
3.728711792E0,-8.050124680E1,-2.667303314E1,-7.278164978E0,8.511682042E1
3.738650792E0,-7.829318848E1,-1.420800430E1,1.006656647E0,7.957828916E1
3.748590792E0,-7.859496094E1,1.033001862E0,1.773766434E1,8.057828314E1
3.758529792E0,-6.904107834E1,1.092577972E0,4.163217545E1,8.062941310E1
3.768468417E0,-2.745620453E1,-2.701582031E0,6.582845901E1,7.137596044E1
3.778408417E0,-1.652398819E1,2.026336212E0,2.260449371E1,2.807332115E1
3.788347417E0,-3.778292999E0,2.451003113E0,1.404978333E1,1.475395966E1
3.798286417E0,-6.681655426E0,-4.296066284E-2,-4.340972900E-3,6.681794946E0
3.808226417E0,-9.525741119E0,1.471440125E-1,-1.822011108E0,9.699542242E0
3.818165417E0,-8.096812592E0,4.300556946E-1,-5.462141418E-1,8.126602730E0
3.828105417E0,-6.143374786E0,1.459465027E-1,-3.975732422E-1,6.157955718E0
3.838044417E0,-4.565206604E0,-3.824546814E-1,-2.074685669E-1,4.585894256E0
3.847983417E0,-3.116668854E0,-7.297325134E-1,-6.899153137E-1,3.274464449E0
3.857923417E0,-1.908830566E0,-8.674461365E-1,-1.394350433E0,2.517997232E0
3.867862417E0,-1.030906219E0,-8.135581970E-1,-1.797611847E0,2.226219424E0
3.877801417E0,-7.682025146E-1,-7.433541870E-1,-1.893412628E0,2.174332525E0
3.887741417E0,-8.943901062E-1,-6.845265198E-1,-2.193688202E0,2.465923386E0
3.897680417E0,-8.976832581E-1,-6.731501770E-1,-2.633922729E0,2.862955700E0
3.907620417E0,-7.936495972E-1,-7.833210754E-1,-3.000660095E0,3.201161133E0
3.917559417E0,-1.634451141E0,-1.064735870E0,-4.043242035E0,4.489198053E0
3.927498417E0,-2.172282715E0,-1.271755371E0,-5.497168579E0,6.046076108E0
3.937438417E0,-1.661395111E0,-1.419647827E0,-6.699767761E0,7.047164091E0
3.947377417E0,-2.652484131E-1,-1.374441833E0,-7.850275269E0,7.974099878E0
3.957317417E0,1.873803406E0,-9.839039612E-1,-8.373736725E0,8.637052330E0
3.967256417E0,3.771107941E0,-5.800437927E-1,-8.007149048E0,8.869731776E0
3.977195417E0,5.129084015E0,-4.682263184E-1,-6.958729248E0,8.657404430E0
3.987135417E0,5.654790802E0,-5.914201355E-1,-5.385500793E0,7.831350815E0
3.997074417E0,5.552852783E0,-7.265890503E-1,-4.562661896E0,7.223571780E0
4.007013417E0,5.355712738E0,-8.810678101E-1,-5.407804413E0,7.661872355E0
4.016953417E0,4.425996094E0,-1.012494507E0,-5.964796143E0,7.496224354E0
4.026892417E0,3.571572876E0,-7.650590515E-1,-4.970114594E0,6.167940275E0
4.036832417E0,3.403472443E0,-3.330574036E-1,-4.006717987E0,5.267669402E0
4.046771417E0,3.350931702E0,9.325607300E-2,-3.283571777E0,4.692470946E0
4.056710417E0,2.987487488E0,5.152285767E-1,-2.803669739E0,4.129298485E0
4.066650417E0,2.597997437E0,7.499404907E-1,-2.301763458E0,3.551072576E0
4.076589417E0,2.182760925E0,7.732919312E-1,-1.833836517E0,2.953875766E0
4.086529417E0,1.862277374E0,7.655081177E-1,-1.293759613E0,2.393301827E0
4.096468417E0,1.546134796E0,8.375083923E-1,-9.080117798E-1,1.978999370E0
4.106407417E0,1.339414673E0,9.120533752E-1,-8.240364075E-1,1.817940875E0
4.116347417E0,1.387015686E0,9.740245056E-1,-8.291258240E-1,1.886792485E0
4.126286417E0,1.682650909E0,1.076561279E0,-8.307723999E-1,2.163441945E0
4.136225417E0,2.236948242E0,1.092428284E0,-1.024619293E0,2.692059006E0
4.146165417E0,2.700833588E0,1.026265869E0,-1.289418640E0,3.163909628E0
4.156104417E0,3.100652161E0,1.014739838E0,-9.324110413E-1,3.393100516E0
4.166044417E0,2.708617401E0,7.556286621E-1,-3.026705933E-1,2.828284354E0
4.175983417E0,1.755549316E0,3.004252625E-1,-1.645079041E-1,1.788650774E0
4.185922417E0,9.508227539E-1,9.909393311E-2,-4.206253052E-2,9.568974728E-1
4.195862417E0,3.432362366E-1,8.173004150E-2,1.300794983E-1,3.760473237E-1
4.205801417E0,5.523513794E-2,7.574249268E-2,3.712280273E-1,3.828813053E-1
4.215740417E0,-1.212478638E-2,7.978408813E-2,6.372248840E-1,6.423146145E-1
4.225680417E0,1.273851013E-1,1.002914429E-2,8.568182373E-1,8.662938529E-1
4.235619417E0,2.823129272E-1,-1.971400452E-1,-1.322799225E0,1.366880600E0
4.245559417E0,-3.667074280E0,-1.401535492E0,-8.260871429E0,9.146241429E0
4.255498417E0,-2.579286346E1,-3.701352997E0,-1.392374542E1,2.954390811E1
4.265437417E0,-7.509718460E1,-1.000100281E1,-1.502470596E1,7.723567169E1
4.275377417E0,-7.932544189E1,-9.671987000E0,-1.338381821E1,8.102591964E1
4.285316417E0,-7.824513840E1,-1.214873657E0,7.499704285E0,7.861312336E1
4.295256417E0,-7.756989258E1,2.153272247E0,2.121702896E1,8.044803996E1
4.305195417E0,-3.897550003E1,1.088087311E0,5.774556747E1,6.967656779E1
4.315134417E0,-1.363993561E1,-3.007246399E-1,4.352064835E1,4.560904637E1
4.325074417E0,-1.254750732E1,7.921527100E-1,9.673184509E0,1.586310009E1
4.335013417E0,-3.836222534E0,1.094673615E0,2.263293457E0,4.586655745E0
4.344952417E0,-2.141147461E0,3.073109436E-1,-2.363285522E0,3.203758875E0
4.354892417E0,-1.767973480E0,3.692820740E-1,-2.362986145E0,2.974189469E0
4.364831417E0,-1.091679840E0,3.481759644E-1,-2.042352905E0,2.341836195E0
4.374771417E0,-7.191046143E-1,4.134402466E-1,-2.430495758E0,2.568142113E0
4.384710417E0,-4.875361633E-1,1.706451416E-1,-2.847678223E0,2.894146253E0
4.394649417E0,-8.532257080E-3,-2.926414490E-1,-2.932701416E0,2.947278306E0
4.404589417E0,5.284011841E-2,-5.577401733E-1,-3.106639709E0,3.156750935E0
4.414528417E0,-2.363584900E-1,-6.661148071E-1,-3.239862671E0,3.316064595E0
4.424468417E0,-5.137316895E-1,-8.893006897E-1,-3.060236206E0,3.227974845E0
4.434407417E0,-4.670288086E-1,-1.165326691E0,-2.811303864E0,3.078884801E0
4.444346417E0,-3.887416077E-1,-1.365759888E0,-2.604583740E0,2.966526010E0
4.454286417E0,-3.508703613E-1,-1.400637360E0,-2.602488098E0,2.976212245E0
4.464225417E0,-2.921923828E-1,-1.564247131E0,-2.613265686E0,3.059640996E0
4.474164417E0,-5.176235962E-1,-1.598376160E0,-2.584076385E0,3.082238034E0
4.484104417E0,-9.151968384E-1,-1.340163116E0,-3.005001068E0,3.415209196E0
4.494043417E0,-8.189469910E-1,-1.212029572E0,-3.702550507E0,3.981026263E0
4.503983417E0,-4.056564331E-2,-9.714797974E-1,-4.184548187E0,4.296028643E0
4.513922417E0,1.022673340E0,-7.096742249E-1,-4.365222473E0,4.539236225E0
4.523861417E0,1.948198700E0,-3.806584167E-1,-4.261488190E0,4.701133969E0
4.533801417E0,2.525248718E0,-2.673440552E-1,-4.070335693E0,4.797497951E0
4.543740417E0,2.942281494E0,-2.218386841E-1,-4.053420868E0,5.013626784E0
4.553679417E0,3.012635193E0,-6.810836792E-2,-3.839665375E0,4.880946603E0
4.563619417E0,2.887046356E0,1.338217163E-1,-3.692371674E0,4.688982138E0
4.573558417E0,2.798580322E0,1.597178650E-1,-3.384012909E0,4.394212669E0
4.583498417E0,2.448009338E0,1.101708984E-1,-2.437680817E0,3.456468590E0
4.593437417E0,2.109413452E0,2.510279846E-1,-1.780098267E0,2.771532067E0
4.603376417E0,2.043849792E0,4.055067444E-1,-1.678759003E0,2.675815667E0
4.613316417E0,1.981130219E0,4.466711426E-1,-1.755549316E0,2.684463718E0
4.623255417E0,1.856888580E0,4.608915710E-1,-1.847308502E0,2.659512162E0
4.633195417E0,1.673968964E0,4.839436340E-1,-1.885030060E0,2.567043408E0
4.643134417E0,1.544338531E0,5.044509888E-1,-1.900298309E0,2.500117190E0
4.653073417E0,1.491947479E0,5.149291992E-1,-1.941013641E0,2.501718073E0
4.663013417E0,1.542542267E0,4.755610657E-1,-2.007475433E0,2.575956635E0
4.672952417E0,1.608405304E0,3.787124634E-1,-2.122885437E0,2.690173476E0
4.682891417E0,1.724863129E0,2.457888794E-1,-2.307152252E0,2.891109908E0
4.692831417E0,2.013612671E0,1.103205872E-1,-2.645897827E0,3.326797549E0
4.702770417E0,2.223476257E0,-6.271957397E-2,-3.023113403E0,3.753264587E0
4.712710417E0,2.133064270E0,-9.654922485E-2,-3.361260223E0,3.982129483E0
4.722649417E0,1.671424255E0,3.397933960E-2,-3.443439331E0,3.827804601E0
4.732588417E0,1.290616150E0,1.103205872E-1,-3.273991699E0,3.520920664E0
4.742528417E0,9.279203796E-1,7.918533325E-2,-3.092419281E0,3.229607338E0
4.752467417E0,4.243675232E-1,1.047821045E-2,-3.676055603E0,3.700484074E0
4.762407417E0,-9.514215088E-1,-3.656895447E-1,-7.500752106E0,7.569690475E0
4.772346292E0,-9.237590332E0,-1.471140747E0,-1.746687744E1,1.981386226E1
4.782285292E0,-4.373410446E1,-3.840713196E0,-2.539933182E1,5.072030193E1
4.792225292E0,-7.947243622E1,-9.774224396E0,-3.136966644E1,8.599685781E1
4.802164292E0,-7.845051132E1,-9.133406982E0,-1.614347946E1,8.061335980E1
4.812103292E0,-7.860469070E1,-5.817502441E0,2.087888214E1,8.153814110E1
4.822043292E0,-6.948251038E1,-2.002984772E0,4.992687653E1,8.558343412E1
4.831982292E0,-8.602311401E0,3.072211304E0,7.605130051E1,7.659790175E1
4.841922292E0,-2.912104248E1,1.156644745E0,2.913511322E1,4.120955914E1
4.851861292E0,-3.014416489E1,-9.125024414E-1,-4.389621735E0,3.047576277E1
4.861800292E0,-1.848311417E1,-2.085163879E0,-8.675060120E0,2.052389061E1
4.871740292E0,-1.494177841E1,-1.647474060E0,-8.103997650E0,1.707763716E1
4.881679292E0,-1.224708206E1,-5.107379150E-1,-5.518873444E0,1.344283587E1
4.891618292E0,-8.918903046E0,-1.983375549E-1,-3.492387543E0,9.580341334E0
4.901558292E0,-6.039640503E0,-7.206015015E-1,-2.408641205E0,6.542023875E0
4.911497292E0,-4.088148651E0,-1.427431641E0,-1.931583252E0,4.741469639E0
4.921437292E0,-2.845283203E0,-1.450633392E0,-2.101030884E0,3.822866009E0
4.931376292E0,-1.971699829E0,-1.184636536E0,-2.293680267E0,3.248373917E0
4.941315292E0,-1.317111053E0,-1.009051666E0,-2.241289215E0,2.788609714E0
4.951255292E0,-6.890171814E-1,-9.380992126E-1,-2.236948242E0,2.521648716E0
4.961194292E0,-7.484436035E-3,-8.999285889E-1,-2.440973969E0,2.601592089E0
4.971134292E0,6.770420837E-1,-1.046773224E0,-3.287313995E0,3.515757880E0
4.981073292E0,1.038690033E0,-9.635462952E-1,-3.822900238E0,4.076992112E0
4.991012292E0,1.421144714E0,-6.505471802E-1,-4.355343018E0,4.627296914E0
5.000952292E0,1.852098541E0,-3.842509460E-1,-4.986730042E0,5.333422382E0
5.010891292E0,2.550695801E0,-7.858657837E-2,-5.090314636E0,5.694166139E0
5.020830292E0,2.976111145E0,-2.125579834E-2,-4.909640350E0,5.741276663E0
5.030770292E0,2.685864716E0,1.122665405E-2,-5.264851685E0,5.910385653E0
5.040709292E0,2.103575592E0,7.544311523E-2,-5.599555664E0,5.982118819E0
5.050649292E0,2.165097656E0,3.562591553E-2,-6.126459961E0,6.497878786E0
5.060588292E0,2.631228333E0,-2.778222656E-1,-6.478078766E0,6.997574740E0
5.070527292E0,2.961142273E0,-5.583389282E-1,-6.072422333E0,6.778968868E0
5.080467292E0,2.862497406E0,-5.933660889E-1,-5.591921539E0,6.309957307E0
5.090406292E0,2.616858215E0,-3.613485718E-1,-5.354365540E0,5.970573678E0
5.100345292E0,2.580932922E0,-3.233276367E-2,-5.185366974E0,5.792261287E0
5.110285292E0,2.687810669E0,3.046165466E-1,-4.835544434E0,5.540722643E0
5.120224292E0,2.572849731E0,6.316864014E-1,-4.404590607E0,5.139941815E0
5.130164292E0,2.474354553E0,9.142987061E-1,-3.650009766E0,4.503436895E0
5.140103292E0,2.476450195E0,1.162931671E0,-2.906805267E0,3.991833226E0
5.150042292E0,2.446362762E0,1.359922028E0,-2.326462097E0,3.639574780E0
5.159982292E0,2.356399841E0,1.471889191E0,-1.866019592E0,3.346805510E0
5.169921292E0,2.345921631E0,1.510359192E0,-1.535955963E0,3.184916625E0
5.179860292E0,2.540067902E0,1.523232422E0,-1.381776581E0,3.268254653E0
5.189800292E0,2.977308655E0,1.551673279E0,-1.488205261E0,3.672439474E0
5.199739292E0,3.320544891E0,1.536105652E0,-1.466650085E0,3.941662266E0
5.209679292E0,3.905528412E0,1.685644684E0,-8.396040344E-1,4.335837302E0
5.219618292E0,4.863685913E0,1.818867645E0,7.738906860E-2,5.193236875E0
5.229557292E0,4.533472595E0,1.362466736E0,7.915539551E-1,4.799504875E0
5.239497292E0,3.440445557E0,9.731263733E-1,1.226549377E0,3.779955548E0
5.249436292E0,2.620600433E0,6.566844177E-1,1.127605133E0,2.927503099E0
5.259376292E0,2.044747925E0,4.673281860E-1,4.173321533E-1,2.138587346E0
5.269315292E0,1.483115845E0,2.956352234E-1,-2.023791504E-1,1.525775250E0
5.279254292E0,1.059197388E0,7.005432129E-2,-4.183799744E-1,1.140985765E0
5.289194292E0,8.391549683E-1,-2.784210205E-2,-5.703140259E-1,1.014994745E0
5.299133292E0,6.962022400E-1,-1.945953369E-3,-5.340893555E-1,8.774695353E-1
5.309072292E0,5.197192383E-1,-8.532257080E-3,-1.029858398E-1,5.298933565E-1
5.319012292E0,1.007405090E0,-1.803749084E-1,-1.616638184E-1,1.036115492E0
5.328951292E0,5.212161255E-1,-8.494834900E-1,-4.014651489E0,4.136510006E0
5.338891292E0,-9.898915100E0,-3.214116211E0,-1.279524216E1,1.649355283E1
5.348830292E0,-5.276287903E1,-1.101319794E1,-1.403152130E1,5.569645879E1
5.358769292E0,-8.057369614E1,-2.545022598E1,-9.987530823E0,8.508575253E1
5.368709292E0,-7.825352097E1,-1.797971100E1,-6.522536316E0,8.055698003E1
5.378648292E0,-7.860214600E1,-2.908451843E0,9.899962921E0,7.927651426E1
5.388588292E0,-7.120722382E1,2.670596466E0,2.048400330E1,7.414307250E1
5.398527292E0,-2.619537643E1,-9.418414307E-1,6.099051956E1,6.638469920E1
5.408466292E0,-7.725285187E0,3.652404785E-1,4.793886063E1,4.855870457E1
5.418406292E0,-1.082294357E1,4.920118561E0,4.728217621E0,1.279451899E1
5.428345292E0,-1.106499023E0,2.031725006E0,1.497336273E0,2.755768950E0
5.438284292E0,-8.563691711E-1,-1.989363098E-1,-2.240540771E0,2.406858276E0
5.448224292E0,-1.624272308E0,5.694158936E-1,-1.746268616E0,2.451927623E0
5.458163292E0,-1.585951996E0,1.020128632E0,-1.239871674E0,2.256809235E0
5.468103292E0,-1.596430206E0,1.118773499E0,-1.431024170E0,2.418279082E0
5.478042292E0,-1.439406738E0,7.595205688E-1,-1.703607330E0,2.356064767E0
5.487981292E0,-1.371747437E0,2.637515259E-1,-2.091899872E0,2.515412684E0
5.497921292E0,-1.401385803E0,8.756790161E-2,-2.241738281E0,2.645173119E0
5.507860292E0,-1.135538635E0,-1.466949463E-2,-2.198178864E0,2.474197547E0
5.517799292E0,-8.138575745E-1,-1.514849854E-1,-2.157613220E0,2.310975262E0
5.527739292E0,-5.384303284E-1,-2.227368164E-1,-2.259551239E0,2.333471815E0
5.537678292E0,-2.974314880E-1,-2.761756897E-1,-2.259700928E0,2.295862972E0
5.547618292E0,-2.439926147E-1,-3.513194275E-1,-2.197131042E0,2.238379448E0
5.557557292E0,-5.183720398E-1,-5.337899780E-1,-2.195634155E0,2.318286146E0
5.567496292E0,-1.134939880E0,-6.090834045E-1,-2.577340393E0,2.881276562E0
5.577436292E0,-1.127006378E0,-6.506968689E-1,-3.322041779E0,3.567844079E0
5.587375292E0,-5.959107971E-1,-7.607180786E-1,-4.107757874E0,4.219890570E0
5.597314292E0,1.475930786E-1,-7.164102173E-1,-4.985831909E0,5.039201042E0
5.607254292E0,1.101259918E0,-3.803590393E-1,-5.837411041E0,5.952546856E0
5.617193292E0,2.468217316E0,-1.877096558E-1,-6.140979767E0,6.621099918E0
5.627133292E0,3.230581970E0,-2.107617188E-1,-5.658383331E0,6.519078332E0
5.637072292E0,3.291954346E0,-3.471281433E-1,-4.788242798E0,5.821059221E0
5.647011292E0,2.841990051E0,-4.887336731E-1,-4.034560089E0,4.959177670E0
5.656951292E0,2.362237701E0,-5.149291992E-1,-3.618425446E0,4.351818211E0
5.666890292E0,1.903890839E0,-2.959346008E-1,-3.547472992E0,4.036947144E0
5.676830292E0,1.638193359E0,-3.652404785E-2,-3.623065796E0,3.976382433E0
5.686769292E0,1.739981689E0,1.782792664E-1,-3.714525604E0,4.105730171E0
5.696708292E0,1.896406403E0,3.137475586E-1,-3.504063263E0,3.996655367E0
5.706648292E0,1.930834808E0,4.049079895E-1,-3.141367493E0,3.709482883E0
5.716587292E0,1.761387177E0,4.920268250E-1,-2.630180511E0,3.203501944E0
5.726526292E0,1.443598022E0,5.825885010E-1,-2.010169830E0,2.542472686E0
5.736466292E0,1.180445251E0,6.825805664E-1,-1.468596039E0,2.004031324E0
5.746405292E0,9.895921326E-1,7.479945374E-1,-1.165326691E0,1.701991396E0
5.756345292E0,7.680528259E-1,7.231462097E-1,-9.855505371E-1,1.443660433E0
5.766284708E0,7.526348877E-1,6.664141846E-1,-9.635462952E-1,1.392475710E0
5.776223708E0,8.352630615E-1,6.387217712E-1,-1.141077118E0,1.551672282E0
5.786163708E0,1.010249176E0,5.791456604E-1,-1.376088409E0,1.802673682E0
5.796102708E0,1.256487122E0,4.902305603E-1,-1.659149780E0,2.138191732E0
5.806041708E0,1.326541443E0,4.061054993E-1,-1.728904724E0,2.216696962E0
5.815981708E0,1.373094635E0,3.689826965E-1,-1.573827209E0,2.120959498E0
5.825920708E0,1.263971558E0,3.926335144E-1,-1.241368561E0,1.814602182E0
5.835860708E0,1.280137939E0,4.237687683E-1,-1.240470428E0,1.832239067E0
5.845799708E0,5.057981873E-1,2.633024597E-1,-3.679797821E0,3.723717497E0
5.855738708E0,-4.782704315E0,-5.095404053E-1,-8.350984039E0,9.637054862E0
5.865678708E0,-2.017953644E1,-1.856289825E0,-1.020951920E1,2.269127112E1
5.875617708E0,-6.048023071E1,-5.053191833E0,-8.668922882E0,6.130695946E1
5.885557708E0,-8.019707932E1,-6.333180084E0,-7.309599609E0,8.077815885E1
5.895496708E0,-7.813541656E1,-3.823049927E0,4.083059235E0,7.833537135E1
5.905435708E0,-7.855544312E1,-2.400857391E0,2.342867981E1,8.200990670E1
5.915375708E0,-4.924309845E1,-1.313219147E0,6.503555786E1,8.158572838E1
5.925314708E0,-2.439327393E1,1.581311646E0,4.156526459E1,4.822036478E1
5.935253708E0,-1.145073807E1,2.755170593E0,2.202115677E1,2.497281948E1
5.945193708E0,-5.973777466E0,-1.105600891E0,1.076231964E1,1.235863644E1
5.955132708E0,-1.436847061E1,-2.313738556E0,-1.811083832E0,1.466582280E1
5.965072708E0,-1.346569794E1,-2.020498352E0,4.245172119E-1,1.362305580E1
5.975011708E0,-1.036609360E1,-1.535656586E0,1.111289062E0,1.053798373E1
5.984950708E0,-7.655230865E0,-1.217717743E0,8.939410400E-1,7.802853753E0
5.994890708E0,-5.129533081E0,-1.073118439E0,6.271957397E-2,5.240956645E0
6.004829708E0,-3.373385010E0,-8.906478882E-1,-1.104553070E0,3.659647192E0
6.014768708E0,-2.194286957E0,-5.502557373E-1,-1.985171814E0,3.009748122E0
6.024708708E0,-1.247206421E0,-3.189866638E-1,-2.458786926E0,2.775411591E0
6.034647708E0,-9.395960999E-1,-1.607656860E-1,-2.740351410E0,2.901415566E0
6.044587708E0,-7.270381165E-1,6.137237549E-3,-3.099454651E0,3.183589361E0
6.054526708E0,-4.784051514E-1,1.122665405E-1,-3.718716888E0,3.751043930E0
6.064465708E0,-9.788145447E-1,2.053729248E-1,-4.736001434E0,4.840450964E0
6.074405708E0,-1.919308777E0,1.999841309E-1,-5.537135468E0,5.863753833E0
6.084344708E0,-2.095342712E0,1.755848694E-1,-6.792125702E0,7.110152086E0
6.094283708E0,-1.179098053E0,2.092648315E-1,-8.441096649E0,8.525618841E0
6.104223708E0,7.685018921E-1,3.514691162E-1,-9.330247650E0,9.368438873E0
6.114162708E0,2.881807251E0,6.764433289E-1,-9.431586914E0,9.885202088E0
6.124102708E0,4.463418274E0,6.168672180E-1,-9.372609558E0,1.039944411E1
6.134041708E0,5.281467133E0,3.442840576E-2,-8.630003815E0,1.011790721E1
6.143980708E0,5.456004181E0,-4.984634399E-1,-8.024512939E0,9.716442525E0
6.153920708E0,5.131479034E0,-8.705895996E-1,-7.764653320E0,9.347718680E0
6.163859708E0,4.597090302E0,-9.247769165E-1,-6.782695313E0,8.245811500E0
6.173798708E0,4.225263519E0,-6.744973755E-1,-5.646557922E0,7.084589959E0
6.183738708E0,4.168980560E0,-3.526666260E-1,-4.826862488E0,6.387751884E0
6.193677708E0,4.130360870E0,-6.706054688E-2,-4.168980560E0,5.868967281E0
6.203617708E0,3.610791321E0,1.818717957E-1,-3.339405670E0,4.921638095E0
6.213556708E0,2.729573822E0,4.116439819E-1,-2.343077545E0,3.620778425E0
6.223495708E0,1.903441772E0,4.718188477E-1,-1.387464752E0,2.402241046E0
6.233435708E0,1.388063507E0,5.089416504E-1,-5.429209900E-1,1.574961937E0
6.243374708E0,1.207987976E0,7.469467163E-1,-8.292755127E-2,1.422688064E0
6.253314708E0,1.061891785E0,9.940827942E-1,4.326004028E-2,1.455227197E0
6.263253708E0,1.322350159E0,9.560618591E-1,2.380050659E-2,1.631940772E0
6.273192708E0,2.292931824E0,9.592053223E-1,-1.329235840E-1,2.489031916E0
6.283132708E0,2.919678497E0,1.020877075E0,-5.697152710E-1,3.145041815E0
6.293071708E0,3.253783722E0,1.100661163E0,-1.017733612E0,3.582505438E0
6.303010708E0,3.160527649E0,1.179696808E0,-1.238225098E0,3.593580522E0
6.312950708E0,2.766696625E0,1.269210663E0,-1.180594940E0,3.264859925E0
6.322889708E0,1.889969788E0,1.018182678E0,-6.150709534E-1,2.233157863E0
6.332829708E0,1.242566071E0,7.149133301E-1,-2.918930054E-2,1.433849199E0
6.342768708E0,9.187893677E-1,5.791456604E-1,3.902384949E-1,1.154066584E0
6.352707708E0,7.505392456E-1,3.350033569E-1,8.325686646E-1,1.169917514E0
6.362647708E0,1.577719116E-1,-1.875599670E-1,1.211879883E0,1.236415613E0
6.372586708E0,-3.989204407E-1,-6.072871399E-1,1.074016571E0,1.296706128E0
6.382525708E0,-1.567240906E-1,-6.291416931E-1,2.347119141E-1,6.895443374E-1
6.392465708E0,-3.921844482E-1,-1.056053925E0,-3.107687531E0,3.305568078E0
6.402404708E0,-2.376757507E0,-1.793719940E0,-5.287604370E0,6.068374366E0
6.412344708E0,-1.402463562E1,-4.788841553E0,-1.067041077E1,1.826146417E1
6.422283708E0,-6.836673065E1,-2.590363312E1,-1.956925552E1,7.568331276E1
6.432222708E0,-8.038014862E1,-3.919913498E1,-1.041414368E1,9.003329864E1
6.442162708E0,-7.816789902E1,-1.124416763E1,9.519903259E0,7.954420344E1
6.452101708E0,-7.855484436E1,8.897198181E0,1.983794678E1,8.150808451E1
6.462041708E0,-5.370487015E1,2.802771606E0,5.676061569E1,7.819102314E1
6.471980708E0,-2.972039612E1,-1.712289276E0,4.716661652E1,5.577565413E1
6.481919708E0,-2.693184494E1,3.414699097E0,3.953578491E0,2.743383358E1
6.491859708E0,-6.057752838E0,2.813998260E0,6.461762695E0,9.293510251E0
6.501798708E0,-1.545236664E0,1.832189941E-1,7.096742249E-1,1.710252336E0
6.511737708E0,-1.695524139E0,1.190025330E-1,-1.848655701E0,2.511272906E0
6.521677708E0,-2.426454163E-1,4.806504822E-1,-1.077309723E0,1.204366191E0
6.531616708E0,6.797364807E-1,4.721182251E-1,-1.195863190E0,1.454312920E0
6.541556708E0,9.949809265E-1,1.698966980E-1,-1.214574280E0,1.579253815E0
6.551495708E0,8.617579651E-1,-9.595046997E-2,-1.236877899E0,1.510529781E0
6.561434708E0,3.597019958E-1,-1.646575928E-1,-1.267414398E0,1.327718685E0
6.571374708E0,-3.594026184E-1,-3.668870544E-1,-2.249971161E0,2.307844574E0
6.581313708E0,-8.626560974E-1,-8.566685486E-1,-3.171454926E0,3.396495678E0
6.591252708E0,-7.515870667E-1,-1.317560120E0,-3.007994843E0,3.368809992E0
6.601192708E0,-8.960366821E-1,-1.754800873E0,-2.490970001E0,3.176025722E0
6.611131708E0,-1.107696533E0,-2.065105591E0,-2.151326294E0,3.181172352E0
6.621071708E0,-1.255289612E0,-2.273023224E0,-2.314337311E0,3.478296102E0
6.631010708E0,-1.500030670E0,-2.605032806E0,-2.794838104E0,4.104559412E0
6.640949708E0,-1.980980530E0,-3.089575195E0,-3.478765869E0,5.056834061E0
6.650889708E0,-2.927761688E0,-3.176244965E0,-4.373605042E0,6.147254805E0
6.660828708E0,-3.718417511E0,-3.084336090E0,-5.488636322E0,7.311968721E0
6.670767708E0,-3.257226562E0,-3.108286285E0,-7.138954468E0,8.440120817E0
6.680707708E0,-1.606908417E0,-2.574346619E0,-8.040379944E0,8.594016803E0
6.690646708E0,6.276448059E-1,-1.625918884E0,-8.217910767E0,8.400690899E0
6.700586708E0,2.687062225E0,-7.243437195E-1,-7.641160126E0,8.132177156E0
6.710525708E0,3.729045410E0,-3.608995056E-1,-5.933361511E0,7.017179415E0
6.720464708E0,4.047732697E0,-5.176235962E-1,-4.556075592E0,6.116363214E0
6.730404708E0,3.997886353E0,-5.439688110E-1,-4.013753357E0,5.691152200E0
6.740343708E0,3.003504181E0,-3.665876770E-1,-4.269272003E0,5.232791542E0
6.750283708E0,2.037712555E0,-1.945953369E-1,-4.542004852E0,4.981962252E0
6.760222708E0,1.955832825E0,2.035766602E-2,-4.139042816E0,4.577922226E0
6.770160792E0,1.951491852E0,2.636018372E-1,-3.796704712E0,4.277005149E0
6.780100792E0,1.870210876E0,5.373825073E-1,-3.688479767E0,4.170293955E0
6.790039792E0,1.674268341E0,7.848179626E-1,-3.586242371E0,4.034878939E0
6.799978792E0,1.577569427E0,9.665400696E-1,-3.481160889E0,3.942259015E0
6.809918792E0,1.517843628E0,1.122964783E0,-3.335962830E0,3.833216297E0
6.819857792E0,1.474433899E0,1.267414398E0,-3.120860138E0,3.676963772E0
6.829797792E0,1.432371368E0,1.398841095E0,-2.894231415E0,3.519235660E0
6.839736792E0,1.347946930E0,1.474134521E0,-2.680924988E0,3.343260729E0
6.849675792E0,1.286724243E0,1.432221680E0,-2.401605835E0,3.078088498E0
6.859615792E0,1.186881866E0,1.261426849E0,-2.067201233E0,2.696888429E0
6.869554792E0,1.031504974E0,1.021924896E0,-1.600771179E0,2.161203686E0
6.879493792E0,7.512876892E-1,7.738906860E-1,-1.023421783E0,1.486853097E0
6.889433792E0,5.069956970E-1,5.665718079E-1,-5.950126648E-1,9.654472132E-1
6.899372792E0,2.781216431E-1,3.483256531E-1,-1.724414062E-1,4.779314255E-1
6.909312792E0,4.273612976E-1,2.748284912E-1,3.079096985E-1,5.941184736E-1
6.919251792E0,6.635700989E-1,2.192939758E-1,-5.074447632E-1,8.636638881E-1
6.929190792E0,-1.828148346E0,-4.221221924E-2,-4.354295197E0,4.722689372E0
6.939130792E0,-1.681004333E1,-1.572330322E0,-1.008033783E1,1.966374813E1
6.949069792E0,-6.073290527E1,-3.714226227E0,-8.150700531E0,6.138986218E1
6.959008792E0,-8.029018570E1,-1.262010635E1,1.395697632E0,8.128793869E1
6.968948792E0,-7.835171677E1,-1.383632721E1,1.596370331E1,8.114970914E1
6.978887792E0,-7.851996689E1,-5.236111450E0,2.855746445E1,8.371577413E1
6.988827792E0,-4.402225525E1,-1.221909027E0,5.173870880E1,6.794369733E1
6.998766792E0,6.747967529E-1,1.549427948E0,6.095713898E1,6.098056141E1
7.008705792E0,-2.638024200E1,2.648292847E0,9.564360809E0,2.818523764E1
7.018645792E0,-1.058838135E1,6.147715759E-1,4.270619202E0,1.143371996E1
7.028584792E0,-3.078947296E0,-6.391708374E-1,1.151106262E-1,3.146697677E0
7.038523792E0,-2.950514374E0,-5.968089294E-1,-2.115700378E0,3.679389088E0
7.048463792E0,-3.052153015E0,1.594184875E-1,-1.347348175E0,3.340119667E0
7.058402792E0,-2.880010986E0,4.245172119E-1,-8.851094055E-1,3.042712080E0
7.068342792E0,-1.724863129E0,-6.092330933E-2,-1.021475830E0,2.005561601E0
7.078281792E0,-8.050259399E-1,-4.324507141E-1,-1.057550812E0,1.397674534E0
7.088220792E0,-4.168830872E-1,-3.610491943E-1,-1.403930511E0,1.508366305E0
7.098160792E0,-2.225871277E-1,-5.096900940E-1,-2.276615753E0,2.343567432E0
7.108099792E0,-3.047662354E-1,-7.794291687E-1,-2.887196045E0,3.006042796E0
7.118039792E0,-3.709286499E-1,-8.538244629E-1,-3.208428040E0,3.340750628E0
7.127978792E0,-2.730322266E-1,-9.503736877E-1,-3.506607971E0,3.643357820E0
7.137917792E0,-3.529660034E-1,-1.154249725E0,-3.607198792E0,3.803782400E0
7.147857792E0,-3.890409851E-1,-1.129850464E0,-3.428919525E0,3.631171170E0
7.157796792E0,-6.090834045E-1,-1.070723419E0,-3.287463684E0,3.510676389E0
7.167735792E0,-1.285676422E0,-8.502319336E-1,-3.459605713E0,3.787443715E0
7.177675792E0,-1.292113037E0,-7.220983887E-1,-4.054169312E0,4.315932227E0
7.187614792E0,-4.490661621E-1,-5.659730530E-1,-5.229076080E0,5.278751990E0
7.197554792E0,7.598199463E-1,-3.507206726E-1,-6.345903625E0,6.400845582E0
7.207493792E0,1.767973480E0,-6.735992432E-2,-6.808890839E0,7.035002632E0
7.217432792E0,2.750829620E0,9.385482788E-2,-6.808741150E0,7.344033522E0
7.227372792E0,3.594325562E0,8.532257080E-3,-6.153403931E0,7.126263325E0
7.237311792E0,3.716321869E0,-1.299298096E-1,-4.942422180E0,6.185100403E0
7.247250792E0,2.980003052E0,-2.113604736E-1,-4.311035156E0,5.245008633E0
7.257190792E0,2.475102997E0,-1.790277100E-1,-4.191433868E0,4.870965370E0
7.267129792E0,2.615061951E0,-7.708969116E-2,-4.083807678E0,4.849946080E0
7.277069792E0,2.782413940E0,2.365081787E-2,-4.103267212E0,4.957740262E0
7.287008792E0,2.808310089E0,1.465452576E-1,-3.918850708E0,4.823429479E0
7.296947792E0,2.655627594E0,2.957849121E-1,-3.453019409E0,4.366141279E0
7.306887792E0,2.305505676E0,5.113366699E-1,-2.870430908E0,3.717014287E0
7.316826792E0,1.854343872E0,7.741900635E-1,-2.299817505E0,3.054033727E0
7.326765792E0,1.334924011E0,1.056952057E0,-1.763782196E0,2.451550000E0
7.336705792E0,1.035396881E0,1.232985992E0,-1.364263000E0,2.110335209E0
7.346644792E0,7.340734863E-1,1.184337158E0,-9.711804199E-1,1.698443345E0
7.356584792E0,5.053491211E-1,1.138083344E0,-6.674620056E-1,1.412840033E0
7.366523792E0,4.242178345E-1,1.209335175E0,-5.535488892E-1,1.396018878E0
7.376462792E0,7.949967957E-1,1.041534119E0,-8.153544617E-1,1.543248562E0
7.386402792E0,1.468446350E0,7.792794800E-1,-1.390308838E0,2.167157091E0
7.396341792E0,2.130669250E0,6.375242615E-1,-2.048190765E0,3.023453993E0
7.406280792E0,2.203567657E0,4.155358887E-1,-2.251168671E0,3.177442506E0
7.416220792E0,1.902393951E0,2.177970886E-1,-2.002086639E0,2.770359043E0
7.426159792E0,1.666933594E0,-2.180964661E-1,-2.165846100E0,2.741737224E0
7.436099792E0,6.271957397E-1,-8.279283142E-1,-3.717669067E0,3.860039259E0
7.446038792E0,-2.072440338E0,-1.847607880E0,-6.817572784E0,7.361247347E0
7.455977792E0,-7.475155334E0,-3.780238953E0,-8.857830048E0,1.219136198E1
7.465917792E0,-2.156984528E1,-8.849148102E0,-1.169473068E1,2.608318181E1
7.475856792E0,-6.699842606E1,-2.696118393E1,-2.843037872E0,7.227570406E1
7.485795792E0,-8.052684357E1,-4.466935959E1,9.320966949E0,9.255703456E1
7.495735792E0,-7.837940918E1,-1.904908722E1,2.115430939E1,8.338887404E1
7.505674792E0,-7.773110733E1,9.161099396E0,4.156706085E1,8.862207026E1
7.515614792E0,-5.672558853E1,6.592890015E0,7.270500916E1,9.245148430E1
7.525553792E0,-4.765041046E1,3.326981506E0,3.575180374E1,5.966424301E1
7.535492792E0,-2.965962250E1,1.676363983E0,1.178020294E1,3.195741830E1
7.545432792E0,-1.628553406E1,-9.294172668E-1,3.643872528E0,1.671407320E1
7.555371792E0,-1.190579178E1,-1.509760437E0,-6.436614990E-1,1.201838403E1
7.565311792E0,-8.389753418E0,-1.073717194E0,-8.437953186E-1,8.500165973E0
7.575250792E0,-6.009253693E0,-5.276527405E-1,-1.006506958E0,6.115766805E0
7.585189792E0,-4.380790100E0,-3.652404785E-1,-1.440304871E0,4.625927002E0
7.595129792E0,-3.009192352E0,-4.818479919E-1,-2.003284149E0,3.646993760E0
7.605068792E0,-1.690883789E0,-6.551875305E-1,-2.321372681E0,2.945696829E0
7.615007792E0,-8.032296753E-1,-7.173083496E-1,-2.636168060E0,2.847646611E0
7.624947792E0,-2.188449097E-1,-6.993457031E-1,-3.017125854E0,3.104839115E0
7.634886792E0,5.493576050E-2,-7.494914246E-1,-2.890189819E0,2.986294112E0
7.644826792E0,2.031275940E-1,-8.006849670E-1,-2.589315491E0,2.717887405E0
7.654765792E0,3.088078308E-1,-7.310797119E-1,-2.471959534E0,2.596232609E0
7.664704792E0,4.131408691E-1,-5.498066711E-1,-3.093616791E0,3.169138306E0
7.674644792E0,3.008743286E-1,-1.429527283E-1,-3.582799530E0,3.598251425E0
7.684583792E0,-1.484912109E-1,2.978805542E-1,-4.314178619E0,4.326998917E0
7.694522792E0,-8.834628296E-1,3.303630066E-1,-5.973927155E0,6.047929558E0
7.704462792E0,-1.143023071E0,2.067201233E-1,-8.395291901E0,8.475267609E0
7.714401792E0,-6.170169067E-1,-7.059320068E-1,-1.077504318E1,1.081575728E1
7.724341792E0,2.814746704E0,-6.366261292E-1,-1.224064545E1,1.257622729E1
7.734280792E0,5.373525696E0,-4.159849548E-1,-1.269794449E1,1.379440525E1
7.744219792E0,6.558910675E0,-8.581654358E-1,-1.164383652E1,1.339159012E1
7.754159792E0,6.005810852E0,-1.166673889E0,-9.411828003E0,1.122556895E1
7.764098792E0,4.443509674E0,-8.735833740E-1,-7.870483246E0,9.080332189E0
7.774037792E0,3.718567200E0,-5.334906006E-1,-6.595135345E0,7.590004247E0
7.783977792E0,3.526217194E0,-3.362008667E-1,-5.312602386E0,6.385215958E0
7.793916792E0,3.457510071E0,-1.224453735E-1,-4.197421417E0,5.439459101E0
7.803856792E0,3.116519165E0,1.448986816E-1,-3.099005585E0,4.397445048E0
7.813795792E0,2.766397247E0,3.821553040E-1,-2.029030609E0,3.451950408E0
7.823734792E0,2.539169769E0,4.855902100E-1,-1.239721985E0,2.867070207E0
7.833674792E0,2.478246460E0,4.019142151E-1,-5.667214966E-1,2.573793661E0
7.843613792E0,2.542911987E0,1.957928467E-1,-2.523751831E-1,2.562894740E0
7.853552792E0,2.772085419E0,1.101708984E-1,-2.046244812E-1,2.781809910E0
7.863492792E0,2.725382538E0,2.297721863E-1,-1.510359192E-1,2.739218334E0
7.873431792E0,2.307301941E0,7.259902954E-1,5.548960876E-1,2.481655460E0
7.883371792E0,2.276915131E0,1.106199646E0,8.378077698E-1,2.666447455E0
7.893310792E0,2.212099915E0,1.493743744E0,7.548802185E-1,2.773896276E0
7.903249792E0,1.832489319E0,1.723665619E0,4.483177185E-1,2.555392151E0
7.913189792E0,1.670975189E0,1.625769196E0,2.674937439E-1,2.346664966E0
7.923128792E0,1.792223053E0,1.379980316E0,3.303630066E-1,2.285945944E0
7.933067792E0,1.917362823E0,1.082548828E0,4.532574463E-1,2.248029020E0
7.943007792E0,1.828896790E0,7.038363647E-1,4.626878357E-1,2.013536473E0
7.952946792E0,1.551972656E0,3.495231628E-1,3.320095825E-1,1.625120282E0
7.962886792E0,1.187480621E0,1.016386414E-1,-1.227447510E-2,1.191885608E0
7.972825792E0,8.884025574E-1,-1.484912109E-1,-7.970924377E-1,1.202773918E0
7.982764792E0,6.280938721E-1,-8.135581970E-1,-1.807640991E0,2.079409725E0
7.992704792E0,2.640509033E-1,-1.868264923E0,-2.707719269E0,3.300284888E0
8.002643792E0,-1.771715698E0,-2.991978149E0,-6.910230103E0,7.735773383E0
8.012582792E0,-1.024005569E1,-7.652985535E0,-1.442640015E1,1.927557909E1
8.022522792E0,-4.991864365E1,-2.647334839E1,-2.332374802E1,6.112860525E1
8.032461792E0,-8.098010101E1,-6.524392456E1,-1.410427002E1,1.049451137E2
8.042401792E0,-7.871680756E1,-5.318679749E1,7.920030212E0,9.533046783E1
8.052340792E0,-7.867983444E1,-4.816533966E0,2.348421432E1,8.225097975E1
8.062279792E0,-6.229984680E1,1.581251770E1,5.462829987E1,8.435376562E1
8.072219792E0,-3.989518753E1,4.829407196E0,6.060462204E1,7.271773769E1
8.082158792E0,-4.360372559E1,6.141129456E0,9.735904083E0,4.509751860E1
8.092097792E0,-1.658685745E1,7.516319733E0,9.197623444E0,2.040135239E1
8.102037792E0,-6.493197327E0,3.028951263E0,2.872825928E0,7.719409698E0
8.111976792E0,-3.358715515E0,1.863175507E0,-1.021924896E0,3.974509199E0
8.121916792E0,-1.550625458E0,2.078128510E0,-1.272204437E0,2.888176162E0
8.131855792E0,-5.463638306E-1,1.999541931E0,-2.234253845E0,3.047715803E0
8.141794792E0,2.525248718E-1,1.173260193E0,-2.610122223E0,2.872811569E0
8.151734792E0,7.818241882E-1,2.411485291E-1,-2.014660492E0,2.174455926E0
8.161673792E0,9.363029480E-1,-2.357597351E-1,-1.426533508E0,1.722568928E0
8.171612792E0,7.126679993E-1,-3.688330078E-1,-1.438508606E0,1.647191693E0
8.181552792E0,5.989045715E-1,-4.026626587E-1,-1.434467010E0,1.605776917E0
8.191491792E0,4.408332825E-1,-4.616400146E-1,-1.104403381E0,1.275598806E0
8.201431792E0,-2.383044434E-1,-5.372328186E-1,-8.382568359E-1,1.023759069E0
8.211370792E0,-1.037492523E0,-8.309220886E-1,-2.386936340E0,2.732084798E0
8.221309792E0,-1.299298096E0,-1.065484314E0,-3.500470734E0,3.882876218E0
8.231249792E0,-2.129471741E0,-1.200204163E0,-4.098926239E0,4.772455997E0
8.241188792E0,-2.837798767E0,-1.206491089E0,-4.611011353E0,5.547084665E0
8.251127792E0,-2.654280396E0,-1.130000153E0,-5.086123352E0,5.847286167E0
8.261067792E0,-1.858984222E0,-9.842033386E-1,-5.754782867E0,6.127153042E0
8.271006792E0,-7.447013855E-1,-8.801696777E-1,-6.173611908E0,6.280347348E0
8.280946792E0,3.647914124E-1,-6.309379578E-1,-5.933361511E0,5.977954023E0
8.290885792E0,1.293310547E0,-3.414399719E-1,-5.327870636E0,5.493217540E0
8.300824792E0,1.901645508E0,-5.343887329E-2,-5.008734283E0,5.357847560E0
8.310764792E0,2.357597351E0,-1.640588379E-1,-5.554499359E0,6.036360137E0
8.320703792E0,3.048560486E0,-3.188369751E-1,-5.256469116E0,6.084886656E0
8.330642792E0,3.260669403E0,-1.797761536E-1,-4.238735504E0,5.350809574E0
8.340582792E0,2.424059143E0,-1.020877075E-1,-3.754193115E0,4.469949729E0
8.350521792E0,1.938618622E0,5.538482666E-3,-3.312761078E0,3.838314577E0
8.360461792E0,1.753902740E0,5.179229736E-2,-3.127596130E0,3.586183880E0
8.370400792E0,1.598076782E0,1.984872437E-1,-2.834505615E0,3.260010532E0
8.380339792E0,1.617236938E0,4.104464722E-1,-2.436034241E0,2.952657184E0
8.390279792E0,1.656605072E0,5.965095520E-1,-2.108814697E0,2.747228319E0
8.400218792E0,1.553918610E0,6.752458191E-1,-1.815724182E0,2.483440007E0
8.410157792E0,1.284778290E0,7.926017761E-1,-1.581161957E0,2.186080045E0
8.420097792E0,1.086141357E0,8.214916992E-1,-1.469045105E0,2.003158801E0
8.430036792E0,1.078507233E0,8.265811157E-1,-1.536255341E0,2.050974077E0
8.439976792E0,1.123713226E0,8.494834900E-1,-1.667981415E0,2.183235126E0
8.449915792E0,1.156495056E0,8.324189758E-1,-1.736838226E0,2.246554961E0
8.459854792E0,1.021475830E0,8.009843445E-1,-1.687590637E0,2.129072791E0
8.469794792E0,1.019679565E0,6.683601379E-1,-1.632954254E0,2.037888929E0
8.479733792E0,1.025218048E0,5.071453857E-1,-1.587748260E0,1.956837507E0
8.489672792E0,9.583071899E-1,3.384461975E-1,-1.593885498E0,1.890335811E0
8.499612792E0,9.505233765E-1,8.756790161E-2,-1.947001190E0,2.168404128E0
8.509551792E0,5.089416504E-1,-3.794609070E-1,-3.012485504E0,3.078649232E0
8.519491792E0,-5.742059326E-1,-1.279988251E0,-5.357658691E0,5.538283943E0
8.529430792E0,-3.724255371E0,-3.045267334E0,-8.535550232E0,9.797925748E0
8.539369792E0,-1.505569153E1,-7.711663513E0,-1.318054092E1,2.144458581E1
8.549309792E0,-5.387850906E1,-2.272723846E1,-1.234273315E1,5.976423821E1
8.559248792E0,-8.072952209E1,-4.987493454E1,3.638483734E0,9.496316863E1
8.569187792E0,-7.863343094E1,-3.711681519E1,1.258268417E1,8.785896865E1
8.579127792E0,-7.867085312E1,-3.456013184E0,2.134501282E1,8.158833697E1
8.589066792E0,-7.055383255E1,9.638307037E0,3.405957275E1,7.893538336E1
8.599006792E0,-1.197404984E1,4.994214478E0,7.459078766E1,7.571067066E1
8.608945792E0,-3.072390930E1,1.946252747E0,3.645504135E1,4.771495093E1
8.618884792E0,-3.214295837E1,6.131250000E-1,2.042053528E0,3.221359461E1
8.628824792E0,-1.540790909E1,-1.082848206E0,-1.379381561E0,1.550738264E1
8.638763792E0,-8.826844482E0,-1.019230499E0,-2.058219910E0,9.120761126E0
8.648702792E0,-4.492906952E0,-7.155120850E-2,-1.586850128E0,4.765440775E0
8.658642792E0,-2.067350922E0,8.120613098E-1,-1.604663086E0,2.740132665E0
8.668581792E0,-6.810836792E-1,8.717871094E-1,-1.865720215E0,2.169055016E0
8.678521792E0,-7.259902954E-2,5.049000549E-1,-1.896107025E0,1.963521463E0
8.688460792E0,1.707948303E-1,8.008346558E-2,-2.694097595E0,2.700693631E0
8.698399792E0,2.544708252E-1,-2.263293457E-1,-3.534899139E0,3.551266295E0
8.708339792E0,2.917433167E-1,-4.808001709E-1,-3.796854401E0,3.838279081E0
8.718278792E0,1.683998108E-1,-8.059240723E-1,-4.039200439E0,4.122258155E0
8.728217792E0,1.335223389E-1,-1.115180969E0,-4.255650330E0,4.401365304E0
8.738157792E0,1.857637024E-1,-1.261426849E0,-4.219425659E0,4.407863285E0
8.748096792E0,-3.402424622E-1,-1.315464478E0,-4.164489899E0,4.380546523E0
8.758036792E0,-1.124461670E0,-1.266516266E0,-4.139192505E0,4.472291593E0
8.767975792E0,-1.769919434E0,-1.214125214E0,-4.141437836E0,4.664570954E0
8.777914583E0,-1.916165314E0,-1.228195953E0,-3.849993896E0,4.472427508E0
8.787854583E0,-1.564396820E0,-1.390159149E0,-3.829336853E0,4.363908868E0
8.797793583E0,-7.517367554E-1,-1.722917175E0,-4.733157349E0,5.092772352E0
8.807732583E0,5.150788879E-1,-1.733994141E0,-6.331832886E0,6.585146136E0
8.817672583E0,2.419718170E0,-1.383722534E0,-7.497458954E0,7.998850845E0
8.827611583E0,3.968996429E0,-1.077160034E0,-7.643555145E0,8.679697095E0
8.837551583E0,4.691843262E0,-1.007554779E0,-7.288792877E0,8.726686739E0
8.847490583E0,4.844675446E0,-1.053658905E0,-5.783523102E0,7.617756673E0
8.857429583E0,4.485123138E0,-8.078700256E-1,-4.438569946E0,6.361594667E0
8.867369583E0,3.531605988E0,-5.876779175E-1,-4.470753021E0,5.727585771E0
8.877308583E0,3.156336365E0,-5.159770203E-1,-4.383484497E0,5.426198289E0
8.887247583E0,3.154390411E0,-3.068618774E-1,-3.942202148E0,5.058191461E0
8.897187583E0,2.947969666E0,-3.981719971E-2,-3.357368317E0,4.468112865E0
8.907126583E0,2.519261169E0,2.264790344E-1,-2.624043274E0,3.644663592E0
8.917066583E0,1.877994690E0,4.812492371E-1,-1.777403870E0,2.630138665E0
8.927005583E0,1.360371094E0,7.225474548E-1,-1.165027313E0,1.931313796E0
8.936944583E0,9.135502625E-1,9.978250122E-1,-8.246351624E-1,1.584377476E0
8.946884583E0,5.370831299E-1,1.315614166E0,-6.783892822E-1,1.574646291E0
8.956823583E0,2.507286072E-1,1.470991058E0,-6.804849243E-1,1.640042457E0
8.966762583E0,1.642085266E-1,1.429377594E0,-7.270381165E-1,1.612038824E0
8.976702583E0,2.893482971E-1,1.055904236E0,-8.228388977E-1,1.369569291E0
8.986641583E0,4.622387695E-1,9.000782776E-1,-1.021625519E0,1.437888830E0
8.996581583E0,5.900729370E-1,8.228388977E-1,-1.321751404E0,1.665015524E0
9.006520583E0,7.388635254E-1,6.863227844E-1,-1.389410706E0,1.716805284E0
9.016459583E0,1.023272095E0,6.316864014E-1,-1.189426575E0,1.691404466E0
9.026399583E0,1.204694824E0,5.623805237E-1,-8.593629456E-1,1.583055951E0
9.036338583E0,1.264270935E0,5.155279541E-1,-5.248086548E-1,1.462728339E0
9.046277583E0,1.456620941E0,5.388793945E-3,-1.084494781E0,1.816012813E0
9.056217583E0,-4.079017639E-1,-1.090781708E0,-3.340303802E0,3.537487537E0
9.066156583E0,-4.481231232E0,-2.845133514E0,-6.499484253E0,8.391633549E0
9.076096583E0,-1.570264618E1,-6.316115570E0,-1.040261765E1,1.986657663E1
9.086035583E0,-5.884039078E1,-2.202834183E1,-5.809119873E0,6.309663465E1
9.095974583E0,-8.081155151E1,-4.344670212E1,6.909930725E0,9.201016208E1
9.105914583E0,-7.831219894E1,-1.710043945E1,1.610950012E1,8.176026863E1
9.115853583E0,-7.852819977E1,9.655072174E0,2.802382416E1,8.393588802E1
9.125792583E0,-5.338004562E1,2.670147400E0,6.457556442E1,8.382459352E1
9.135732583E0,-2.450299576E1,6.695576477E-1,5.467769714E1,5.992074493E1
9.145671583E0,-3.220163635E1,1.818717957E0,5.598956909E0,3.273532400E1
9.155611583E0,-1.260094620E1,3.089575195E-1,2.163750458E0,1.278910145E1
9.165550583E0,-4.281546478E0,-1.996847534E-1,2.121089172E-1,4.291445495E0
9.175489583E0,-1.076112213E0,1.266366577E-1,-7.683522034E-1,1.328314513E0
9.185429583E0,5.611830139E-1,2.398013306E-1,-8.198451233E-1,1.022045537E0
9.195368583E0,1.078656921E0,3.113525391E-1,-1.096619568E0,1.569399769E0
9.205307583E0,1.328337708E0,-1.197509766E-3,-1.686093750E0,2.146484249E0
9.215247583E0,1.351988525E0,-2.604583740E-1,-2.056573334E0,2.474915234E0
9.225186583E0,1.233435059E0,-4.037104797E-1,-2.362537079E0,2.695538099E0
9.235125583E0,1.141825562E0,-3.727249146E-1,-2.272723846E0,2.570595876E0
9.245065583E0,1.178199921E0,-2.966830444E-1,-2.063608704E0,2.394714339E0
9.255004583E0,1.429377594E0,-4.049079895E-1,-2.747536469E0,3.123464012E0
9.264944583E0,1.596879272E0,-6.590794373E-1,-3.634891205E0,4.024530182E0
9.274883583E0,1.216969299E0,-9.172924805E-1,-4.234544220E0,4.500422705E0
9.284822583E0,-7.065307617E-2,-1.074615326E0,-4.748126221E0,4.868725969E0
9.294762583E0,-1.771715698E0,-9.295669556E-1,-5.155429230E0,5.530056219E0
9.304701583E0,-2.183808746E0,-7.170089722E-1,-5.641318817E0,6.091600816E0
9.314640583E0,-1.360969849E0,-8.931925964E-1,-6.172863464E0,6.383907525E0
9.324580583E0,-1.649569702E-1,-1.189426575E0,-6.610702972E0,6.718879383E0
9.334519583E0,7.294331360E-1,-1.496438141E0,-7.485483856E0,7.668368038E0
9.344459583E0,2.021845551E0,-1.762434998E0,-9.438771973E0,9.812464161E0
9.354398583E0,4.251009979E0,-1.145268402E0,-9.817634125E0,1.075958481E1
9.364337583E0,4.992268524E0,-9.895921326E-1,-9.923014984E0,1.115205201E1
9.374277583E0,4.875361633E0,-9.277706909E-1,-9.061406708E0,1.033145687E1
9.384216583E0,4.502337341E0,-6.209088135E-1,-6.543492737E0,7.967048794E0
9.394155583E0,3.817361755E0,-3.146456909E-1,-4.993016968E0,6.292969976E0
9.404095583E0,3.514541473E0,-2.255809021E-1,-4.016148376E0,5.341566839E0
9.414034583E0,3.375929718E0,-8.217910767E-2,-3.231031036E0,4.673672691E0
9.423974583E0,2.965782623E0,5.209167480E-2,-2.425256653E0,3.831507529E0
9.433913583E0,2.405348053E0,4.409829712E-1,-1.659000092E0,2.955071326E0
9.443852583E0,1.818717957E0,8.777746582E-1,-1.243763580E0,2.371744337E0
9.453792583E0,1.350940704E0,1.036145325E0,-1.011746063E0,1.980471665E0
9.463731583E0,8.650511169E-1,9.827064514E-1,-5.779481506E-1,1.431100789E0
9.473670583E0,4.535568237E-1,9.526190186E-1,-2.029779053E-1,1.074428600E0
9.483610583E0,4.860392761E-1,1.075513458E0,-8.382568359E-2,1.183211782E0
9.493549583E0,7.788304138E-1,9.852511597E-1,-2.308200073E-1,1.276939520E0
9.503489583E0,1.125210114E0,7.135661316E-1,-6.370751953E-1,1.476868047E0
9.513428583E0,1.827998657E0,6.367758179E-1,-1.116528168E0,2.234658292E0
9.523367583E0,2.470013580E0,5.186714172E-1,-1.486109619E0,2.928909170E0
9.533307583E0,2.476749573E0,3.306623840E-1,-1.372495880E0,2.850854433E0
9.543246583E0,1.844913483E0,2.267784119E-1,-7.421566772E-1,2.001482136E0
9.553185583E0,1.059496765E0,1.666035461E-1,-8.487350464E-2,1.075868788E0
9.563125583E0,7.596702576E-1,-1.285826111E-1,2.053729248E-1,7.973772171E-1
9.573064583E0,3.710783386E-1,-7.286846924E-1,-1.567240906E-1,8.326121275E-1
9.583004583E0,-3.237767029E-1,-1.148262177E0,-1.752854919E0,2.120339064E0
9.592943583E0,-3.088078308E0,-2.504591675E0,-5.851781158E0,7.074782670E0
9.602882583E0,-1.360969849E1,-6.090534668E0,-9.931696930E0,1.791527587E1
9.612822583E0,-5.922089951E1,-2.263338364E1,-1.045620621E1,6.425509506E1
9.622761583E0,-8.084777618E1,-4.196807693E1,9.888736267E0,9.162679466E1
9.632700583E0,-7.831249832E1,-1.473281296E1,2.241723312E1,8.277943894E1
9.642640583E0,-7.815637299E1,7.697592773E0,3.889781158E1,8.763966750E1
9.652579583E0,-3.737113632E1,3.958667908E0,7.434440002E1,8.330283727E1
9.662519583E0,-2.792248489E1,1.708996124E0,5.266618011E1,5.963482505E1
9.672458583E0,-3.595508102E1,1.325792999E0,1.004635849E1,3.735578800E1
9.682397583E0,-1.761327301E1,4.067042542E-1,-1.034648438E0,1.764832264E1
9.692337583E0,-5.394931183E0,1.645079041E-1,-1.551523590E0,5.616010218E0
9.702276583E0,-1.398092651E0,2.160008240E-1,-2.216291199E0,2.629309053E0
9.712215583E0,5.477110291E-1,4.755610657E-1,-1.754651184E0,1.898669660E0
9.722155583E0,1.155596924E0,3.459306335E-1,-1.102756805E0,1.634363737E0
9.732094583E0,1.393302612E0,-7.559280396E-2,-1.349743195E0,1.941343126E0
9.742034583E0,1.653910675E0,-5.207670593E-1,-1.869911499E0,2.550134872E0
9.751973583E0,1.742825775E0,-6.747967529E-1,-2.187401276E0,2.877067375E0
9.761912583E0,1.733395386E0,-7.587721252E-1,-2.288441162E0,2.969403586E0
9.771853792E0,1.652862854E0,-8.108638000E-1,-2.274520111E0,2.926242890E0
9.781792792E0,1.670675812E0,-9.005273438E-1,-2.092498627E0,2.825005782E0
9.791731792E0,1.803898773E0,-9.289682007E-1,-2.094145203E0,2.915900690E0
9.801671792E0,2.269730072E0,-1.004710693E0,-2.897973633E0,3.815674168E0
9.811610792E0,2.475252686E0,-9.452842712E-1,-3.971690826E0,4.774386477E0
9.821549792E0,1.447040863E0,-9.632469177E-1,-5.278922424E0,5.557768783E0
9.831489792E0,-4.730163574E-1,-1.444945221E0,-7.131919098E0,7.292179454E0
9.841428792E0,-3.480262756E-1,-1.760339355E0,-7.635921021E0,7.843928019E0
9.851368792E0,3.692820740E-1,-2.185904388E0,-6.968459015E0,7.312589711E0
9.861307792E0,8.135581970E-1,-1.997446289E0,-7.399562531E0,7.707476517E0
9.871246792E0,1.719624023E0,-1.443897400E0,-7.985743561E0,8.295423238E0
9.881186792E0,2.585573273E0,-1.252894592E0,-7.716902618E0,8.234410728E0
9.891125792E0,1.848506012E0,-1.870061188E0,-8.111931152E0,8.527457437E0
9.901064792E0,2.652035065E0,-1.769769745E0,-8.427624664E0,9.010562270E0
9.911004792E0,3.366050262E0,-8.919950867E-1,-6.662644958E0,7.517764791E0
9.920943792E0,2.881358185E0,-5.334906006E-1,-5.557642822E0,6.282852135E0
9.930883792E0,2.978356476E0,-1.395098877E-1,-4.906496887E0,5.741409410E0
9.940822792E0,2.876568146E0,5.837860107E-3,-3.988455963E0,4.917566405E0
9.950761792E0,2.605032806E0,-6.286926270E-2,-2.997516632E0,3.971807451E0
9.960701792E0,2.107617188E0,2.844085693E-3,-2.016606445E0,2.916977863E0
9.970640792E0,1.540147247E0,1.148112488E-1,-9.981243896E-1,1.838882123E0
9.980579792E0,2.075284424E0,1.697470093E-1,-4.584965515E-1,2.132097224E0
9.990519792E0,2.166744232E0,2.670446777E-1,-5.159770203E-1,2.243284581E0
1.000045879E1,9.089099121E-1,9.395960999E-1,1.676513672E-1,1.317977633E0
1.001039879E1,3.415896606E-1,1.570084991E0,5.168751526E-1,1.687901152E0
1.002033779E1,6.156697083E-1,2.106419678E0,2.065704346E-1,2.204251436E0
1.003027679E1,1.220112762E0,1.979932709E0,-5.858816528E-1,2.398346513E0
1.004021679E1,1.767524414E0,1.325493622E0,-1.003513184E0,2.426543757E0
1.005015579E1,1.929337921E0,7.719447327E-1,-1.106648712E0,2.354339580E0
1.006009479E1,1.736089783E0,5.390290833E-1,-1.057999878E0,2.103312584E0
1.007003479E1,1.380878448E0,4.511618042E-1,-9.271719360E-1,1.723374615E0
1.007997379E1,9.696835327E-1,3.773652649E-1,-8.671467590E-1,1.354486692E0
1.008991279E1,6.059399414E-1,-2.887495422E-1,-1.601819000E0,1.736768154E0
1.009985279E1,2.694396973E-2,-1.457369385E0,-3.724704437E0,3.999759324E0
1.010979179E1,-1.907333679E0,-2.315534821E0,-6.722221069E0,7.361241701E0
1.011973179E1,-7.485034790E0,-4.532724152E0,-9.478888550E0,1.290041326E1
1.012967079E1,-2.560859665E1,-1.089045319E1,-1.483145782E1,3.153370156E1
1.013960979E1,-7.410998749E1,-3.505754745E1,-6.391558685E0,8.223243826E1
1.014954979E1,-7.991581421E1,-4.065425903E1,7.360344086E0,8.996377495E1
1.015948879E1,-7.840964630E1,-1.426892761E1,1.874746445E1,8.187272044E1
1.016942779E1,-7.814065567E1,3.079845428E0,2.155188263E1,8.111677485E1
1.017936779E1,-4.282729019E1,2.352657623E0,5.273234253E1,6.797361055E1
1.018930679E1,-1.560849197E1,4.991819458E0,5.194722519E1,5.447070303E1
1.019924679E1,-2.897300034E1,4.857099609E0,6.317762146E0,3.004896477E1
1.020918579E1,-8.403225403E0,1.582209778E0,4.233646088E0,9.541558790E0
1.021912479E1,-3.873944092E0,2.650987244E-1,-8.572673035E-1,3.976509448E0
1.022906479E1,-3.459456024E0,2.064207458E-1,-1.649270325E0,3.838038316E0
1.023900379E1,-2.487826538E0,6.432124329E-1,-1.103654938E0,2.796615336E0
1.024894279E1,-1.251547394E0,7.433541870E-1,-1.035995636E0,1.786682200E0
1.025888279E1,-1.688488770E-1,2.478845215E-1,-1.220262451E0,1.256581525E0
1.026882179E1,4.249662781E-1,-2.395019531E-1,-1.348545685E0,1.434061710E0
1.027876179E1,5.348377991E-1,-4.516108704E-1,-1.582808533E0,1.730689660E0
1.028870079E1,3.115022278E-1,-5.484594727E-1,-1.389560394E0,1.526014260E0
1.029863979E1,-3.814068604E-1,-6.960525513E-1,-1.422491913E0,1.628939406E0
1.030857979E1,-1.171164551E0,-9.437873840E-1,-2.677482147E0,3.071037558E0
1.031851879E1,-1.369502106E0,-1.158590698E0,-3.346590729E0,3.797043314E0
1.032845779E1,-1.475182343E0,-1.259780273E0,-3.608695679E0,4.097059163E0
1.033839779E1,-1.630409546E0,-1.393901367E0,-3.890409851E0,4.442576405E0
1.034833679E1,-2.266885986E0,-1.488504639E0,-4.494104462E0,5.248942088E0
1.035827679E1,-2.606679382E0,-1.414408722E0,-5.299130402E0,6.072570498E0
1.036821579E1,-2.308649139E0,-1.419647827E0,-5.890400848E0,6.483986656E0
1.037815479E1,-1.754501495E0,-1.414857788E0,-6.126759338E0,6.528191024E0
1.038809479E1,-6.063890076E-1,-1.140777740E0,-5.989045715E0,6.126805861E0
1.039803379E1,9.086105347E-1,-8.551716614E-1,-5.561684418E0,5.699932038E0
1.040797279E1,2.031575317E0,-7.949967957E-1,-5.876629486E0,6.268500003E0
1.041791279E1,3.234174500E0,-1.078806610E0,-7.219936066E0,7.984433930E0
1.042785179E1,4.583618317E0,-1.023721161E0,-7.447013855E0,8.804293114E0
1.043779079E1,4.444258118E0,-6.873706055E-1,-6.789880371E0,8.144101179E0
1.044773079E1,3.905528412E0,-3.222798157E-1,-5.238207092E0,6.541852184E0
1.045766979E1,3.223396912E0,-4.206253052E-2,-3.679199066E0,4.891683010E0
1.046760979E1,2.850522308E0,1.190025330E-1,-2.985092468E0,4.129214947E0
1.047754879E1,2.761756897E0,2.935395813E-1,-2.558479614E0,3.776146790E0
1.048748779E1,2.614762573E0,6.128256226E-1,-2.253414001E0,3.505768563E0
1.049742779E1,2.262545013E0,9.113049316E-1,-2.161804504E0,3.259292152E0
1.050736679E1,1.932182007E0,1.041085052E0,-2.283202057E0,3.167048630E0
1.051730579E1,1.687291260E0,1.094673615E0,-2.329306183E0,3.077487516E0
1.052724579E1,1.380728760E0,1.032552795E0,-2.172282715E0,2.773335424E0
1.053718479E1,1.141975250E0,9.722282410E-1,-1.943558350E0,2.454944864E0
1.054712479E1,8.797206116E-1,9.455836487E-1,-1.606010284E0,2.060899276E0
1.055706379E1,7.053332520E-1,9.976753235E-1,-1.392105103E0,1.852243954E0
1.056700279E1,6.500981140E-1,8.560697937E-1,-1.412612457E0,1.775093520E0
1.057694279E1,8.044271851E-1,5.270539856E-1,-1.419498138E0,1.714603151E0
1.058688179E1,1.283880157E0,4.968168640E-1,-1.340911560E0,1.921774978E0
1.059682079E1,1.681154022E0,3.926335144E-1,-1.374890900E0,2.206980949E0
1.060676079E1,1.793121185E0,3.129991150E-1,-1.428928528E0,2.314106473E0
1.061669979E1,2.216740265E0,-1.523831177E-1,-1.749112701E0,2.827817756E0
1.062663879E1,1.038839722E0,-1.391805725E0,-2.459086304E0,3.010550879E0
1.063657879E1,-4.927752686E-1,-1.799258423E0,-3.548221436E0,4.008744653E0
1.064651779E1,-3.943848724E0,-2.849324799E0,-5.769751740E0,7.547359121E0
1.065645779E1,-1.611788269E1,-7.090754700E0,-9.283993835E0,1.990621727E1
1.066639679E1,-6.453739380E1,-2.588716736E1,-2.013013916E0,6.956488236E1
1.067633579E1,-8.074419159E1,-4.227029846E1,1.549053726E1,9.244652158E1
1.068627579E1,-7.829693069E1,-1.192899353E1,3.148582489E1,8.522949848E1
1.069621479E1,-6.931366150E1,9.397607574E0,6.363102859E1,9.456006820E1
1.070615379E1,-4.451158768E1,7.765850830E-1,7.227929443E1,8.488922738E1
1.071609379E1,-4.350388321E1,1.554217987E0,2.698528381E1,5.121727238E1
1.072603279E1,-3.158791260E1,1.660047913E0,1.856738892E0,3.168595052E1
1.073597279E1,-1.267459305E1,7.626640320E-1,-7.405101013E-1,1.271909276E1
1.074591179E1,-4.354893951E0,1.312770081E-1,-1.559606781E0,4.627602867E0
1.075585079E1,-1.080004120E0,-7.484436035E-2,-1.955533447E0,2.235200582E0
1.076579079E1,1.054706726E0,-3.742218018E-3,-1.162332916E0,1.569534355E0
1.077572867E1,1.540895691E0,6.616241455E-2,-9.550140381E-1,1.814053144E0
1.078566767E1,1.663790131E0,-2.279759216E-1,-1.401086426E0,2.187055965E0
1.079560767E1,1.830992432E0,-5.915698242E-1,-1.734443207E0,2.590517589E0
1.080554667E1,1.583257599E0,-6.749464417E-1,-1.738484802E0,2.446341499E0
1.081548667E1,1.477427673E0,-7.080276489E-1,-1.604962463E0,2.293469030E0
1.082542567E1,1.410367126E0,-7.075785828E-1,-1.487307129E0,2.168383125E0
1.083536467E1,1.284029846E0,-6.512956238E-1,-1.062789917E0,1.789536544E0
1.084530467E1,1.262774048E0,-6.408174133E-1,-6.694079590E-1,1.566318061E0
1.085524367E1,1.363065491E0,-5.516029358E-1,-9.638456726E-1,1.758184237E0
1.086518267E1,1.062490540E0,-3.194357300E-1,-2.201921082E0,2.465640238E0
1.087512267E1,2.558180237E-1,-3.460803223E-1,-4.182302856E0,4.204387189E0
1.088506167E1,-8.177494812E-1,-5.462141418E-1,-6.225404205E0,6.302596419E0
1.089500067E1,-1.577419739E0,-5.766009521E-1,-7.268135834E0,7.459659522E0
1.090494067E1,-1.806593170E0,-8.225395203E-1,-8.437653809E0,8.668007380E0
1.091487967E1,-5.381309509E-1,-9.614506531E-1,-8.407117310E0,8.479009007E0
1.092481967E1,9.699829102E-1,-9.963281250E-1,-7.638615417E0,7.764147221E0
1.093475867E1,1.910626831E0,-1.345102844E0,-7.961493988E0,8.297299746E0
1.094469767E1,3.764371948E0,-1.390608215E0,-8.236322479E0,9.161948229E0
1.095463767E1,4.583468628E0,-1.122216339E0,-8.019124146E0,9.304509994E0
1.096457667E1,4.812043304E0,-6.761439514E-1,-7.681276703E0,9.089276274E0
1.097451567E1,4.685406647E0,-3.129991150E-1,-5.944588165E0,7.575561520E0
1.098445567E1,4.322561188E0,1.109193420E-1,-4.388274536E0,6.160664877E0
1.099439467E1,4.066144409E0,2.173480225E-1,-3.733985138E0,5.524800044E0
1.100433467E1,3.713328094E0,2.315684509E-1,-3.380121002E0,5.026693493E0
1.101427367E1,3.304378510E0,3.209326172E-1,-2.990331573E0,4.468108996E0
1.102421267E1,2.859653320E0,4.330494690E-1,-2.547402649E0,3.854141825E0
1.103415267E1,2.215243378E0,4.701722717E-1,-2.010618896E0,3.028358224E0
1.104409167E1,1.781894531E0,2.793191528E-1,-1.569635925E0,2.391009044E0
1.105403067E1,1.925895081E0,6.286926270E-2,-1.128652954E0,2.233132754E0
1.106397067E1,2.815495148E0,-9.131011963E-3,-1.168919220E0,3.048519058E0
1.107390967E1,2.819536743E0,-3.038681030E-2,-1.310524750E0,3.109370664E0
1.108384867E1,2.689157867E0,9.520202637E-2,-1.069226532E0,2.895492849E0
1.109378867E1,2.537373505E0,2.877017212E-1,-8.520281982E-1,2.692023149E0
1.110372767E1,2.062560883E0,6.321354675E-1,-5.508544922E-1,2.226475537E0
1.111366767E1,1.607058105E0,1.056952057E0,-2.905458069E-1,1.945302103E0
1.112360667E1,1.358275452E0,1.357976074E0,-5.107379150E-1,1.987426587E0
1.113354567E1,1.213077393E0,1.357826385E0,-9.586065674E-1,2.057711303E0
1.114348567E1,1.050365753E0,1.169817352E0,-1.372645569E0,2.087078511E0
1.115342467E1,7.512876892E-1,8.292755127E-1,-1.830543365E0,2.145465003E0
1.116336367E1,3.986210632E-1,-2.948867798E-2,-3.464844818E0,3.487824243E0
1.117330367E1,-1.389710083E0,-1.144070892E0,-7.453899536E0,7.668168661E0
1.118324267E1,-7.367828522E0,-3.174448700E0,-1.187360870E1,1.432985015E1
1.119318267E1,-2.022384430E1,-7.210805054E0,-1.496872238E1,2.617369362E1
1.120312167E1,-6.476072937E1,-2.290267365E1,-1.817894669E1,7.105602459E1
1.121306067E1,-8.047714691E1,-3.877551590E1,-6.878047028E0,8.959586675E1
1.122300067E1,-7.832641937E1,-2.122615997E1,1.030277527E1,8.180296460E1
1.123293967E1,-7.857834549E1,-1.112037506E0,2.352058868E1,8.203054979E1
1.124287867E1,-4.796550522E1,2.706072693E0,5.105313446E1,7.010303174E1
1.125281867E1,-3.148402863E0,3.553909607E0,6.186170792E1,6.204364287E1
1.126275767E1,-3.066612946E1,2.461780701E0,1.120734421E1,3.274257815E1
1.127269767E1,-1.638702301E1,3.763174438E-1,1.275347900E0,1.644088350E1
1.128263667E1,-6.436764679E0,-3.498225403E-1,-9.027726746E-1,6.509171517E0
1.129257567E1,-4.685107269E0,-7.890092468E-1,-1.709594879E0,5.049304939E0
1.130251567E1,-3.292253723E0,-8.467890930E-1,-1.232985992E0,3.616108517E0
1.131245467E1,-2.086361389E0,-6.274951172E-1,-7.978408813E-1,2.320173278E0
1.132239367E1,-7.875123596E-1,-8.690927124E-1,-2.695893860E-1,1.203401968E0
1.133233367E1,-3.128494263E-2,-1.066232758E0,-3.212319946E-1,1.114011237E0
1.134227267E1,3.465293884E-1,-1.151255951E0,-7.222480774E-1,1.402538829E0
1.135221167E1,3.543132019E-1,-1.193318481E0,-9.083111572E-1,1.540965931E0
1.136215167E1,1.824705505E-1,-1.156045990E0,-7.387138367E-1,1.383992762E0
1.137209067E1,-2.303709412E-1,-1.192719727E0,-6.336323547E-1,1.370087982E0
1.138203067E1,-8.554710388E-1,-1.406175842E0,-1.870061188E0,2.491242671E0
1.139196967E1,-9.973759460E-1,-1.555714874E0,-3.285068665E0,3.769175464E0
1.140190867E1,-1.041384430E0,-1.609303436E0,-4.075874176E0,4.504119157E0
1.141184867E1,-8.966354370E-1,-1.564247131E0,-4.580474854E0,4.922557677E0
1.142178767E1,-9.066645813E-1,-1.301842804E0,-4.960085449E0,5.207617787E0
1.143172667E1,-1.166823578E0,-1.054557037E0,-6.091432800E0,6.291193954E0
1.144166667E1,-2.820135498E-1,-9.478289795E-1,-7.074438629E0,7.143220096E0
1.145160567E1,1.001866608E0,-9.554631042E-1,-7.276219025E0,7.406754332E0
1.146154467E1,2.210453339E0,-7.964936829E-1,-7.753426666E0,8.101612878E0
1.147148467E1,3.424129486E0,-5.044509888E-1,-7.617209930E0,8.366661261E0
1.148142367E1,4.043840790E0,-5.707630920E-1,-6.626270599E0,7.783693268E0
1.149136367E1,4.226910095E0,-5.776487732E-1,-6.271208954E0,7.584755026E0
1.150130267E1,3.646566925E0,-3.863465881E-1,-6.232140198E0,7.230925630E0
1.151124167E1,2.753524017E0,-1.938468933E-1,-6.341562653E0,6.916277034E0
1.152118167E1,2.828518066E0,3.293151855E-3,-5.772595825E0,6.428326987E0
1.153112067E1,3.160827026E0,2.703378296E-1,-4.727469177E0,5.693230617E0
1.154105967E1,3.183280334E0,5.057981873E-1,-3.830684052E0,5.006320585E0
1.155099967E1,2.940485229E0,7.286846924E-1,-3.057392120E0,4.304077293E0
1.156093867E1,2.461331635E0,9.442364502E-1,-2.295775909E0,3.495757846E0
1.157087867E1,1.832639008E0,1.226549377E0,-1.608554993E0,2.729549097E0
1.158081767E1,1.390159149E0,1.500479736E0,-1.124012604E0,2.333963631E0
1.159075667E1,1.102158051E0,1.607357483E0,-8.726852417E-1,2.135399255E0
1.160069667E1,7.485932922E-1,1.457219696E0,-6.225553894E-1,1.752557095E0
1.161063567E1,5.239105225E-1,1.310075684E0,-4.029620361E-1,1.467364622E0
1.162057467E1,6.050418091E-1,1.256786499E0,-4.252656555E-1,1.458231385E0
1.163051467E1,7.679031372E-1,1.246008911E0,-6.991960144E-1,1.622063039E0
1.164045367E1,1.188079376E0,1.209933929E0,-1.282532959E0,2.126114651E0
1.165039267E1,1.742825775E0,9.307644653E-1,-1.829046478E0,2.692429236E0
1.166033267E1,1.926194458E0,7.634124756E-1,-1.799408112E0,2.744247301E0
1.167027167E1,1.699266357E0,7.391629028E-1,-1.418749695E0,2.333820612E0
1.168021167E1,1.378932495E0,6.048921204E-1,-9.726773071E-1,1.792609954E0
1.169015067E1,1.590592346E0,1.558259583E-1,-1.184636536E0,1.989379165E0
1.170008967E1,8.360115051E-1,-5.349874878E-1,-2.954855347E0,3.117097523E0
1.171002967E1,-2.629581757E0,-1.806144104E0,-7.225474548E0,7.898375731E0
1.171996867E1,-9.807904358E0,-3.877386932E0,-9.856403503E0,1.443529727E1
1.172990767E1,-3.901786194E1,-1.110151428E1,-1.146376099E1,4.215513000E1
1.173984767E1,-7.934145859E1,-3.273842010E1,9.684860229E-2,8.583053409E1
1.174978667E1,-7.890796005E1,-2.629087784E1,8.810827789E0,8.363795253E1
1.175972667E1,-7.850948868E1,-1.408421173E0,2.149455185E1,8.141092815E1
1.176966567E1,-6.670204239E1,5.946833496E0,4.524042206E1,8.081598280E1
1.177960558E1,-1.038435562E1,2.224224701E0,7.402676056E1,7.478464613E1
1.178954558E1,-3.455818588E1,4.069886627E0,3.060655334E1,4.634213306E1
1.179948458E1,-2.626872391E1,1.443598022E0,6.393504639E0,2.707409708E1
1.180942358E1,-1.347108673E1,3.742218018E-2,-1.202599182E0,1.352471157E1
1.181936358E1,-7.887248383E0,7.738906860E-2,-2.234253845E0,8.197961110E0
1.182930258E1,-5.122048645E0,5.993536377E-1,-1.732646942E0,5.440282394E0
1.183924158E1,-3.170407104E0,1.135239258E0,-1.430126038E0,3.658621306E0
1.184918158E1,-1.554068298E0,7.295828247E-1,-1.694775696E0,2.412402129E0
1.185912058E1,-4.653822327E-1,1.836680603E-1,-1.660946045E0,1.734663179E0
1.186906058E1,1.832189941E-1,-4.778063965E-1,-1.474583588E0,1.560853904E0
1.187899958E1,2.103126526E-1,-8.554710388E-1,-1.231938171E0,1.514507764E0
1.188893858E1,-2.338137817E-1,-1.091829529E0,-1.298849030E0,1.712824978E0
1.189887858E1,-6.953041077E-1,-1.484313354E0,-2.015408936E0,2.597788889E0
1.190881758E1,-7.574249268E-1,-1.682650909E0,-2.939886475E0,3.471014129E0
1.191875658E1,-6.953041077E-1,-1.731299744E0,-3.589385834E0,4.045310528E0
1.192869658E1,-9.222322083E-1,-1.866169281E0,-4.171525269E0,4.662051383E0
1.193863558E1,-1.119372253E0,-1.958976288E0,-4.468657379E0,5.005944577E0
1.194857458E1,-9.045689392E-1,-1.934577026E0,-4.799768829E0,5.253438308E0
1.195851458E1,-9.171427917E-1,-1.779649200E0,-5.769751740E0,6.107236471E0
1.196845358E1,-4.592449951E-1,-1.974992981E0,-7.227270813E0,7.506327107E0
1.197839358E1,2.713856506E-1,-2.051783295E0,-8.210126953E0,8.466974043E0
1.198833258E1,1.551673279E0,-1.967508545E0,-8.452772369E0,8.816356422E0
1.199827158E1,3.513343964E0,-1.570084991E0,-8.590036926E0,9.412623815E0
1.200821158E1,5.065166931E0,-1.415606232E0,-8.128247223E0,9.681335650E0
1.201815058E1,5.444178772E0,-1.275497589E0,-7.119644623E0,9.052917549E0
1.202808958E1,4.831053772E0,-1.141526184E0,-5.771248627E0,7.612455142E0
1.203802958E1,4.420607300E0,-7.708969116E-1,-4.055516510E0,6.048410131E0
1.204796858E1,4.167184296E0,-2.439926147E-1,-2.861599274E0,5.060998691E0
1.205790858E1,4.050277405E0,-4.490661621E-3,-2.530338135E0,4.775707099E0
1.206784758E1,3.717519379E0,2.540217590E-1,-2.340832214E0,4.400451436E0
1.207778658E1,3.244952087E0,5.716612244E-1,-2.069895630E0,3.891141031E0
1.208772658E1,2.851420441E0,6.954537964E-1,-1.750160522E0,3.417208856E0
1.209766558E1,2.392175446E0,8.011340332E-1,-1.347647552E0,2.860152623E0
1.210760458E1,1.808539124E0,1.060394897E0,-1.065184937E0,2.351567573E0
1.211754458E1,1.433119812E0,1.197509766E0,-1.092577972E0,2.163697913E0
1.212748358E1,1.471140747E0,1.152902527E0,-1.318158875E0,2.287134048E0
1.213742258E1,1.610950012E0,9.355545044E-1,-1.698218536E0,2.520787252E0
1.214736258E1,1.880988464E0,8.710386658E-1,-2.110012207E0,2.957867048E0
1.215730158E1,2.290087738E0,7.676037598E-1,-2.676883392E0,3.605471131E0
1.216724158E1,2.642754364E0,4.890330505E-1,-3.231629791E0,4.203181540E0
1.217718058E1,2.815046082E0,2.317181396E-1,-3.544179840E0,4.532040211E0
1.218711958E1,2.738405457E0,1.118174744E-1,-3.391497345E0,4.360461195E0
1.219705958E1,2.274370422E0,1.176553345E-1,-2.704276428E0,3.535493543E0
1.220699858E1,1.457219696E0,2.508782959E-1,-1.726060638E0,2.272820822E0
1.221693758E1,9.586065674E-1,4.076023865E-1,-1.127305756E0,1.534889091E0
1.222687758E1,9.877958679E-1,2.833607483E-1,-1.483265533E0,1.804469627E0
1.223681658E1,7.173083496E-1,-7.216493225E-1,-4.401746521E0,4.517818218E0
1.224675658E1,-2.372266846E0,-2.636617126E0,-9.597142639E0,1.023154664E1
1.225669558E1,-9.908046112E0,-5.432203674E0,-1.209305237E1,1.655053262E1
1.226663458E1,-4.484644135E1,-1.653820862E1,-1.667307816E1,5.062318817E1
1.227657458E1,-8.055782913E1,-4.546944580E1,-8.896749115E0,9.293108458E1
1.228651358E1,-7.858837463E1,-2.875819702E1,8.796158295E0,8.414593825E1
1.229645258E1,-7.853553452E1,5.556295624E0,2.419658295E1,8.236611700E1
1.230639258E1,-6.905544846E1,1.052102142E1,3.629352722E1,7.871827597E1
1.231633158E1,5.717360687E0,-1.548829193E0,7.218828369E1,7.243090078E1
1.232627058E1,-1.569665863E1,-1.719025269E0,3.656416443E1,3.982810892E1
1.233621058E1,-3.264725967E1,3.661386108E-1,2.417023773E0,3.273865644E1
1.234614958E1,-1.670511154E1,-9.904902649E-1,-1.855092316E0,1.683695905E1
1.235608958E1,-6.178252258E0,-1.215023346E0,-2.574346619E0,6.802524767E0
1.236602858E1,-1.141226807E0,-7.044351196E-1,-3.387006683E0,3.642861751E0
1.237596758E1,1.174158325E0,-3.112028503E-1,-2.986739044E0,3.224299165E0
1.238590758E1,1.671573944E0,-4.320016479E-1,-2.604434052E0,3.124717844E0
1.239584658E1,1.589394836E0,-6.521937561E-1,-2.496508484E0,3.030525903E0
1.240578558E1,1.604363708E0,-6.827302551E-1,-2.665207672E0,3.184876049E0
1.241572558E1,1.750908966E0,-8.243357849E-1,-3.151995392E0,3.698687151E0
1.242566458E1,2.066003723E0,-1.043929138E0,-3.490142212E0,4.187989027E0
1.243560458E1,2.104024658E0,-1.391506348E0,-3.621868286E0,4.413744392E0
1.244554358E1,2.345173187E0,-1.785636749E0,-3.868555298E0,4.863543561E0
1.245548258E1,2.553539886E0,-2.177821198E0,-4.136348419E0,5.326617066E0
1.246542258E1,2.507884827E0,-2.574795685E0,-4.208348694E0,5.534370592E0
1.247536158E1,2.065704346E0,-2.787952423E0,-4.628524933E0,5.784726114E0
1.248530058E1,1.298250275E0,-2.190694427E0,-5.551804962E0,6.107956630E0
1.249524058E1,9.638456726E-1,-1.822310486E0,-6.561006317E0,6.877253658E0
1.250517958E1,1.105151825E0,-1.875899048E0,-7.800877991E0,8.099015695E0
1.251511858E1,1.719923401E0,-2.195185089E0,-8.363557892E0,8.816239260E0
1.252505858E1,2.346670074E0,-2.627186737E0,-8.315507812E0,9.030871540E0
1.253499758E1,2.373464355E0,-2.833008728E0,-8.483608246E0,9.253695498E0
1.254493758E1,2.161505127E0,-2.689606934E0,-9.158404999E0,9.786851996E0
1.255487658E1,2.620450745E0,-2.111658783E0,-9.075028381E0,9.678946484E0
1.256481558E1,3.035088501E0,-1.578467560E0,-8.401279449E0,9.071097973E0
1.257475558E1,2.991828461E0,-1.141675873E0,-7.570207672E0,8.219641448E0
1.258469458E1,2.898123322E0,-7.568261719E-1,-6.645281067E0,7.289147076E0
1.259463358E1,2.835852814E0,-3.727249146E-1,-5.508993988E0,6.207253805E0
1.260457358E1,2.869532776E0,-2.978805542E-2,-4.217928772E0,5.101571209E0
1.261451258E1,2.604134674E0,1.233435059E-1,-2.861748962E0,3.871219207E0
1.262445258E1,1.902244263E0,1.184037781E-1,-1.666933594E0,2.532038763E0
1.263439158E1,1.159937897E0,2.577639771E-1,-7.978408813E-1,1.431240114E0
1.264433058E1,1.382225647E0,4.234693909E-1,-2.567161560E-1,1.468256534E0
1.265427058E1,2.493664398E0,5.953120422E-1,-7.714956665E-1,2.677305385E0
1.266420958E1,2.353705444E0,6.143225098E-1,-7.379653931E-1,2.542029580E0
1.267414858E1,1.892215118E0,9.181906128E-1,-4.176315308E-2,2.103638804E0
1.268408858E1,1.846260681E0,1.168320465E0,2.068698120E-1,2.194640365E0
1.269402758E1,1.917512512E0,1.447340240E0,3.977229309E-1,2.435124542E0
1.270396658E1,1.869312744E0,1.692829742E0,3.588038635E-1,2.547301098E0
1.271390658E1,1.758842468E0,1.596130829E0,3.691323853E-1,2.403626254E0
1.272384558E1,1.770667877E0,1.177900543E0,4.131408691E-1,2.166425581E0
1.273378558E1,1.650617523E0,8.328680420E-1,4.882846069E-1,1.912231482E0
1.274372458E1,1.331930237E0,5.999523926E-1,6.218069458E-1,1.587647602E0
1.275366358E1,1.078956299E0,3.882925415E-1,6.119274902E-1,1.299758841E0
1.276360358E1,9.909393311E-1,6.526428223E-2,-5.851332092E-1,1.152649581E0
1.277354254E1,-1.649569702E-1,-7.960446167E-1,-5.083129578E0,5.147728056E0
1.278348154E1,-2.504891052E0,-1.502874756E0,-6.630611572E0,7.245558746E0
1.279342154E1,-7.546856232E0,-2.438578949E0,-7.463778992E0,1.089080819E1
1.280336054E1,-4.964635986E1,-1.225800934E1,-1.952434891E1,5.473773873E1
1.281330054E1,-8.079703171E1,-3.268438248E1,-1.201835770E1,8.798221475E1
1.282323954E1,-7.834333420E1,-2.361489258E1,7.609575806E0,8.217814070E1
1.283317854E1,-7.859855347E1,-2.037862244E0,1.273401947E1,7.964948676E1
1.284311854E1,-7.249065491E1,2.684367828E0,2.242771133E1,7.592827612E1
1.285305754E1,1.814526672E0,-1.295555878E0,7.258136627E1,7.261560233E1
1.286299654E1,-2.439851303E1,7.649093628E-2,2.864398453E1,3.762673436E1
1.287293654E1,-2.603520950E1,-8.333171082E-1,1.487905884E-1,2.604896716E1
1.288287554E1,-9.728868713E0,-2.794688416E-1,1.263372803E0,9.814535145E0
1.289281554E1,-5.371579742E0,2.278262329E-1,-2.978805542E-1,5.384654729E0
1.290275454E1,-2.136656799E0,7.430548096E-1,-1.036744080E0,2.488427418E0
1.291269354E1,-1.368154907E-1,1.001118164E0,-1.448837128E0,1.766376256E0
1.292263354E1,5.333409119E-1,7.982899475E-1,-1.607207794E0,1.872120793E0
1.293257254E1,1.066532135E0,2.829116821E-2,-1.653461609E0,1.967797367E0
1.294251154E1,1.214723969E0,-3.956272888E-1,-2.194436646E0,2.539217884E0
1.295245154E1,1.377136230E0,-6.685098267E-1,-2.765648804E0,3.161047752E0
1.296239054E1,1.503623199E0,-8.982820129E-1,-2.973566437E0,3.451070943E0
1.297232954E1,1.454674988E0,-9.848020935E-1,-2.681523743E0,3.205695567E0
1.298226954E1,1.275497589E0,-9.193881226E-1,-2.176623688E0,2.685118116E0
1.299220854E1,1.303040314E0,-8.198451233E-1,-1.814077606E0,2.379272504E0
1.300214854E1,1.216071167E0,-7.297325134E-1,-2.343975677E0,2.739627822E0
1.301208754E1,9.128018188E-1,-9.593550110E-1,-3.809577942E0,4.033169138E0
1.302202654E1,5.110372925E-1,-1.211879883E0,-5.129383392E0,5.295317361E0
1.303196654E1,-1.984872437E-1,-1.016835480E0,-5.707780609E0,5.801043963E0
1.304190554E1,3.682342529E-1,-9.907896423E-1,-6.618786163E0,6.702655508E0
1.305184454E1,1.080902252E0,-1.361119537E0,-8.057594147E0,8.242925422E0
1.306178454E1,1.190624084E0,-2.068398743E0,-9.396260376E0,9.694615419E0
1.307172354E1,1.844614105E0,-2.324067078E0,-9.921218719E0,1.035540776E1
1.308166354E1,2.865042114E0,-2.083068237E0,-8.730444946E0,9.421693508E0
1.309160254E1,3.172353058E0,-1.921554108E0,-7.570956116E0,8.430632872E0
1.310154154E1,3.465144196E0,-1.462758179E0,-7.024741974E0,7.968305063E0
1.311148154E1,3.127147064E0,-1.075513458E0,-6.380032654E0,7.186139062E0
1.312142054E1,2.831062775E0,-7.152127075E-1,-5.374124451E0,6.116180120E0
1.313135954E1,2.782563629E0,-3.661386108E-1,-4.125271454E0,4.989447104E0
1.314129954E1,2.593955841E0,-6.631210327E-2,-2.923121338E0,3.908662502E0
1.315123854E1,2.182910614E0,1.468446350E-1,-1.920506287E0,2.911186441E0
1.316117854E1,1.633852386E0,2.862048340E-1,-1.210682373E0,2.053567295E0
1.317111754E1,1.318158875E0,4.011657715E-1,-1.050515442E0,1.732645229E0
1.318105654E1,1.006357269E0,4.725672913E-1,-7.348219299E-1,1.332680782E0
1.319099654E1,6.107299805E-1,5.926176453E-1,-4.126918030E-1,9.457807921E-1
1.320093554E1,5.321434021E-1,5.854325867E-1,-1.766326904E-1,8.106213797E-1
1.321087454E1,1.213376770E0,4.999603271E-1,-3.830534363E-1,1.367104038E0
1.322081454E1,2.196083221E0,3.839515686E-1,-1.085093536E0,2.479441128E0
1.323075354E1,2.478695526E0,3.757186890E-1,-1.355730743E0,2.850105593E0
1.324069254E1,1.960473175E0,7.295828247E-1,-8.149053955E-1,2.244953668E0
1.325063254E1,1.293609924E0,1.122066650E0,-4.511618042E-1,1.770877516E0
1.326057154E1,8.491841125E-1,1.048569489E0,-4.748126221E-1,1.430405067E0
1.327051154E1,7.683522034E-1,6.854246521E-1,-2.353106689E-1,1.056192773E0
1.328045054E1,9.247769165E-1,5.466632080E-1,-2.724334717E-1,1.108274788E0
1.329038954E1,1.053359528E0,3.511697388E-1,-6.520440674E-1,1.287652106E0
1.330032954E1,6.765930176E-1,-1.603166199E-1,-1.912423096E0,2.034905803E0
1.331026854E1,-9.297166443E-1,-1.356778564E0,-5.166655884E0,5.422135569E0
1.332020754E1,-5.181774445E0,-3.080743561E0,-7.882458344E0,9.923452868E0
1.333014754E1,-1.221280334E1,-5.851032715E0,-8.286318512E0,1.587608969E1
1.334008654E1,-4.953109955E1,-1.889820099E1,-5.040468292E0,5.325296371E1
1.335002654E1,-8.095375580E1,-5.125281921E1,1.062909668E1,9.640196965E1
1.335996554E1,-7.865109421E1,-3.903283081E1,2.167821991E1,9.044059774E1
1.336990454E1,-7.879719040E1,-9.684860229E0,3.556304626E1,8.699151678E1
1.337984454E1,-6.767921036E1,-9.126521301E-1,5.188465530E1,8.528379626E1
1.338978354E1,-2.540501999E1,-3.409160614E0,6.460430466E1,6.950362291E1
1.339972254E1,-2.685056396E1,-2.949167175E0,2.185500229E1,3.474610046E1
1.340966254E1,-2.344828903E1,-2.983595581E0,1.410666504E0,2.367940204E1
1.341960154E1,-1.263103363E1,-2.646346893E0,-2.918930054E-2,1.290530955E1
1.342954154E1,-7.222031708E0,-1.647174683E0,-1.039438477E0,7.480064089E0
1.343948054E1,-3.527564392E0,-3.848497009E-1,-1.431922302E0,3.826515558E0
1.344941954E1,-1.439855804E0,3.134481812E-1,-1.598226471E0,2.173881863E0
1.345935954E1,-8.711883545E-2,9.490264893E-2,-1.918560333E0,1.922880640E0
1.346929854E1,4.543052673E-1,-4.457730103E-1,-2.343526611E0,2.428420028E0
1.347923754E1,3.086581421E-1,-9.138496399E-1,-3.282523956E0,3.421308892E0
1.348917754E1,3.644920349E-1,-1.222657471E0,-4.031416626E0,4.228482677E0
1.349911654E1,4.849914551E-1,-1.234931946E0,-3.687282257E0,3.918714594E0
1.350905654E1,4.156855774E-1,-1.026714935E0,-3.363355865E0,3.541059267E0
1.351899554E1,2.418969727E-1,-1.180744629E0,-4.418661346E0,4.580091715E0
1.352893454E1,-2.215393066E-2,-1.553170166E0,-5.469326477E0,5.685627536E0
1.353887454E1,-6.813830566E-1,-1.611698456E0,-5.980663147E0,6.231387202E0
1.354881354E1,-1.530866547E0,-1.293160858E0,-6.027815094E0,6.352194282E0
1.355875254E1,-1.331630859E0,-1.003213806E0,-5.441484375E0,5.691171311E0
1.356869254E1,-4.501139832E-1,-1.053359528E0,-5.137765961E0,5.263915649E0
1.357863154E1,5.897735596E-1,-1.052311707E0,-6.031707001E0,6.151152910E0
1.358857154E1,1.741478577E0,-9.099577332E-1,-7.328161011E0,7.587009589E0
1.359851054E1,2.543510742E0,-5.242098999E-1,-7.988737335E0,8.400248040E0
1.360844954E1,3.099754028E0,-3.203338623E-1,-8.733588409E0,9.272898971E0
1.361838954E1,2.801723785E0,-7.502398682E-1,-9.851912842E0,1.026999039E1
1.362832854E1,3.258274384E0,-1.321302338E0,-8.889863434E0,9.559909189E0
1.363826754E1,4.608915710E0,-7.171586609E-1,-6.078709259E0,7.662057611E0
1.364820754E1,4.366120605E0,-3.207829285E-1,-4.697830811E0,6.421489325E0
1.365814654E1,4.125570831E0,-2.619552612E-2,-3.755839691E0,5.579189249E0
1.366808654E1,3.526965637E0,1.393601990E-1,-2.882106628E0,4.556911947E0
1.367802554E1,2.919977875E0,3.183879089E-1,-2.037712555E0,3.574900573E0
1.368796454E1,2.371368713E0,6.014492798E-1,-1.319955139E0,2.779822365E0
1.369790454E1,1.936972046E0,8.288264465E-1,-7.948471069E-1,2.251798372E0
1.370784354E1,1.434467010E0,1.078207855E0,-1.706451416E-1,1.802594671E0
1.371778254E1,8.515791321E-1,1.442250824E0,1.655557251E-1,1.683057680E0
1.372772254E1,5.968089294E-1,1.685944061E0,3.891906738E-2,1.788883163E0
1.373766154E1,5.370831299E-1,1.770069122E0,-2.092648315E-1,1.861557078E0
1.374760154E1,5.945635986E-1,1.536255341E0,-4.085005188E-1,1.697191509E0
1.375754054E1,7.412585449E-1,1.189127197E0,-5.929170227E-1,1.521524997E0
1.376747954E1,8.494834900E-1,9.699829102E-1,-8.158035278E-1,1.525786499E0
1.377741992E1,8.613088989E-1,7.955955505E-1,-1.056203613E0,1.578097390E0
1.378735892E1,7.328759766E-1,5.806425476E-1,-1.315913544E0,1.614274270E0
1.379729792E1,5.402265930E-1,3.701802063E-1,-1.384920044E0,1.531953552E0
1.380723792E1,4.496649170E-1,3.056643677E-1,-1.097218323E0,1.224547790E0
1.381717692E1,6.454577637E-1,1.336720276E-1,-1.288969574E0,1.447731501E0
1.382711692E1,1.207538910E0,-7.213499451E-1,-4.021387482E0,4.260287929E0
1.383705592E1,-2.718496857E0,-3.695515137E0,-9.963131561E0,1.096863929E1
1.384699492E1,-1.678324905E1,-1.030576904E1,-1.321092773E1,2.371528908E1
1.385693492E1,-6.127043747E1,-3.366993301E1,-8.834628296E0,7.046830177E1
1.386687392E1,-8.108623032E1,-6.940572006E1,2.397908524E1,1.093943657E2
1.387681292E1,-7.873312363E1,-4.013184540E1,4.150778412E1,9.763383590E1
1.388675292E1,-7.809934158E1,-8.953630829E0,7.150001495E1,1.062634782E2
1.389669192E1,-5.140999237E1,-1.006417145E1,7.603722977E1,9.233599067E1
1.390663192E1,-2.876717834E1,-5.287155304E0,4.427163666E1,5.306111923E1
1.391657092E1,-2.392459854E1,-4.248315582E0,1.372720413E1,2.790825566E1
1.392650992E1,-1.454225922E1,-4.217030640E0,3.642225952E0,1.557326107E1
1.393644992E1,-9.893526306E0,-3.138074341E0,-2.408491516E-1,1.038207020E1
1.394638892E1,-5.743107147E0,-2.106569366E0,-2.206711121E0,6.503113729E0
1.395632792E1,-2.601140900E0,-1.095571747E0,-2.811603241E0,3.983883058E0
1.396626792E1,-7.334747314E-1,-5.957611084E-1,-3.199446716E0,3.336071907E0
1.397620692E1,-2.089654541E-1,-8.312214661E-1,-4.173471222E0,4.260570118E0
1.398614692E1,-6.656657410E-1,-1.393302612E0,-4.970713348E0,5.205035470E0
1.399608592E1,-1.157093811E0,-1.566791840E0,-5.279820557E0,5.627628974E0
1.400602492E1,-6.533912659E-1,-1.679657135E0,-5.259313202E0,5.559545269E0
1.401596492E1,-8.891510010E-2,-1.719474335E0,-5.176984406E0,5.455791915E0
1.402590392E1,-2.418969727E-1,-1.696571960E0,-5.241200867E0,5.514259432E0
1.403584292E1,-5.610333252E-1,-1.707499237E0,-4.987478485E0,5.301438831E0
1.404578292E1,-1.390458527E0,-1.771715698E0,-5.049748993E0,5.529223844E0
1.405572192E1,-2.792892151E0,-1.787133636E0,-5.588329010E0,6.497962321E0
1.406566192E1,-3.600911865E0,-1.906734924E0,-6.615343323E0,7.769489791E0
1.407560092E1,-2.972817993E0,-1.987117767E0,-7.352560272E0,8.175966389E0
1.408553992E1,-1.391955414E0,-1.671274567E0,-7.920179901E0,8.213400527E0
1.409547992E1,7.885601807E-1,-1.239721985E0,-8.767867126E0,8.890119893E0
1.410541892E1,2.674638062E0,-8.276289368E-1,-9.720785522E0,1.011594433E1
1.411535792E1,4.750820618E0,-5.114863586E-1,-1.050171158E1,1.153767138E1
1.412529792E1,6.340664520E0,-5.324427795E-1,-8.719517670E0,1.079432769E1
1.413523692E1,6.402635651E0,-7.182064819E-1,-6.291566620E0,9.005185970E0
1.414517692E1,5.345084839E0,-3.748205566E-1,-4.147724762E0,6.775990192E0
1.415511592E1,3.999981995E0,2.993774414E-2,-3.037333832E0,5.022563990E0
1.416505492E1,3.291804657E0,1.836680603E-1,-3.253334656E0,4.631835299E0
1.417499492E1,2.848875732E0,4.831951904E-1,-3.080294495E0,4.223480165E0
1.418493392E1,2.442321167E0,1.036744080E0,-2.227667542E0,3.464429772E0
1.419487292E1,2.050735474E0,1.471739502E0,-1.641785889E0,3.011144973E0
1.420481292E1,1.628313904E0,1.604812775E0,-1.412462769E0,2.687355816E0
1.421475192E1,1.286873932E0,1.620380402E0,-1.311722260E0,2.449957642E0
1.422469192E1,7.711962891E-1,1.688638458E0,-1.052461395E0,2.133991225E0
1.423463092E1,3.803590393E-1,1.613345032E0,-5.944139099E-1,1.760932448E0
1.424456992E1,3.531156921E-1,1.364861755E0,-4.240681458E-1,1.472199747E0
1.425450992E1,6.014492798E-1,1.181493073E0,-6.701564026E-1,1.485522373E0
1.426444892E1,1.244212646E0,1.106199646E0,-1.063837738E0,1.975726069E0
1.427438792E1,2.068548431E0,9.659413147E-1,-1.583706665E0,2.778499962E0
1.428432792E1,2.882855072E0,9.089099121E-1,-1.833836517E0,3.535523577E0
1.429426692E1,2.813249817E0,7.231462097E-1,-1.297801208E0,3.181446676E0
1.430420592E1,2.060465240E0,4.698728943E-1,-4.797523499E-1,2.167131713E0
1.431414592E1,1.309776306E0,3.031196594E-1,-6.556365967E-2,1.345991862E0
1.432408492E1,8.084687805E-1,3.532653809E-1,2.460882568E-1,9.159572198E-1
1.433402492E1,8.520281982E-1,3.882925415E-1,7.292834473E-1,1.186835075E0
1.434396392E1,1.207688599E0,-3.573069763E-1,4.519102478E-1,1.338059378E0
1.435390292E1,6.557862854E-1,-1.200802917E0,-6.032455444E-2,1.369533625E0
1.436384292E1,-2.680924988E-1,-1.422192535E0,-1.580413513E0,2.142944719E0
1.437378192E1,-4.055516510E0,-2.522254944E0,-5.451214142E0,7.247394000E0
1.438372192E1,-5.019751373E1,-1.669657928E1,-1.798360291E1,5.587464647E1
1.439366092E1,-8.145431488E1,-5.549409943E1,5.191204834E0,9.869827299E1
1.440359992E1,-7.866920654E1,-5.293621857E1,3.936379257E1,1.026674021E2
1.441353992E1,-7.796043045E1,-2.313049988E1,4.699971359E1,9.392455386E1
1.442347892E1,-5.365262878E1,-5.556595001E0,4.663387436E1,7.130356626E1
1.443341792E1,-3.314557343E1,-4.428241425E0,2.885280029E1,4.416698365E1
1.444335792E1,-2.570499619E1,-4.116739197E0,5.432652740E0,2.659338426E1
1.445329692E1,-1.376836853E1,-3.087778931E0,2.264790344E-1,1.411218068E1
1.446323692E1,-5.777834930E0,-2.007924500E0,-1.950294342E0,6.420185768E0
1.447317592E1,-1.390458527E0,-7.298822021E-1,-3.255130920E0,3.614136170E0
1.448311492E1,6.623725891E-1,-1.781295776E-1,-3.379821625E0,3.448718865E0
1.449305492E1,1.123713226E0,-3.716770935E-1,-3.468736725E0,3.665107058E0
1.450299392E1,8.669970703E-1,-9.223818970E-1,-3.510200500E0,3.731484937E0
1.451293292E1,4.037104797E-1,-1.187630310E0,-3.181484070E0,3.419837539E0
1.452287292E1,3.257226562E-1,-1.272653503E0,-3.142864380E0,3.406367376E0
1.453281192E1,5.376818848E-1,-1.445394287E0,-3.529510345E0,3.851715168E0
1.454275192E1,6.676116943E-1,-1.526675262E0,-3.737427979E0,4.092042354E0
1.455269092E1,6.014492798E-1,-1.468745728E0,-3.876937866E0,4.189224566E0
1.456262992E1,1.661544800E-1,-1.343156891E0,-4.223317566E0,4.434871927E0
1.457256992E1,-8.460406494E-1,-1.122366028E0,-4.569846954E0,4.781107766E0
1.458250892E1,-2.219734039E0,-8.238867188E-1,-4.702920227E0,5.265307892E0
1.459244792E1,-3.234623566E0,-7.637118530E-1,-5.184618530E0,6.158434437E0
1.460238792E1,-3.290457458E0,-8.798703003E-1,-6.433172150E0,7.279216025E0
1.461232692E1,-2.029180298E0,-6.577322388E-1,-7.940387878E0,8.221918513E0
1.462226692E1,4.396357727E-1,-2.371069336E-1,-8.870104523E0,8.884157448E0
1.463220592E1,3.218157806E0,2.799179077E-1,-9.232051849E0,9.780883143E0
1.464214492E1,5.234764252E0,6.319857788E-1,-8.330776062E0,9.859208517E0
1.465208492E1,6.215973816E0,7.213499451E-1,-6.737189941E0,9.195020638E0
1.466202392E1,6.281387787E0,3.339555359E-1,-5.251230011E0,8.194069530E0
1.467196292E1,5.436544647E0,1.670526123E-1,-4.194876709E0,6.868836501E0
1.468190292E1,4.222868500E0,3.198847961E-1,-3.875740356E0,5.740758483E0
1.469184192E1,3.293301544E0,2.158511353E-1,-4.092190247E0,5.257228147E0
1.470178192E1,2.862647095E0,1.312770081E-1,-4.014052734E0,4.931997708E0
1.471172092E1,2.566113739E0,3.511697388E-1,-3.076402588E0,4.021506284E0
1.472165992E1,2.074535980E0,6.068380737E-1,-1.861379242E0,2.852487452E0
1.473159992E1,1.448687439E0,8.604107666E-1,-1.002615051E0,1.960673079E0
1.474153892E1,9.448352051E-1,1.166524200E0,-4.146377563E-1,1.557374953E0
1.475147792E1,6.864724731E-1,1.325792999E0,-1.716929626E-1,1.502814029E0
1.476141792E1,4.631369019E-1,1.360820160E0,-2.736309814E-1,1.463284392E0
1.477135692E1,2.718347168E-1,1.200952606E0,-2.312690735E-1,1.252863384E0
1.478129608E1,3.842509460E-1,1.001417542E0,-1.924996948E-1,1.089744013E0
1.479123508E1,7.467970276E-1,8.675958252E-1,-3.885919189E-1,1.208897016E0
1.480117408E1,1.249451752E0,6.851252747E-1,-8.596623230E-1,1.664195190E0
1.481111408E1,1.619482269E0,4.535568237E-1,-1.073268127E0,1.995079218E0
1.482105308E1,1.801952820E0,2.579136658E-1,-8.746311951E-1,2.019537856E0
1.483099208E1,1.799857178E0,1.432521057E-1,-5.153782654E-1,1.877663916E0
1.484093208E1,1.707948303E0,1.630110168E-1,-2.366578674E-1,1.731954660E0
1.485087108E1,1.676663361E0,1.592687988E-1,-3.805087280E-1,1.726659627E0
1.486081108E1,1.309925995E0,-1.649569702E-1,-1.158441010E0,1.756445982E0
1.487075008E1,5.237608337E-1,-1.707648926E0,-2.275567932E0,2.892853207E0
1.488068908E1,-1.493893433E-1,-2.407743073E0,-4.647984467E0,5.236726409E0
1.489062908E1,-5.793252869E0,-4.584666138E0,-8.222850494E0,1.105423958E1
1.490056808E1,-3.336381958E1,-1.546568893E1,-1.508473114E1,3.974771823E1
1.491050708E1,-7.898160690E1,-5.417758713E1,4.281396790E0,9.587301776E1
1.492044708E1,-7.942199112E1,-5.340130142E1,2.191891937E1,9.818345428E1
1.493038608E1,-7.849676514E1,-5.104984131E0,4.480213348E1,9.052642799E1
1.494032608E1,-5.691299881E1,9.431287537E0,7.741421631E1,9.654532358E1
1.495026508E1,-4.241504745E1,-2.580932922E0,6.466373108E1,7.737632443E1
1.496020408E1,-4.601206741E1,-1.374292145E0,1.871632919E1,4.969205173E1
1.497014408E1,-2.716012024E1,-1.427431641E0,-9.321116638E-1,2.721357243E1
1.498008308E1,-1.244497055E1,-2.014061737E0,-2.780917053E0,1.290996655E1
1.499002208E1,-4.494703217E0,-1.284628601E0,-2.946921844E0,5.526027145E0
1.499996208E1,-6.004014587E-1,-4.328997803E-1,-2.965034180E0,3.056028766E0
1.500990108E1,8.842112732E-1,-1.231938171E-1,-2.615061951E0,2.763250857E0
1.501984108E1,1.382974091E0,-6.381230164E-1,-2.803669739E0,3.190671140E0
1.502978008E1,1.463656311E0,-1.019978943E0,-3.398383026E0,3.838183689E0
1.503971908E1,1.334025879E0,-1.004111938E0,-3.497626648E0,3.875726770E0
1.504965908E1,1.178948364E0,-8.696914673E-1,-2.941083984E0,3.285765892E0
1.505959808E1,9.569599915E-1,-7.934999084E-1,-2.908302155E0,3.162852502E0
1.506953708E1,7.934999084E-1,-1.118174744E0,-4.253704376E0,4.469223398E0
1.507947708E1,3.549119568E-1,-1.494342499E0,-5.450765076E0,5.663025862E0
1.508941608E1,-2.427951050E-1,-1.732796631E0,-6.250102844E0,6.490402082E0
1.509935608E1,-9.190887451E-1,-1.699715424E0,-6.611750793E0,6.888323831E0
1.510929508E1,-1.814975739E0,-1.564995575E0,-6.329587555E0,6.768088851E0
1.511923408E1,-2.562521210E0,-1.872456207E0,-6.357579346E0,7.105731654E0
1.512917408E1,-2.252964935E0,-2.461032257E0,-7.232060852E0,7.964623967E0
1.513911308E1,-1.033450928E0,-2.359992371E0,-9.247469788E0,9.599650112E0
1.514905208E1,1.458417206E0,-1.328337708E0,-9.812395020E0,1.000872409E1
1.515899208E1,3.142115936E0,-5.728587341E-1,-9.668244781E0,1.018214206E1
1.516893108E1,4.254752197E0,-2.381547546E-1,-8.632398834E0,9.626938432E0
1.517887108E1,4.896467743E0,-1.947450256E-1,-6.593788147E0,8.215312782E0
1.518881008E1,4.762346649E0,-2.948867798E-2,-5.460494843E0,7.245537876E0
1.519874908E1,3.558400269E0,-3.921844482E-2,-5.357509003E0,6.431691323E0
1.520868908E1,2.846929779E0,-8.008346558E-2,-4.500690765E0,5.326128040E0
1.521862808E1,2.878663788E0,3.821553040E-1,-3.162772980E0,4.293702458E0
1.522856708E1,2.846780090E0,9.294172668E-1,-2.334245911E0,3.796929985E0
1.523850708E1,2.564018097E0,1.313817902E0,-2.045047302E0,3.533061668E0
1.524844608E1,2.076332245E0,1.513053589E0,-1.827699280E0,3.152930607E0
1.525838608E1,1.528471527E0,1.454375610E0,-1.569635925E0,2.629674992E0
1.526832508E1,1.052012329E0,1.302291870E0,-1.158441010E0,2.035848626E0
1.527826408E1,6.611750793E-1,1.216819611E0,-6.801855469E-1,1.542872266E0
1.528820408E1,7.089257812E-1,1.189875641E0,-3.832031250E-1,1.437088877E0
1.529814308E1,1.045426025E0,1.065184937E0,-4.914280701E-1,1.571316668E0
1.530808208E1,1.546434174E0,1.027164001E0,-8.898994446E-1,2.058748542E0
1.531802208E1,2.207609253E0,9.827064514E-1,-1.120270386E0,2.663504519E0
1.532796108E1,2.651436310E0,9.433383179E-1,-1.394350433E0,3.140734758E0
1.533790108E1,2.555934906E0,9.244775391E-1,-1.150357819E0,2.951403916E0
1.534784008E1,2.102976837E0,8.126600647E-1,-5.442681885E-1,2.319300718E0
1.535777908E1,1.782792664E0,6.959028625E-1,4.071533203E-2,1.914233061E0
1.536771908E1,1.534758453E0,5.385800171E-1,1.164578247E-1,1.630679113E0
1.537765808E1,1.090033264E0,2.161505127E-1,-9.535171509E-2,1.115340984E0
1.538759708E1,2.564167786E-1,-7.261399841E-1,1.679507446E-1,7.881854436E-1
1.539753708E1,2.320175171E-2,-1.204545135E0,-4.352947998E-1,1.280995264E0
1.540747608E1,-5.574407959E-1,-1.533710632E0,-2.445913696E0,2.940323512E0
1.541741608E1,-6.433920593E0,-3.779789886E0,-6.347400513E0,9.796511576E0
1.542735508E1,-4.340044830E1,-1.621952133E1,-1.393212799E1,4.838156648E1
1.543729408E1,-8.058447372E1,-4.724250870E1,6.790030060E0,9.365797639E1
1.544723408E1,-7.875063721E1,-3.241853531E1,2.096495316E1,8.770492320E1
1.545717308E1,-7.859900253E1,1.930834808E0,4.790637817E1,9.206819425E1
1.546711208E1,-5.293217697E1,4.834346924E0,7.785879181E1,9.427182894E1
1.547705208E1,-4.359399582E1,-1.010698242E0,5.116540100E1,6.722615742E1
1.548699108E1,-4.053555588E1,-1.299896851E0,8.598868561E0,4.145794933E1
1.549693108E1,-1.881871628E1,-1.662442932E0,-1.386267242E0,1.894279641E1
1.550687008E1,-7.683372345E0,-1.534608765E0,-1.906435547E0,8.063729357E0
1.551680908E1,-2.804268494E0,-5.219645691E-1,-3.023861847E0,4.156935081E0
1.552674908E1,-4.370910645E-1,2.294728088E-1,-2.812800751E0,2.855793135E0
1.553668808E1,9.455836487E-1,6.197113037E-2,-2.722239075E0,2.882456320E0
1.554662708E1,1.630110168E0,-5.921685791E-1,-3.040028229E0,3.499956345E0
1.555656708E1,1.883832550E0,-8.768765259E-1,-3.609144745E0,4.164572404E0
1.556650608E1,1.894759827E0,-1.012045441E0,-3.577710114E0,4.173051693E0
1.557644608E1,1.592238922E0,-1.079255676E0,-3.011437683E0,3.573342206E0
1.558638508E1,1.293609924E0,-1.160386963E0,-3.281326447E0,3.713088713E0
1.559632408E1,8.529263306E-1,-1.622925110E0,-4.355792084E0,4.725917256E0
1.560626408E1,1.661544800E-2,-2.149380341E0,-5.165757751E0,5.595101882E0
1.561620308E1,-5.200186157E-1,-2.446063385E0,-5.690117340E0,6.215390638E0
1.562614208E1,-1.368753662E0,-1.910626831E0,-6.126459961E0,6.561820870E0
1.563608208E1,-1.986369324E0,-1.799258423E0,-7.252119141E0,7.731508649E0
1.564602108E1,-9.586065674E-1,-2.186652832E0,-8.711135101E0,9.032400119E0
1.565596108E1,6.830296326E-1,-2.169738007E0,-1.021161484E1,1.046190088E1
1.566590008E1,2.023043060E0,-1.850302277E0,-1.107576782E1,1.141003745E1
1.567583908E1,3.040177917E0,-2.040856018E0,-1.118773499E1,1.177171139E1
1.568577908E1,3.789669342E0,-2.439028015E0,-1.250290009E1,1.329033340E1
1.569571808E1,4.757556610E0,-2.008223877E0,-1.158890076E1,1.268739251E1
1.570565708E1,5.613925781E0,-1.047222290E0,-8.308023376E0,1.008147259E1
1.571559708E1,4.825814667E0,-4.692741394E-1,-6.068680115E0,7.767727065E0
1.572553608E1,4.165537720E0,9.190887451E-2,-4.173321533E0,5.897182747E0
1.573547608E1,3.742517395E0,1.230441284E-1,-2.744692383E0,4.642726848E0
1.574541508E1,3.304677887E0,3.270698547E-1,-1.914219360E0,3.833028357E0
1.575535408E1,2.481539612E0,5.620811462E-1,-1.239721985E0,2.830350625E0
1.576529408E1,1.460213470E0,1.310524750E0,-5.628295898E-1,2.041194662E0
1.577523342E1,7.158114624E-1,2.225721588E0,-2.914439392E-1,2.356090450E0
1.578517242E1,5.571414185E-1,2.597398682E0,-6.474037170E-1,2.734230796E0
1.579511242E1,7.343728638E-1,2.836152191E0,-1.065184937E0,3.117319634E0
1.580505142E1,1.087039490E0,2.786006470E0,-1.279539185E0,3.252799936E0
1.581499142E1,1.260977783E0,2.580783234E0,-1.354832611E0,3.175858699E0
1.582493042E1,1.274599457E0,2.087858276E0,-1.288819885E0,2.764925434E0
1.583486942E1,1.184037781E0,1.665885773E0,-1.039139099E0,2.292799804E0
1.584480942E1,1.058448944E0,1.357527008E0,-6.725514221E-1,1.848112323E0
1.585474842E1,7.220983887E-1,9.087602234E-1,-2.258802795E-1,1.182494451E0
1.586468742E1,3.558100891E-1,5.063969421E-1,2.104623413E-1,6.537071819E-1
1.587462742E1,1.404080200E-1,2.393522644E-1,3.900888062E-1,4.787203727E-1
1.588456642E1,3.457809448E-2,9.400451660E-2,4.282594299E-1,4.398165903E-1
1.589450642E1,4.610412598E-2,1.833686829E-1,5.893244934E-1,6.189127748E-1
1.590444542E1,-8.876541138E-2,2.306703186E-1,1.133892059E0,1.160516823E0
1.591438442E1,-1.856140137E-1,7.080276489E-2,1.468745728E0,1.482119970E0
1.592432442E1,-2.142045593E-1,-3.842509460E-1,1.798959045E0,1.851968150E0
1.593426342E1,2.974314880E-1,-5.287005615E-1,-4.370910645E-2,6.081942616E-1
1.594420242E1,-6.524931335E-1,-8.089178467E-1,-1.098266144E0,1.512046261E0
1.595414242E1,-1.944306793E0,-6.954537964E-1,-1.413360901E0,2.502313714E0
1.596408142E1,-4.650633957E1,-1.043016037E1,-1.205368423E1,4.916217214E1
1.597402142E1,-8.113098724E1,-2.300236633E1,-1.817565353E1,8.626529041E1
1.598396042E1,-7.806371567E1,-2.568778198E1,-8.039182434E0,8.257381123E1
1.599389942E1,-7.863358063E1,-2.048415298E1,1.776385986E1,8.317689128E1
1.600383942E1,-5.598657532E1,-3.270848236E0,4.796565491E1,7.379633537E1
1.601377842E1,-2.299727692E1,4.760101318E-2,3.802826981E1,4.444126816E1
1.602371742E1,-1.659119843E1,-1.610351257E0,5.877677307E0,1.767507247E1
1.603365742E1,-9.876162415E0,-1.519041138E0,-7.059320068E-1,1.001720570E1
1.604359642E1,-5.163961487E0,-1.404828644E0,-3.598816223E0,6.449148778E0
1.605353642E1,-2.710713043E0,-8.210426331E-1,-4.389472046E0,5.223939227E0
1.606347542E1,-8.698411560E-1,-6.373745728E-1,-3.764072571E0,3.915496431E0
1.607341442E1,2.320175171E-2,-1.130149841E0,-3.156785431E0,3.353068929E0
1.608335442E1,1.631607056E-2,-1.700014801E0,-2.974464569E0,3.426040865E0
1.609329342E1,-1.511856079E-1,-1.787283325E0,-2.680326233E0,3.225118213E0
1.610323242E1,-2.275268555E-1,-1.680255890E0,-2.386337585E0,2.927393960E0
1.611317242E1,-1.559756470E-1,-1.767674103E0,-2.864892426E0,3.369956787E0
1.612311142E1,-7.200027466E-2,-1.730401611E0,-3.264561310E0,3.695515434E0
1.613305142E1,-1.255888367E-1,-1.640438690E0,-3.661835175E0,4.014454944E0
1.614299042E1,-3.029699707E-1,-1.591939545E0,-3.979175262E0,4.296498352E0
1.615292942E1,-5.266049194E-1,-1.458716583E0,-4.074077911E0,4.359274898E0
1.616286942E1,-8.159532166E-1,-1.374741211E0,-4.074377289E0,4.376784589E0
1.617280842E1,-1.116977234E0,-1.265318756E0,-4.274361420E0,4.595523391E0
1.618274742E1,-1.056652679E0,-1.317260742E0,-4.528383179E0,4.833005789E0
1.619268742E1,-3.659889221E-1,-1.348246307E0,-5.205574951E0,5.389779826E0
1.620262642E1,9.141490173E-1,-9.812095642E-1,-6.199807434E0,6.343189486E0
1.621256642E1,2.528242493E0,-4.007167053E-1,-7.248676300E0,7.687385257E0
1.622250542E1,4.281097412E0,-2.499801636E-2,-7.658224640E0,8.773643746E0
1.623244442E1,5.188809814E0,-4.894821167E-2,-6.975494385E0,8.693886653E0
1.624238442E1,5.048551483E0,-4.234693909E-1,-5.342989197E0,7.363065392E0
1.625232342E1,4.055366821E0,-4.767585754E-1,-4.253554688E0,5.896272235E0
1.626226242E1,3.094065857E0,-2.395019531E-2,-3.760330353E0,4.869692136E0
1.627220242E1,2.679727478E0,2.661465454E-1,-3.225642242E0,4.201968731E0
1.628214142E1,2.406994629E0,3.421884155E-1,-2.966082001E0,3.835147779E0
1.629208142E1,2.137704620E0,3.101550293E-1,-2.673141174E0,3.436809701E0
1.630202042E1,1.941462708E0,4.408332825E-1,-2.337838440E0,3.070683963E0
1.631195942E1,1.551972656E0,8.312214661E-1,-1.905238037E0,2.594124174E0
1.632189942E1,1.128952332E0,1.264720001E0,-1.686093750E0,2.391016977E0
