"Time (s)","Acceleration x (m/s^2)","Acceleration y (m/s^2)","Acceleration z (m/s^2)","Absolute acceleration (m/s^2)"
1.665624994E-3,2.241887970E0,6.870712280E-2,1.439556427E0,2.665165107E0
1.160462500E-2,2.901117096E0,1.806742859E-1,1.129401398E0,3.118440495E0
2.154362499E-2,5.210514679E0,1.573228455E-1,1.650617523E0,5.467975119E0
3.148262500E-2,1.080168777E1,-1.222956848E-1,2.725083160E0,1.114080308E1
4.142162498E-2,1.320523956E1,-5.948629761E-1,6.824009399E0,1.487613250E1
5.136062499E-2,1.177062286E1,-3.772155762E-2,1.211745163E1,1.689324183E1
6.130062498E-2,1.748274445E1,1.651964722E0,9.528585205E0,1.997922113E1
7.123962499E-2,2.575663879E1,6.315217438E0,9.905351715E0,2.830905166E1
8.117862500E-2,3.061748062E1,1.370130798E1,1.555265808E1,3.697351935E1
9.111762498E-2,3.337893814E1,2.604673553E1,1.926284271E1,4.651497665E1
1.010566250E-1,3.089380600E1,2.997351974E1,1.847158813E1,4.684056685E1
1.109956250E-1,2.384676041E1,1.844988327E1,1.609722565E1,3.417874849E1
1.209346250E-1,2.469010666E1,1.247116608E1,2.010768585E1,3.419722767E1
1.308736250E-1,3.903507614E1,1.658356430E1,2.352717499E1,4.850030657E1
1.408136250E-1,4.596865768E1,2.278367111E1,1.499476822E1,5.345143808E1
1.507526250E-1,2.706387039E1,1.385309235E1,3.924838257E0,3.065559661E1
1.606916250E-1,1.218585938E1,5.868097229E0,1.798659668E1,2.250438610E1
1.706306250E-1,2.011352371E1,1.182331329E1,1.056697586E1,2.561260534E1
1.805696250E-1,2.028985703E1,1.232776428E1,7.477999420E0,2.489121423E1
1.905086250E-1,1.734547989E1,1.046863037E1,3.123853912E0,2.049917944E1
2.004476250E-1,1.355356522E1,7.757617950E0,1.875150604E0,1.572882564E1
2.103876250E-1,9.139693909E0,4.920118561E0,3.116070099E0,1.083750268E1
2.203266250E-1,7.412735138E0,4.414919128E0,3.291654968E0,9.234454265E0
2.302656250E-1,4.287384338E0,3.756438446E0,3.655398560E0,6.771590130E0
2.402046250E-1,2.715353394E0,3.392545166E0,4.875661011E0,6.531047163E0
2.501436250E-1,1.485061798E0,2.523901520E0,5.903723145E0,6.590101243E0
2.600826250E-1,-3.297642517E-1,2.102228394E0,4.993316345E0,5.427828001E0
2.700216250E-1,-1.547032928E0,1.708696747E0,3.723357239E0,4.379080335E0
2.799616250E-1,-2.265239410E0,8.695417786E-1,2.304457855E0,3.346332096E0
2.898996666E-1,-1.928589478E0,3.146456909E-1,9.583071899E-1,2.176421824E0
2.998386667E-1,-1.091081085E0,8.681945801E-2,-6.256988525E-2,1.096316808E0
3.097776667E-1,-8.075706482E-1,-1.525328064E-1,-5.104385376E-1,9.674627174E-1
3.197166667E-1,-9.994715881E-1,-4.873864746E-1,-6.108796692E-1,1.268724951E0
3.296556667E-1,-8.813671875E-1,-6.491999817E-1,-7.340734863E-1,1.318003270E0
3.395946667E-1,-9.943821716E-1,-9.449848938E-1,-4.625381470E-1,1.447664979E0
3.495336667E-1,-1.291663971E0,-1.570683746E0,4.254153442E-1,2.077599928E0
3.594736667E-1,-1.859133911E0,-2.239642639E0,1.246008911E0,3.166214815E0
3.694126667E-1,-1.535207520E0,-2.788850555E0,1.521585846E0,3.528423591E0
3.793516667E-1,-4.590953064E-1,-3.023412781E0,9.840536499E-1,3.212499794E0
3.892906666E-1,-1.892065430E-1,-3.094065857E0,4.119433594E-1,3.127097692E0
3.992296667E-1,-7.405101013E-1,-2.723286896E0,2.288740540E-1,2.831436042E0
4.091686667E-1,-9.377998352E-1,-2.051034851E0,1.047821045E-2,2.255287628E0
4.191076666E-1,-6.933581543E-1,-1.047521667E0,-1.062789917E-1,1.260691238E0
4.290476667E-1,-2.094145203E-1,-2.387535095E-1,2.695893860E-1,4.165766636E-1
4.389866666E-1,3.191363525E-1,-2.933898926E-2,3.288661194E-1,4.591968121E-1
4.489256667E-1,2.719844055E-1,3.607498169E-2,9.235794067E-2,2.894942320E-1
4.588646667E-1,-1.646575928E-3,2.543211365E-1,5.987548828E-3,2.543969387E-1
4.688036666E-1,-1.487905884E-1,3.141966248E-1,-9.145980835E-2,3.594760837E-1
4.787426667E-1,-1.544787598E-1,2.760260010E-1,-4.520599365E-2,3.195271855E-1
4.886816667E-1,-2.694396973E-3,2.246827698E-1,1.945953369E-3,2.247073509E-1
4.986216667E-1,1.083746338E-1,1.923500061E-1,1.541793823E-2,2.213171907E-1
5.085606667E-1,1.627116394E-1,2.264790344E-1,5.044509888E-2,2.833946694E-1
5.184996667E-1,1.050814819E-1,2.579136658E-1,1.061293030E-1,2.980352425E-1
5.284386667E-1,4.236190796E-2,2.302212524E-1,2.109114075E-1,3.150872548E-1
5.383776667E-1,1.213975525E-1,1.993853760E-1,2.622546387E-1,3.510974073E-1
5.483166667E-1,4.971162415E-1,2.769241333E-1,3.367996216E-1,6.612454296E-1
5.582556667E-1,1.194216614E0,3.827540588E-1,5.516029358E-1,1.370007222E0
5.681946666E-1,2.150428162E0,8.135581970E-1,7.045848083E-1,2.404715777E0
5.781346667E-1,2.998115387E0,1.114282837E0,6.912625122E-1,3.272333414E0
5.880736666E-1,4.760849762E0,9.993218994E-1,8.599617004E-1,4.940027211E0
5.980126667E-1,1.223660385E1,1.004860382E0,2.380350037E0,1.250640974E1
6.079516667E-1,1.916808975E1,1.068029022E0,1.054616913E1,2.190383606E1
6.178906666E-1,2.182686081E1,2.833457794E0,2.431408859E1,3.279657360E1
6.278296667E-1,3.178999237E1,9.119785309E0,1.775712387E1,3.753784154E1
6.377686667E-1,3.789893875E1,1.393003235E1,1.599498825E1,4.343057689E1
6.477076666E-1,3.449636444E1,1.353814728E1,2.018971527E1,4.220077243E1
6.576476667E-1,2.991559021E1,1.245170654E1,1.378737900E1,3.521476044E1
6.675866666E-1,2.260614029E1,1.223750198E1,1.131302444E1,2.808520172E1
6.775256667E-1,2.588701767E1,1.921224792E1,1.086844894E1,3.402016074E1
6.874646667E-1,4.601251648E1,2.195843719E1,1.240964401E1,5.247212499E1
6.974036667E-1,4.642670517E1,1.842847778E1,1.457129883E1,5.203239852E1
7.073426667E-1,2.852617950E1,1.096185471E1,-2.274370422E0,3.064437855E1
7.172816667E-1,2.019196060E1,6.649322662E0,1.084135529E1,2.386343959E1
7.272216667E-1,2.053175400E1,7.832761688E0,1.194007050E1,2.500940546E1
7.371606667E-1,1.804976532E1,7.078480225E0,2.558778992E0,1.955623329E1
7.470996667E-1,1.496033981E1,6.778204651E0,5.254074097E-1,1.643264673E1
7.570386667E-1,1.252026398E1,6.045927429E0,1.842069397E0,1.402510136E1
7.669776666E-1,8.737330627E0,4.394860840E0,2.893183594E0,1.019932643E1
7.769166667E-1,6.631060638E0,4.126169586E0,2.607427826E0,8.233767091E0
7.868556667E-1,3.569926300E0,3.241958313E0,3.231330414E0,5.804839682E0
7.967946666E-1,2.284698944E0,1.700314178E0,4.492607574E0,5.319251864E0
8.067346667E-1,1.337917786E0,1.263372803E0,5.124743042E0,5.445101109E0
8.166736666E-1,2.513273621E-1,1.146765289E0,4.523742828E0,4.673594468E0
8.266126667E-1,-7.604187012E-1,8.876541138E-1,3.868555298E0,4.041272884E0
8.365516667E-1,-8.635542297E-1,4.498146057E-1,2.748135223E0,2.915528476E0
8.464906666E-1,-5.128335571E-1,-6.391708374E-2,1.625020752E0,1.705220248E0
8.564296667E-1,-2.528242493E-1,-4.686753845E-1,5.983058167E-1,8.009660213E-1
8.663686667E-1,-4.117936707E-1,-8.872050476E-1,-1.077758789E-2,9.781732874E-1
8.763086667E-1,-4.724176025E-1,-1.019080811E0,-2.221380615E-1,1.145010658E0
8.862476667E-1,-3.487747192E-1,-9.581575012E-1,-3.162922668E-1,1.067590933E0
8.961866667E-1,-3.305126953E-1,-8.511300659E-1,-4.412823486E-1,1.014096219E0
9.061256667E-1,-2.424957275E-1,-7.180567932E-1,-3.112028503E-1,8.193027220E-1
9.160646667E-1,1.143621826E-1,-5.231620789E-1,-1.300794983E-1,5.510879652E-1
9.260036667E-1,2.501298523E-1,-4.731660461E-1,-9.131011963E-2,5.429443693E-1
9.359426667E-1,-2.903961182E-2,-3.532653809E-1,-2.508782959E-1,4.342575822E-1
9.458816666E-1,1.556762695E-2,7.708969116E-2,-4.119433594E-1,4.193834794E-1
9.558216667E-1,7.993377686E-2,2.796185303E-1,-5.275030518E-1,6.023581997E-1
9.657606666E-1,-5.403762817E-2,3.106040955E-1,-5.436694336E-1,6.284675190E-1
9.756996667E-1,-3.707789612E-1,2.999761963E-1,-3.978726196E-1,6.211001351E-1
9.856386667E-1,-8.768765259E-1,2.356100464E-1,-1.567240906E-1,9.214048926E-1
9.955776666E-1,-1.337768097E0,9.819580078E-2,1.080752563E-1,1.345713995E0
1.005516667E0,-1.478924561E0,6.945556641E-2,3.836521912E-1,1.529454457E0
1.015455667E0,-1.322200470E0,-1.332229614E-2,5.146298218E-1,1.418885274E0
1.025394667E0,-1.111289062E0,-7.634124756E-3,5.345384216E-1,1.233188138E0
1.035334667E0,-8.424481201E-1,9.385482788E-2,6.017486572E-1,1.039533073E0
1.045273667E0,-6.873706055E-1,1.143621826E-1,6.679110718E-1,9.652265319E-1
1.055212667E0,-5.873785400E-1,1.369651794E-1,8.957373047E-1,1.079869589E0
1.065151667E0,-6.002517700E-1,1.392105103E-1,1.148711243E0,1.303541051E0
1.075090667E0,-4.376898193E-1,1.288819885E-1,1.269659729E0,1.349154836E0
1.085029667E0,1.456471252E-1,1.405577087E-1,1.439706116E0,1.453864937E0
1.094968667E0,1.144669647E0,2.835104370E-1,1.697170715E0,2.066648302E0
1.104908667E0,2.139949951E0,4.216731262E-1,1.502126312E0,2.648315970E0
1.114847667E0,3.216062164E0,3.926335144E-1,1.766925659E0,3.690425884E0
1.124786667E0,4.760849762E0,1.841171265E-2,4.162094879E0,6.323690634E0
1.134725667E0,8.373587036E0,-7.765850830E-1,6.416706390E0,1.057800384E1
1.144664667E0,1.422746384E1,-1.444496155E0,5.694907379E0,1.539283166E1
1.154603667E0,1.936088882E1,8.226892090E-1,5.733676758E0,2.020880706E1
1.164542667E0,2.144380737E1,3.386557617E0,8.244854736E0,2.322247353E1
1.174481667E0,2.373105103E1,4.459975433E0,4.857099609E0,2.463017621E1
1.184421667E0,2.748973480E1,6.310577087E0,5.393134918E0,2.871575886E1
1.194360667E0,2.986739044E1,1.159473862E1,8.892557831E0,3.325021143E1
1.204299667E0,3.520948151E1,1.409858185E1,7.888296204E0,3.873890570E1
1.214238667E0,3.010913773E1,1.154893387E1,1.236967712E1,3.453906426E1
1.224177667E0,2.812905533E1,1.140044266E1,1.117501144E1,3.234338769E1
1.234116667E0,3.353117157E1,1.724713440E1,2.669398956E0,3.780117462E1
1.244055667E0,4.135330536E1,1.982881577E1,-4.457879791E0,4.607765718E1
1.253994667E0,3.788456863E1,1.667367691E1,2.063459015E0,4.144285108E1
1.263934667E0,2.760529449E1,1.117575989E1,4.743635559E0,3.015712141E1
1.273873667E0,2.484383698E1,8.042924652E0,1.674418030E0,2.616693617E1
1.283812667E0,2.149095932E1,6.712790680E0,2.611020355E0,2.266584034E1
1.293752375E0,1.813987793E1,5.124144287E0,1.218915253E0,1.888909157E1
1.303691375E0,1.533396286E1,5.114115143E0,3.186274109E0,1.647534319E1
1.313630375E0,1.273566605E1,4.665348358E0,4.702620850E0,1.435539299E1
1.323569375E0,1.025622208E1,3.977828064E0,4.764741669E0,1.198815960E1
1.333508375E0,7.710316315E0,3.238515472E0,3.868704987E0,9.214327887E0
1.343448375E0,5.497318268E0,2.971171417E0,3.515888672E0,7.170065612E0
1.353387375E0,3.438499603E0,2.971171417E0,3.647165680E0,5.826916561E0
1.363326375E0,1.383872223E0,2.786006470E0,3.570824432E0,4.735791539E0
1.373265375E0,1.260379028E-1,2.354453888E0,3.471431122E0,4.196447628E0
1.383204375E0,-9.154962158E-1,1.337768097E0,3.398083649E0,3.764934168E0
1.393143375E0,-1.558409271E0,5.230123901E-1,3.243904266E0,3.636632550E0
1.403082375E0,-1.925745392E0,-1.634600830E-1,3.015778656E0,3.581917840E0
1.413021375E0,-2.077829132E0,-8.849597168E-1,2.675985260E0,3.501631722E0
1.422961375E0,-2.294129333E0,-1.468596039E0,2.692151642E0,3.829815164E0
1.432900375E0,-2.402803345E0,-1.752405853E0,2.268682251E0,3.740495869E0
1.442839375E0,-1.923050995E0,-1.652563477E0,1.731898499E0,3.070596617E0
1.452778375E0,-5.050497437E-1,-9.451345825E-1,1.695374451E0,2.005654295E0
1.462717375E0,5.285508728E-1,2.748284912E-1,1.832788696E0,1.927176985E0
1.472656375E0,1.062191162E0,9.768685913E-1,1.935774536E0,2.414486563E0
1.482595375E0,8.756790161E-1,3.330574036E-1,1.416953430E0,1.698675365E0
1.492535375E0,4.613406372E-1,6.228547668E-1,4.348457336E-1,8.887485900E-1
1.502474375E0,-3.086581421E-1,9.776170349E-1,-8.307723999E-2,1.028545936E0
1.512413375E0,-5.460644531E-1,9.372010803E-1,-7.379653931E-2,1.087188200E0
1.522352375E0,-6.497987366E-1,8.488847351E-1,1.431024170E-1,1.078574056E0
1.532291375E0,-6.096821594E-1,8.707392883E-1,4.128414917E-1,1.140323349E0
1.542230375E0,-2.525248718E-1,7.219487000E-1,3.739224243E-1,8.513499373E-1
1.552169375E0,-7.798782349E-2,6.456074524E-1,3.164419556E-1,7.232057760E-1
1.562108375E0,5.583389282E-2,5.315446472E-1,3.137475586E-1,6.197537141E-1
1.572048375E0,1.767823792E-1,4.213737488E-1,3.469784546E-1,5.737611818E-1
1.581987375E0,1.945953369E-1,2.748284912E-1,4.343966675E-1,5.496348874E-1
1.591926375E0,1.121168518E-1,2.595602417E-1,4.308041382E-1,5.152998283E-1
1.601865375E0,6.286926270E-3,9.265731812E-2,3.836521912E-1,3.947327043E-1
1.611804375E0,-6.167175293E-2,-5.763015747E-2,3.097059631E-1,3.210022177E-1
1.621743375E0,-1.209484863E-1,-1.083746338E-1,2.954855347E-1,3.371725060E-1
1.631682375E0,-8.771759033E-2,-9.041198730E-2,2.740800476E-1,3.016431262E-1
1.641622375E0,3.008743286E-2,-2.215393066E-2,2.775228882E-1,2.800267911E-1
1.651561375E0,2.384541321E-1,3.592529297E-3,1.646575928E-1,2.898023503E-1
1.661500375E0,5.757028198E-1,-3.367996216E-2,1.136137390E-1,5.877721993E-1
1.671439375E0,1.433269501E0,-7.858657837E-2,1.011895752E-1,1.438984587E0
1.681378375E0,3.640130310E0,-2.832110596E-1,1.432521057E-1,3.653940112E0
1.691317375E0,8.603658600E0,-1.203497314E0,6.734495544E-1,8.713488474E0
1.701256375E0,1.677157333E1,-1.567989349E0,2.123334503E0,1.697800966E1
1.711195375E0,1.996488281E1,-3.936813354E-1,4.952451324E0,2.057372851E1
1.721135375E0,1.027283752E1,3.392844543E0,2.438189758E1,2.667432313E1
1.731074375E0,2.365680542E1,7.753276978E0,1.522244476E1,2.918014001E1
1.741013375E0,3.124033539E1,9.301507416E0,8.307125244E0,3.363755231E1
1.750952375E0,3.290113174E1,1.008228378E1,1.214664093E1,3.649216083E1
1.760891375E0,3.481340515E1,1.091021210E1,9.766440582E0,3.776756900E1
1.770830375E0,2.870116562E1,1.210382996E1,9.969418488E0,3.270548750E1
1.780769375E0,2.638039169E1,1.564097443E1,1.458941116E1,3.396197970E1
1.790708375E0,3.901097626E1,2.014286270E1,1.316661987E1,4.583613275E1
1.800648375E0,4.196628067E1,1.853700211E1,7.136260071E0,4.642968197E1
1.810587375E0,2.950200027E1,1.599543732E1,-6.299949188E0,3.414544472E1
1.820526375E0,2.117616394E1,1.259271332E1,9.741891632E0,2.649359924E1
1.830465375E0,2.172806625E1,1.051563263E1,8.362210693E0,2.554631011E1
1.840404375E0,1.810709610E1,7.987539825E0,2.412982178E0,1.993715638E1
1.850343375E0,1.616772903E1,6.843169556E0,1.289568329E0,1.760361946E1
1.860282375E0,1.398197433E1,5.962700500E0,2.723286896E0,1.544233451E1
1.870221375E0,1.195878159E1,5.011428680E0,4.109554138E0,1.360203329E1
1.880161375E0,8.928483124E0,3.652404785E0,5.078189850E0,1.090164592E1
1.890100375E0,7.101831665E0,3.193608856E0,4.621788940E0,9.055168885E0
1.900039375E0,5.368735657E0,2.908152466E0,4.688699799E0,7.698349116E0
1.909978375E0,3.518433380E0,2.464026031E0,4.968318329E0,6.567722950E0
1.919917375E0,2.222578125E0,2.590662689E0,4.523443451E0,5.666826920E0
1.929856375E0,8.204438782E-1,2.298919373E0,4.482728119E0,5.104214908E0
1.939795375E0,-9.580078125E-3,1.692829742E0,3.679498444E0,4.050243587E0
1.949734375E0,-4.396357727E-1,1.083896027E0,2.673739929E0,2.918389182E0
1.959674375E0,-9.765692139E-1,6.780899048E-1,1.862427063E0,2.209553782E0
1.969613375E0,-1.561702423E0,1.082249451E-1,9.053173828E-1,1.808376803E0
1.979552375E0,-1.539847870E0,-2.833607483E-1,3.035687256E-1,1.594860103E0
1.989491375E0,-1.473535767E0,-6.071374512E-1,1.332229614E-2,1.593769439E0
1.999430375E0,-1.544488220E0,-8.399034119E-1,4.550537109E-2,1.758679147E0
2.009369375E0,-1.420545959E0,-1.138682098E0,1.713935852E-1,1.828639796E0
2.019308375E0,-1.149609375E0,-1.344953156E0,3.754193115E-1,1.808712350E0
2.029247375E0,-5.081932068E-1,-1.526226196E0,4.809498596E-1,1.678969775E0
2.039187375E0,2.853067017E-1,-1.716480560E0,6.325845337E-1,1.851450410E0
2.049126375E0,8.646020508E-1,-1.409918060E0,8.024812317E-1,1.838309487E0
2.059065375E0,7.159611511E-1,-1.365460510E0,1.203647003E0,1.955977731E0
2.069004375E0,6.406677246E-2,-1.097966766E0,1.265917511E0,1.676956385E0
2.078943375E0,-2.526745605E-1,-3.499722290E-1,7.692503357E-1,8.820833711E-1
2.088882375E0,3.053649902E-2,1.347198486E-1,5.081932068E-1,5.266329375E-1
2.098821375E0,9.175918579E-2,2.742297363E-1,3.746708679E-1,4.732863359E-1
2.108760375E0,-7.095245361E-2,4.019142151E-1,3.168910217E-1,5.167099831E-1
2.118700375E0,-3.278182983E-1,4.959187317E-1,3.917353821E-1,7.119387858E-1
2.128639375E0,-5.484594727E-1,3.872447205E-1,4.846920776E-1,8.280656235E-1
2.138578375E0,-3.388952637E-1,3.806584167E-1,5.388793945E-1,7.417154655E-1
2.148517375E0,-2.439926147E-1,3.394940186E-1,4.571493530E-1,6.194950489E-1
2.158456375E0,-2.559677124E-2,3.282673645E-1,5.731581116E-1,6.610029335E-1
2.168395375E0,1.282832336E-1,2.755769348E-1,5.758525085E-1,6.511569293E-1
2.178334375E0,2.140548706E-1,2.065704346E-1,5.806425476E-1,6.524083079E-1
2.188273375E0,2.504292297E-1,1.712438965E-1,6.360273743E-1,7.046772964E-1
2.198213375E0,4.279600525E-1,1.932481384E-1,7.502398682E-1,8.850731661E-1
2.208152375E0,6.686595154E-1,2.082170105E-1,8.518785095E-1,1.102795024E0
2.218091375E0,1.332528992E0,2.335144043E-1,8.613088989E-1,1.603750451E0
2.228030375E0,2.733465729E0,3.519181824E-1,1.225202179E0,3.016090462E0
2.237969375E0,5.827980652E0,1.040635986E0,2.507735138E0,6.429387005E0
2.247908375E0,1.091724747E1,2.316732330E0,4.852309570E0,1.216957062E1
2.257847375E0,1.435874084E1,3.716770935E0,8.481063538E0,1.708555716E1
2.267786375E0,1.744681915E1,5.168452148E0,9.452693024E0,2.050506770E1
2.277726375E0,2.257410690E1,6.012846222E0,7.496560822E0,2.453452764E1
2.287665250E0,2.870430908E1,5.778283997E0,5.328319702E0,2.976099657E1
2.297604250E0,3.095023865E1,5.144052887E0,5.465135193E0,3.184723308E1
2.307543250E0,3.126009430E1,7.906857605E0,6.297105103E0,3.285369729E1
2.317482250E0,2.824251938E1,1.082414108E1,6.097270660E0,3.085415111E1
2.327421250E0,2.817007004E1,1.329864532E1,8.503067780E0,3.229100455E1
2.337360250E0,3.195644623E1,1.955743011E1,4.517006836E0,3.773739364E1
2.347299250E0,3.677522552E1,2.406605438E1,-6.525380402E0,4.443166411E1
2.357239250E0,3.434472977E1,2.031874695E1,-3.099604340E0,4.002523563E1
2.367178250E0,2.695534607E1,1.280976196E1,5.596711578E0,3.036451652E1
2.377117250E0,2.418864944E1,9.145831146E0,2.714155884E0,2.600199284E1
2.387056250E0,2.113874176E1,8.156239014E0,9.216334534E-1,2.267642049E1
2.396995250E0,1.925640610E1,7.335346069E0,6.027964783E-1,2.061503920E1
2.406934250E0,1.776835052E1,6.482569427E0,2.034868469E0,1.902310901E1
2.416873250E0,1.608420273E1,5.547463989E0,3.124602356E0,1.729852809E1
2.426812250E0,1.389425674E1,4.601580963E0,3.790118408E0,1.511919030E1
2.436752250E0,1.146720383E1,3.538940735E0,4.148323517E0,1.269761604E1
2.446691250E0,1.005249573E1,3.125051422E0,4.503235474E0,1.144979242E1
2.456630250E0,8.777147827E0,2.584076385E0,4.223018188E0,1.007718499E1
2.466569250E0,7.391778717E0,1.722468109E0,3.741768951E0,8.462040172E0
2.476508250E0,5.433850250E0,6.195616150E-1,3.988905029E0,6.769191124E0
2.486447250E0,3.143014069E0,4.864883423E-2,3.590433655E0,4.772014037E0
2.496386250E0,1.340612183E0,-5.354365540E-1,2.736010437E0,3.093490979E0
2.506325250E0,8.244854736E-1,-1.465452576E-1,1.595382385E0,1.801803753E0
2.516265250E0,3.324586487E-1,1.163081360E-1,1.898951111E0,1.931339343E0
2.526204250E0,-1.053808594E-1,-1.203497314E-1,2.455793152E0,2.460997600E0
2.536143250E0,-4.153862000E-1,-5.965095520E-1,2.816992035E0,2.909263389E0
2.546082250E0,-1.070573730E0,-8.999285889E-1,2.311343536E0,2.701538177E0
2.556021250E0,-1.921554108E0,-1.227746887E0,2.593357086E0,3.453293151E0
2.565960250E0,-1.782493286E0,-1.215622101E0,2.791994019E0,3.528491180E0
2.575899250E0,-1.346150665E0,-9.743238831E-1,2.799628143E0,3.255663739E0
2.585838250E0,-5.980064392E-1,-5.560935974E-1,2.960992584E0,3.071535263E0
2.595778250E0,1.457968140E-1,-9.385482788E-2,2.561174011E0,2.567036766E0
2.605717250E0,4.056564331E-2,-1.975891113E-2,1.291963348E0,1.292751051E0
2.615656250E0,1.402583313E-1,2.140548706E-2,5.712121582E-1,5.885693876E-1
2.625595250E0,1.580712891E-1,7.903564453E-2,3.219804382E-1,3.672935721E-1
2.635534250E0,1.737886047E-1,-7.738906860E-2,3.327580261E-1,3.833007318E-1
2.645473250E0,2.495310974E-1,-1.577719116E-1,6.176156616E-1,6.845486470E-1
2.655412250E0,1.207987976E-1,-3.532653809E-1,1.004261627E0,1.071415043E0
2.665351250E0,2.755769348E-1,-5.210664368E-1,1.084644470E0,1.234466081E0
2.675291250E0,3.430865479E-1,-5.978567505E-1,1.172212372E0,1.359861360E0
2.685230250E0,1.546284485E-1,-8.530760193E-1,1.372495880E0,1.623389538E0
2.695169250E0,-1.252894592E-1,-9.116043091E-1,1.576671295E0,1.825544368E0
2.705108250E0,-2.335144043E-2,-8.074209595E-1,1.520238647E0,1.721510802E0
2.715047250E0,1.796264648E-3,-7.002438354E-1,1.512305145E0,1.666556782E0
2.724986250E0,-1.264869690E-1,-6.035449219E-1,1.416055298E0,1.544499282E0
2.734925250E0,-1.597178650E-1,-4.480183411E-1,1.421893158E0,1.499336648E0
2.744865250E0,5.748046875E-2,-3.297642517E-1,1.080004120E0,1.130688890E0
2.754804250E0,4.212240601E-1,-2.080673218E-1,6.652166748E-1,8.143923769E-1
2.764743250E0,8.382568359E-1,-9.669891357E-2,4.484674072E-1,9.555878914E-1
2.774682250E0,1.729503479E0,-1.636097717E-1,3.829037476E-1,1.778922629E0
2.784621250E0,3.766916656E0,-3.984713745E-1,4.430786133E-1,3.813759194E0
2.794560250E0,6.651118927E0,-4.529580688E-1,1.135388947E0,6.762518913E0
2.804499250E0,9.844129028E0,4.790039062E-1,2.399510193E0,1.014366651E1
2.814438250E0,1.430575104E1,2.488125916E0,3.392245789E0,1.491149271E1
2.824378250E0,1.905013504E1,3.993395691E0,5.456303558E0,2.021450229E1
2.834317250E0,2.483425690E1,6.104455719E0,8.321944427E0,2.689348349E1
2.844256250E0,3.158192505E1,9.962682495E0,1.143292511E1,3.503405213E1
2.854195250E0,3.446313354E1,1.365475479E1,1.306049057E1,3.930313367E1
2.864134250E0,3.241569122E1,1.494282623E1,9.998158722E0,3.706788733E1
2.874073250E0,2.676658859E1,1.494626907E1,1.208452011E1,3.295264558E1
2.884012250E0,2.912643127E1,1.528501465E1,1.411414948E1,3.579371295E1
2.893951250E0,3.815715179E1,2.004451721E1,6.789880371E0,4.363316833E1
2.903891250E0,4.563440277E1,2.085148911E1,1.260678406E1,5.173214009E1
2.913830250E0,3.189252914E1,1.369082977E1,1.249002686E1,3.688594591E1
2.923769250E0,1.766686157E1,7.834408264E0,-6.631210327E-2,1.932615709E1
2.933708250E0,1.883967270E1,8.610244904E0,5.970933380E0,2.155740314E1
2.943647250E0,2.055076447E1,1.013078293E1,5.275928650E0,2.351174400E1
2.953586250E0,1.787223450E1,7.966134338E0,-8.158035278E-1,1.958421808E1
2.963525250E0,1.495210693E1,6.604715424E0,1.206042023E0,1.639031131E1
2.973464250E0,1.205697739E1,4.815785522E0,5.192851410E0,1.398313984E1
2.983404250E0,9.145831146E0,3.304079132E0,5.796096954E0,1.132068488E1
2.993343250E0,7.042255554E0,2.581681366E0,5.751190338E0,9.451699967E0
3.003282250E0,5.112169189E0,1.696272583E0,5.625302124E0,7.788172988E0
3.013221250E0,3.233276367E0,6.722520447E-1,5.664819946E0,6.557147543E0
3.023160250E0,1.906884613E0,-1.422042847E-2,5.192102966E0,5.531215451E0
3.033099250E0,6.077362061E-1,-2.842588806E-1,4.447551270E0,4.497872686E0
3.043038250E0,-9.680369568E-1,-5.899232483E-1,4.037553864E0,4.193679314E0
3.052977250E0,-1.466350708E0,-6.336323547E-1,3.008144531E0,3.405966512E0
3.062917250E0,-1.216969299E0,-7.430548096E-1,2.058219910E0,2.503879774E0
3.072856250E0,-1.307530975E0,-1.036444702E0,1.591191101E0,2.305589728E0
3.082795250E0,-1.599274292E0,-1.540296936E0,1.231040039E0,2.538828960E0
3.092734250E0,-1.594633942E0,-1.513652344E0,1.043031006E0,2.433498409E0
3.102673250E0,-1.663041687E0,-1.416204987E0,1.046623535E0,2.422140591E0
3.112612250E0,-1.764530640E0,-1.357377319E0,9.825567627E-1,2.433404890E0
3.122551250E0,-1.430275726E0,-7.774832153E-1,8.461903381E-1,1.834722565E0
3.132490250E0,-5.914201355E-1,-1.178050232E-1,1.033001862E0,1.196139058E0
3.142430250E0,1.000220032E0,5.960604858E-1,1.347797241E0,1.781091131E0
3.152369250E0,5.331912231E-1,2.969824219E-1,1.028660889E0,1.196091411E0
3.162308250E0,9.505233765E-2,3.577560425E-2,2.484832764E-2,1.045575446E-1
3.172247250E0,2.559677124E-1,7.005432129E-2,-7.354206848E-1,7.818380020E-1
3.182186250E0,2.145039368E-1,1.718426514E-1,-8.843609619E-1,9.260864682E-1
3.192125250E0,-5.388793945E-2,5.203179932E-1,-6.563850403E-1,8.393307126E-1
3.202064250E0,-4.647834778E-1,5.391787720E-1,-3.118016052E-1,7.771471356E-1
3.212003250E0,-7.734416199E-1,6.574328613E-1,1.791773987E-1,1.030793115E0
3.221943250E0,-7.247927856E-1,5.432203674E-1,6.381230164E-1,1.107977407E0
3.231882250E0,-5.463638306E-1,3.421884155E-1,9.252259827E-1,1.127674362E0
3.241821250E0,-1.044827271E-1,-1.930984497E-2,9.687854004E-1,9.745946144E-1
3.251760250E0,2.555186462E-1,-1.508862305E-1,8.081694031E-1,8.609263715E-1
3.261699250E0,3.547622681E-1,-9.235794067E-2,9.135502625E-1,9.843578303E-1
3.271638250E0,2.017803955E-1,-2.305206299E-1,1.342707825E0,1.377214359E0
3.281577250E0,-3.284170532E-1,-6.535409546E-1,2.342329102E0,2.453870241E0
3.291516292E0,-9.304650879E-1,-9.851014709E-1,3.181633759E0,3.458176335E0
3.301456292E0,1.646575928E-3,-8.653504944E-1,1.986069946E0,2.166404399E0
3.311395292E0,1.593885498E0,-5.746549988E-1,1.009351044E0,1.972178713E0
3.321334292E0,3.219205627E0,-3.751199341E-1,1.035995636E0,3.402541226E0
3.331273292E0,4.813390503E0,-4.855902100E-1,2.323318634E0,5.366780735E0
3.341212292E0,6.898554382E0,-2.778222656E-1,4.395459595E0,8.184577132E0
3.351151292E0,1.206790466E1,1.521735535E0,3.525319061E0,1.266403871E1
3.361090292E0,1.591221039E1,4.366869049E0,5.069058838E0,1.726161471E1
3.371030292E0,1.852382950E1,5.090763702E0,5.698350220E0,2.003794724E1
3.380969292E0,2.314322342E1,5.477409668E0,3.609444122E0,2.405491413E1
3.390908292E0,2.737896515E1,6.840325470E0,4.805007935E0,2.862666391E1
3.400847292E0,3.469185791E1,9.065148926E0,7.744445343E0,3.668348898E1
3.410786292E0,3.696248611E1,1.103909409E1,6.541546783E0,3.912644646E1
3.420725292E0,2.848396729E1,1.056877213E1,9.048982544E0,3.170046406E1
3.430664292E0,2.674772781E1,1.094464050E1,8.247848511E-1,2.891204540E1
3.440603292E0,3.228366577E1,1.801773193E1,-4.836143188E0,3.728621757E1
3.450543292E0,4.383529404E1,2.173884384E1,3.500919800E0,4.905473244E1
3.460482292E0,3.804144241E1,1.569082077E1,2.826572113E0,4.124733576E1
3.470421292E0,2.637335632E1,9.868228912E0,5.891748047E0,2.876888181E1
3.480360292E0,2.302092773E1,8.569230194E0,3.351829834E0,2.479172408E1
3.490299292E0,2.020438477E1,7.505841522E0,4.538562012E-1,2.155831177E1
3.500238292E0,1.674447968E1,6.527476044E0,2.927911377E-1,1.797418342E1
3.510177292E0,1.477352829E1,6.676116943E0,2.747686157E0,1.644315830E1
3.520116292E0,1.165521286E1,5.861510925E0,3.364104309E0,1.347287998E1
3.530056292E0,8.499175873E0,5.135520630E0,3.709585876E0,1.060049952E1
3.539995292E0,6.618037720E0,4.468058624E0,3.619772644E0,8.767252998E0
3.549934292E0,4.710254974E0,3.559897156E0,3.901786194E0,7.076955927E0
3.559873292E0,3.024610291E0,2.826422424E0,4.592449951E0,6.182841392E0
3.569812292E0,1.778601379E0,1.529070282E0,5.010979614E0,5.532756590E0
3.579751292E0,9.089099121E-1,2.887495422E-1,4.681365051E0,4.777517375E0
3.589690292E0,-3.068618774E-2,-1.042731628E0,4.231400757E0,4.358093993E0
3.599629292E0,-8.916957092E-1,-1.981728973E0,3.231779480E0,3.894453693E0
3.609569292E0,-1.460961914E0,-2.567610626E0,2.387385406E0,3.798242109E0
3.619508292E0,-2.051783295E0,-2.993624725E0,2.701432343E0,4.524305514E0
3.629447292E0,-2.471959534E0,-3.076552277E0,2.889141998E0,4.891104102E0
3.639386292E0,-2.439177704E0,-2.698887634E0,3.535198517E0,5.072594098E0
3.649325292E0,-5.092410278E-1,-1.421294403E0,4.124672699E0,4.392303391E0
3.659264292E0,4.198768616E-1,-2.709365845E-1,3.423530731E0,3.459807203E0
3.669203292E0,-2.398013306E-1,1.448986816E-1,2.660567322E0,2.675279197E0
3.679142292E0,1.305285645E-1,3.417393494E-1,1.709145813E0,1.747856659E0
3.689082292E0,1.293310547E-1,7.408094788E-1,1.027762756E0,1.273507554E0
3.699021292E0,3.447331238E-1,1.049766998E0,3.212319946E-1,1.150670097E0
3.708960292E0,5.882766724E-1,1.146914978E0,-1.540296936E-1,1.298155829E0
3.718899292E0,6.412664795E-1,1.416354675E0,-5.450166321E-1,1.647521288E0
3.728838292E0,3.983216858E-1,1.492695923E0,-6.607260132E-1,1.680285734E0
3.738777292E0,6.153703308E-1,1.382525024E0,-7.406597900E-1,1.684824327E0
3.748716292E0,5.078938293E-1,1.507515106E0,-2.888992310E-2,1.591035061E0
3.758656292E0,2.484832764E-2,1.083446960E0,1.483415222E-1,1.093837265E0
3.768595292E0,6.735992432E-2,8.042774963E-1,2.070195007E-1,8.332206936E-1
3.778534292E0,6.885681152E-3,3.628454590E-1,2.562670898E-1,4.442713822E-1
3.788473292E0,2.499801636E-2,2.275268555E-2,5.218148804E-1,5.229085531E-1
3.798412292E0,-7.888595581E-2,-2.996768188E-1,1.180145874E0,1.220153053E0
3.808351292E0,-2.859054565E-1,-5.929170227E-1,1.961820374E0,2.069307059E0
3.818290292E0,-2.655477905E-1,-7.752378845E-1,2.426454163E0,2.561091410E0
3.828229292E0,-1.134640503E-1,-9.894424438E-1,2.514171753E0,2.704242971E0
3.838169292E0,-2.933898926E-2,-1.058748322E0,2.373164978E0,2.598792181E0
3.848108292E0,5.670208740E-1,-1.040935364E0,2.468965759E0,2.738768158E0
3.858047292E0,2.144290924E0,-7.107220459E-1,2.713257751E0,3.530563272E0
3.867986292E0,5.176385651E0,2.095642090E-2,3.072061615E0,6.019382871E0
3.877925292E0,8.237969055E0,1.414558411E0,3.849095764E0,9.202208857E0
3.887864292E0,1.107771378E1,3.724405060E0,4.310586090E0,1.245664834E1
3.897803292E0,1.406505157E1,5.652695160E0,3.166365509E0,1.548562265E1
3.907742292E0,1.750370087E1,7.162904663E0,1.927541656E0,1.901058032E1
3.917682292E0,2.418670349E1,8.943302307E0,1.915416870E0,2.585823087E1
3.927621292E0,3.362023636E1,1.039872574E1,6.993756409E0,3.587988877E1
3.937560292E0,3.969909531E1,1.183663559E1,1.127200974E1,4.293229919E1
3.947499292E0,3.202934464E1,1.075064392E1,9.107660522E0,3.499149529E1
3.957438292E0,2.495176254E1,1.012120285E1,-6.447093201E0,2.768743780E1
3.967377292E0,2.723765900E1,1.629676071E1,-1.322814194E1,3.438689018E1
3.977316292E0,4.118505524E1,2.225631775E1,-4.323010254E-1,4.681601584E1
3.987255292E0,3.750091644E1,1.681962341E1,-1.893562317E-1,4.110053919E1
3.997195292E0,2.650762711E1,1.160327087E1,2.469863892E-1,2.893702113E1
4.007134292E0,2.534888672E1,1.097742233E1,2.386786652E0,2.772664079E1
4.017073292E0,2.079326019E1,8.938811646E0,-5.240602112E-1,2.263927256E1
4.027012292E0,1.708487183E1,7.956105194E0,9.713301086E-1,1.887156425E1
4.036951292E0,1.735146744E1,7.828720093E0,2.061363373E0,1.914710159E1
4.046890292E0,1.488624390E1,6.688541107E0,1.917213135E0,1.643205847E1
4.056829292E0,1.202045334E1,6.242768097E0,2.267634430E0,1.373337606E1
4.066768292E0,1.039124130E1,5.723946991E0,3.090473328E0,1.225938377E1
4.076708292E0,8.650211792E0,4.823419647E0,4.701722717E0,1.096347288E1
4.086647292E0,7.156617737E0,3.655847626E0,3.979025574E0,8.967443549E0
4.096586292E0,5.310656433E0,2.146685944E0,3.273692322E0,6.597605149E0
4.106525292E0,3.294199677E0,8.590635681E-1,2.783012695E0,4.397146960E0
4.116464292E0,1.758842468E0,4.108955383E-1,2.269281006E0,2.900344506E0
4.126403292E0,4.400848389E-1,-6.436614990E-3,1.934427338E0,1.983866230E0
4.136342292E0,-1.253493347E0,-3.635939026E-1,2.271376648E0,2.619656079E0
4.146281292E0,-3.011737061E0,-7.138655090E-1,2.452050934E0,3.948761561E0
4.156221292E0,-3.744463348E0,-4.674778748E-1,1.803000641E0,4.182146894E0
4.166160292E0,-3.751199341E0,-2.736309814E-1,1.811233521E0,4.174558333E0
4.176099292E0,-2.596949615E0,4.790039063E-2,2.504741364E0,3.608347413E0
4.186038292E0,-1.409618683E0,7.333250427E-1,2.326312408E0,2.817182967E0
4.195977292E0,-4.031117249E-1,1.444645844E0,1.772164764E0,2.321652133E0
4.205916292E0,2.401007080E-1,2.020348663E0,2.196831665E0,2.994248893E0
4.215855292E0,6.503974915E-1,1.887574768E0,2.158960419E0,2.940589310E0
4.225794292E0,9.134005737E-1,1.832339630E0,1.724114685E0,2.676628584E0
4.235734292E0,7.310797119E-1,1.424138489E0,1.396296387E0,2.124215521E0
4.245673292E0,5.164260864E-1,7.201524353E-1,1.169967041E0,1.467698303E0
4.255612292E0,7.023394775E-1,1.055305481E-1,1.058448944E0,1.274649601E0
4.265551292E0,4.778063965E-1,3.442840576E-2,9.015751648E-1,1.020941744E0
4.275490292E0,5.598358154E-2,-3.667373657E-2,5.204676819E-1,5.247530202E-1
4.285429292E0,-7.020401001E-2,5.643264771E-2,1.525328064E-1,1.771426086E-1
4.295368500E0,-6.137237549E-2,1.666035461E-1,2.821632385E-1,3.333757688E-1
4.305307500E0,-1.875599670E-1,2.472857666E-1,5.342390442E-1,6.178513963E-1
4.315247500E0,3.650907898E-1,3.387455750E-1,4.713697815E-1,6.857326886E-1
4.325186500E0,4.897814941E-1,3.305126953E-1,5.237608337E-1,7.895884781E-1
4.335125500E0,3.553610229E-1,1.812730408E-1,7.574249268E-1,8.560571778E-1
4.345064500E0,1.454974365E-1,-8.592132568E-2,8.719367981E-1,8.881586334E-1
4.355003500E0,-4.218228149E-1,-2.519261169E-1,9.316625977E-1,1.053278905E0
4.364942500E0,-5.888754272E-1,-2.305206299E-1,9.810598755E-1,1.167215708E0
4.374881500E0,3.183879089E-1,1.266366577E-1,1.102008362E0,1.154049450E0
4.384821500E0,1.641336823E0,3.712280273E-1,1.070274353E0,1.994312915E0
4.394760500E0,2.941832428E0,5.436694336E-1,9.840536499E-1,3.149335815E0
4.404699500E0,4.690196686E0,9.930349731E-1,1.468745728E0,5.014107839E0
4.414638500E0,7.722740479E0,1.928290100E0,2.360890503E0,8.302579549E0
4.424577500E0,1.149818939E1,2.964285736E0,3.070864105E0,1.226480964E1
4.434516500E0,1.427162201E1,4.164190521E0,3.612437897E0,1.529932629E1
4.444455500E0,1.662906967E1,5.650599518E0,2.832559662E0,1.778984619E1
4.454394500E0,2.172192902E1,7.591463470E0,2.257605286E0,2.312075473E1
4.464334500E0,3.215134094E1,9.425749054E0,4.911885681E0,3.386266514E1
4.474273500E0,3.917967545E1,1.120629639E1,6.405180359E0,4.125111371E1
4.484212500E0,3.852942764E1,1.301723053E1,9.129664764E0,4.168112119E1
4.494151500E0,3.034923843E1,1.528336807E1,4.892276459E0,3.433062746E1
4.504090500E0,2.387370438E1,1.555146057E1,2.892734528E0,2.863860331E1
4.514029500E0,3.754896652E1,1.927646439E1,4.477189636E-1,4.221027622E1
4.523968500E0,4.483521469E1,1.576566513E1,-1.272354126E0,4.754336503E1
4.533907500E0,2.696597397E1,1.040441391E1,-3.963008881E0,2.917397848E1
4.543847500E0,2.295416656E1,9.990973663E0,3.417543182E0,2.526643859E1
4.553786500E0,2.251004013E1,9.882449341E0,4.641697540E0,2.501819473E1
4.563725500E0,1.996832565E1,8.800349579E0,8.385562134E-1,2.183765918E1
4.573664500E0,1.547601746E1,7.179370422E0,8.399034119E-1,1.708086396E1
4.583603500E0,1.184471878E1,5.800886993E0,2.660417633E0,1.345457078E1
4.593542500E0,1.098760117E1,4.553530884E0,2.706671448E0,1.219787249E1
4.603481500E0,8.773106232E0,2.670446777E0,3.225492554E0,9.721238664E0
4.613420500E0,6.396199036E0,1.688638458E0,2.575843506E0,7.099143027E0
4.623360500E0,4.750371552E0,1.034798126E0,3.431763611E0,5.950952741E0
4.633299500E0,3.679648132E0,1.031355286E-1,5.002447357E0,6.210871668E0
4.643238500E0,2.718796234E0,-6.598278809E-1,6.118376770E0,6.727686088E0
4.653177500E0,1.810485077E0,-1.098864899E0,6.034551086E0,6.395402028E0
4.663116500E0,6.694079590E-1,-1.268611908E0,4.916825409E0,5.121782433E0
4.673055500E0,-2.942880249E-1,-9.960287476E-1,2.762355652E0,2.951150192E0
4.682994500E0,-1.082399139E0,-8.518785095E-1,1.385369110E0,1.953594754E0
4.692933500E0,-1.574575653E0,-8.288264465E-1,8.213420105E-1,1.959807252E0
4.702873500E0,-2.173629913E0,-9.639953613E-1,6.496490479E-1,2.464953943E0
4.712812500E0,-3.023113403E0,-5.647755432E-1,1.256636810E0,3.322246550E0
4.722751500E0,-2.898871765E0,2.531236267E-1,2.116448822E0,3.598177969E0
4.732690500E0,-4.649331665E-1,1.052311707E0,3.326831818E0,3.520132486E0
4.742629500E0,6.007008362E-1,1.240470428E0,2.996169434E0,3.297975084E0
4.752568500E0,1.167572021E-1,9.283694458E-1,1.246008911E0,1.558217019E0
4.762507500E0,2.362088013E-1,8.626560974E-1,5.842350769E-1,1.068316791E0
4.772446500E0,5.388793945E-1,5.499563599E-1,5.757028198E-1,9.613931227E-1
4.782386500E0,6.057902527E-1,3.957769775E-1,4.725672913E-1,8.642575374E-1
4.792325500E0,6.099815369E-1,3.204835510E-1,4.526586914E-1,8.244313632E-1
4.802264500E0,6.126759338E-1,3.197351074E-1,3.716770935E-1,7.846949730E-1
4.812203500E0,5.664221191E-1,3.147953796E-1,3.248245239E-1,7.248731747E-1
4.822142500E0,3.134481812E-1,2.797682190E-1,2.131567383E-1,4.711218671E-1
4.832081500E0,1.095721436E-1,3.421884155E-1,3.481759644E-1,5.003253627E-1
4.842020500E0,1.601669312E-1,2.339634705E-1,6.972500610E-1,7.526951567E-1
4.851959500E0,1.484912109E-1,-3.682342529E-2,7.524851990E-1,7.678799249E-1
4.861899500E0,-4.745132446E-2,-1.047821045E-1,8.240364075E-1,8.320257919E-1
4.871838500E0,-6.795867920E-2,-1.437011719E-1,8.896000671E-1,9.036905933E-1
4.881777500E0,-1.841171265E-2,-1.139131165E-1,1.084943848E0,1.091062941E0
4.891716500E0,9.490264893E-2,1.975891113E-2,1.150806885E0,1.154882424E0
4.901655500E0,1.236428833E-1,3.727249146E-2,1.064735870E0,1.072538706E0
4.911594500E0,3.367996216E-1,7.259902954E-2,9.476792908E-1,1.008365332E0
4.921533500E0,9.470805359E-1,1.481918335E-2,1.197958832E0,1.527182541E0
4.931472500E0,1.948348389E0,-2.993774414E-3,1.607806549E0,2.526086361E0
4.941412500E0,4.919220428E0,3.278182983E-1,1.845661926E0,5.264281756E0
4.951351500E0,1.207568848E1,1.335223389E0,3.060834961E0,1.252891792E1
4.961290500E0,1.756178009E1,3.044069824E0,5.664670258E0,1.870216485E1
4.971229500E0,1.768751862E1,4.552932129E0,7.115153961E0,1.960109491E1
4.981168500E0,2.103021744E1,6.105653229E0,3.296145630E0,2.214528444E1
4.991107500E0,2.425002182E1,6.987619171E0,3.590283966E0,2.549079283E1
5.001046500E0,2.854953094E1,8.000113678E0,4.857398987E0,3.004449801E1
5.010985500E0,3.214535339E1,1.040246796E1,1.761087799E0,3.383247722E1
5.020925500E0,2.946367996E1,1.280616943E1,1.853894806E0,3.217985920E1
5.030864500E0,2.979015106E1,1.502680161E1,3.816763000E0,3.358311401E1
5.040803500E0,3.022364960E1,1.518786667E1,6.220614166E0,3.439238767E1
5.050742500E0,3.834067017E1,1.742960495E1,1.146540756E1,4.364921177E1
5.060681500E0,4.132276886E1,1.395024033E1,6.578220520E0,4.410729437E1
5.070620500E0,2.811154175E1,9.636810150E0,-3.907474365E0,2.997324215E1
5.080559500E0,1.922287582E1,7.909851379E0,9.909393311E-2,2.078688345E1
5.090498500E0,1.932496353E1,7.278763733E0,7.613467712E0,2.200907784E1
5.100438500E0,1.985755600E1,7.797285461E0,2.569706268E0,2.148775421E1
5.110377500E0,1.743813721E1,6.625073090E0,1.965861969E0,1.875752745E1
5.120316500E0,1.427132263E1,5.050946503E0,3.452420654E0,1.552745693E1
5.130255500E0,1.196940948E1,4.118984528E0,4.002975769E0,1.327616707E1
5.140194500E0,9.050778809E0,3.018622742E0,5.094356232E0,1.081578225E1
5.150133500E0,6.177952881E0,2.334096222E0,6.280639343E0,9.113810264E0
5.160072500E0,4.266128540E0,1.573527832E0,5.309309235E0,6.990322389E0
5.170011500E0,3.364253998E0,1.192120972E0,4.612957306E0,5.832557970E0
5.179951500E0,2.038610687E0,8.845106506E-1,5.431604919E0,5.868613518E0
5.189890500E0,1.480870514E0,9.018745422E-1,5.194348297E0,5.476094356E0
5.199829500E0,5.858816528E-1,5.568420410E-1,4.422104187E0,4.495368262E0
5.209768500E0,-5.583389282E-2,8.547225952E-2,2.833457794E0,2.835296458E0
5.219707500E0,-7.342231750E-1,-6.622229004E-1,1.851050720E0,2.098573708E0
5.229646500E0,-1.292562103E0,-1.292113037E0,1.449435883E0,2.332624545E0
5.239585500E0,-1.537901917E0,-1.633103943E0,1.302890625E0,2.594165526E0
5.249524500E0,-1.942510529E0,-1.894759827E0,2.160606995E0,3.468671870E0
5.259464500E0,-1.877845001E0,-1.310375061E0,2.512674866E0,3.399546974E0
5.269403500E0,-1.176253967E0,-3.266207886E-1,2.006427612E0,2.348617955E0
5.279342500E0,9.220825195E-2,5.480104065E-1,1.284329224E0,1.399399629E0
5.289281500E0,4.245172119E-1,7.699987793E-1,1.362167358E-1,8.897572604E-1
5.299220167E0,5.233117676E-1,8.722361755E-1,-5.448669434E-1,1.153919901E0
5.309159167E0,5.420228577E-1,6.590794373E-1,-6.512956238E-1,1.073480541E0
5.319098167E0,4.323010254E-1,4.972659302E-1,-7.409591675E-1,9.915533620E-1
5.329037167E0,5.469625854E-1,2.854563904E-1,-3.811074829E-1,7.251871029E-1
5.338976167E0,5.372328186E-1,1.895059204E-1,1.329235840E-1,5.849788667E-1
5.348916167E0,2.993774414E-1,1.456471252E-1,5.828878784E-1,6.712661293E-1
5.358855167E0,3.805087280E-1,-7.274871826E-2,6.800358582E-1,7.826417038E-1
5.368794167E0,5.771997070E-1,-5.617817688E-1,8.270301819E-1,1.154442367E0
5.378733167E0,3.441343689E-1,-7.259902954E-1,1.253343658E0,1.488744672E0
5.388672167E0,3.709286499E-1,-8.982820129E-1,1.765728149E0,2.015513467E0
5.398611167E0,5.324427795E-1,-1.342857513E0,2.342029724E0,2.751702172E0
5.408550167E0,4.475692749E-1,-1.660047913E0,2.584675140E0,3.104291048E0
5.418489167E0,2.130070496E-1,-1.708996124E0,2.384391632E0,2.941319978E0
5.428429167E0,4.314028931E-1,-1.455722809E0,1.526974640E0,2.153343657E0
5.438368167E0,7.902067566E-1,-1.314865723E0,1.506467285E0,2.150056341E0
5.448307167E0,1.989363098E0,-9.547146606E-1,2.738555145E0,3.516920514E0
5.458246167E0,4.305346985E0,2.942880249E-1,3.436254272E0,5.516381198E0
5.468185167E0,7.717651062E0,2.100282440E0,4.417314148E0,9.137066735E0
5.478124167E0,1.084494781E1,4.268523560E0,4.590503998E0,1.252620906E1
5.488063167E0,1.232566864E1,5.403613129E0,4.484225006E0,1.418553546E1
5.498002167E0,1.479313751E1,5.604645081E0,4.793781281E0,1.652964921E1
5.507942167E0,2.072380463E1,6.248905334E0,3.051853638E0,2.185952211E1
5.517881167E0,2.570993591E1,7.222181396E0,3.189567261E0,2.689487029E1
5.527820167E0,2.872302017E1,8.869954834E0,4.150119781E0,3.034652337E1
5.537759167E0,3.023951660E1,9.172924805E0,2.939587097E0,3.173660483E1
5.547698167E0,2.935066498E1,8.622968445E0,7.882308655E0,3.159031353E1
5.557637167E0,2.862317780E1,9.521549835E0,7.753276978E0,3.114577856E1
5.567576167E0,3.109813110E1,1.551897812E1,1.100511475E0,3.477274170E1
5.577515167E0,3.508808395E1,2.029614395E1,1.077758789E0,4.054958272E1
5.587455167E0,3.328867584E1,1.826546677E1,5.819747772E0,3.841396464E1
5.597394167E0,2.702300537E1,1.342183914E1,6.253096619E0,3.081379241E1
5.607333167E0,2.415946014E1,1.025861710E1,3.845203857E0,2.652742603E1
5.617272167E0,2.142479691E1,7.983049164E0,3.598965912E0,2.314527062E1
5.627211167E0,1.917138290E1,6.554869080E0,4.115990753E0,2.067485456E1
5.637150167E0,1.632145935E1,5.418282623E0,4.278552704E0,1.772156413E1
5.647089167E0,1.372855133E1,4.679119720E0,4.496948547E0,1.518518453E1
5.657028167E0,1.097532669E1,4.054468689E0,4.904101868E0,1.268647813E1
5.666968167E0,8.182733917E0,3.359613647E0,5.197641449E0,1.025961085E1
5.676907167E0,5.843398590E0,2.647095337E0,5.155129852E0,8.229689216E0
5.686846167E0,4.109404449E0,2.220183105E0,4.064198456E0,6.191455971E0
5.696785167E0,2.346670074E0,1.646875305E0,3.808530121E0,4.766965533E0
5.706724167E0,8.039781189E-1,8.964857483E-1,3.490142212E0,3.692040110E0
5.716663167E0,-6.740483093E-1,-2.424957275E-2,3.689976654E0,3.751114084E0
5.726602167E0,-1.840422821E0,-6.632707214E-1,3.595074005E0,4.092876899E0
5.736541167E0,-2.467019806E0,-1.231638794E0,2.840792542E0,3.958942170E0
5.746481167E0,-3.048111420E0,-1.984123993E0,2.072590027E0,4.186091335E0
5.756420167E0,-3.410358124E0,-2.204465790E0,1.869163055E0,4.470344783E0
5.766359167E0,-2.902164917E0,-2.179467773E0,2.202519836E0,4.245436916E0
5.776298167E0,-1.704056396E0,-2.151925049E0,2.916085968E0,4.004765535E0
5.786237167E0,-2.519261169E-1,-1.398392029E0,2.862048340E0,3.195354086E0
5.796176167E0,5.863307190E-1,-7.957452393E-1,2.265838165E0,2.472047085E0
5.806115167E0,2.480342102E-1,-1.600172424E-1,1.603764954E0,1.630701847E0
5.816054167E0,4.965174866E-1,5.236111450E-1,5.287005615E-1,8.945515801E-1
5.825994167E0,9.702822876E-1,7.605683899E-1,-3.875440979E-1,1.292324426E0
5.835933167E0,8.912466431E-1,6.156697083E-1,-1.045276337E0,1.505314714E0
5.845872167E0,6.439608765E-1,5.780978394E-1,-9.183403015E-1,1.261836611E0
5.855811167E0,5.514532471E-1,5.198689270E-1,-6.812333679E-1,1.019040375E0
5.865750167E0,1.842668152E-1,4.748126221E-1,-4.284091187E-1,6.655341150E-1
5.875689167E0,-1.809736633E-1,1.811233521E-1,-3.044668579E-1,3.978155390E-1
5.885628167E0,-4.984634399E-2,-1.429527283E-1,-2.944377136E-1,3.310796094E-1
5.895567167E0,6.391708374E-2,-2.739303589E-1,-3.363505554E-1,4.384688487E-1
5.905506167E0,9.999206543E-2,-2.856060791E-1,-4.514611816E-1,5.434946588E-1
5.915446167E0,1.401086426E-1,-3.591032410E-1,-6.373745728E-1,7.448704017E-1
5.925385167E0,1.730401611E-1,-4.513114929E-1,-7.488926697E-1,8.913277690E-1
5.935324167E0,2.315684509E-1,-5.069956970E-1,-6.762936401E-1,8.763798674E-1
5.945263167E0,3.818559265E-1,-4.968168640E-1,-4.861889648E-1,7.931082237E-1
5.955202167E0,6.935078430E-1,-5.879772949E-1,-3.046165466E-1,9.588856387E-1
5.965141167E0,1.809586945E0,-9.439370728E-1,1.199006653E-1,2.044504409E0
5.975080167E0,4.191733246E0,-1.856738892E0,8.631051636E-1,4.665089221E0
5.985019167E0,6.299949188E0,-2.538121948E0,1.758842468E0,7.016049432E0
5.994959167E0,5.698799286E0,-1.181044006E0,9.929451599E0,1.150935217E1
6.004898167E0,1.061831909E1,2.201771393E0,9.266629944E0,1.426418340E1
6.014837167E0,1.436667435E1,3.620521088E0,4.439617767E0,1.546672915E1
6.024776167E0,1.625035721E1,4.243525543E0,6.395749969E0,1.797184565E1
6.034715167E0,2.127615601E1,4.495002594E0,6.679110718E0,2.274841495E1
6.044654167E0,3.011482590E1,8.054600372E0,5.944288788E0,3.173505783E1
6.054593167E0,3.588083542E1,1.482157837E1,6.619384918E0,3.938184597E1
6.064532167E0,2.804343338E1,1.838701401E1,6.537804565E0,3.416517713E1
6.074472167E0,2.533227127E1,1.888892029E1,2.135608978E0,3.167137672E1
6.084411167E0,2.674772781E1,1.689282120E1,-3.329975281E0,3.181032987E1
6.094350167E0,3.631957306E1,1.859163849E1,3.796105957E0,4.097768697E1
6.104289167E0,4.148024139E1,1.910896271E1,2.008074188E1,4.988986948E1
6.114228167E0,2.297647018E1,9.476942596E0,-3.189417572E0,2.505799289E1
6.124167167E0,2.133887558E1,8.022866364E0,4.230502625E0,2.318644320E1
6.134106167E0,2.419358917E1,1.105466171E1,8.056995392E0,2.779299331E1
6.144045167E0,2.039553726E1,9.628128204E0,1.525328064E0,2.260542896E1
6.153985167E0,1.766461624E1,8.434510345E0,7.095245361E-2,1.957510322E1
6.163924167E0,1.428674057E1,6.871760101E0,1.470541992E0,1.592151176E1
6.173863167E0,1.196836166E1,5.303770752E0,2.898871765E0,1.340802456E1
6.183802167E0,9.356143799E0,3.851640472E0,3.386258240E0,1.066955041E1
6.193741167E0,7.203320618E0,2.809956665E0,2.835254059E0,8.235432591E0
6.203680167E0,5.298531647E0,2.293231201E0,2.717449036E0,6.381056042E0
6.213619167E0,3.782933350E0,1.514101410E0,2.895877991E0,4.998919598E0
6.223558167E0,2.364033966E0,4.001179504E-1,3.191812592E0,3.992044412E0
6.233497167E0,1.177152100E0,-2.405497742E-1,3.290607147E0,3.503091015E0
6.243437167E0,8.876541138E-2,-5.834866333E-1,3.022215271E0,3.079305294E0
6.253376167E0,-5.216651917E-1,-7.737409973E-1,2.390229492E0,2.565931942E0
6.263315167E0,-7.397616577E-1,-7.921527100E-1,1.398990784E0,1.769725526E0
6.273254167E0,-9.144483948E-1,-8.741821289E-1,9.223818970E-1,1.565630424E0
6.283193167E0,-7.640112305E-1,-1.039288788E0,6.866221619E-1,1.461261215E0
6.293132042E0,-6.948550415E-1,-1.232686615E0,5.634283447E-1,1.523086117E0
6.303071042E0,-6.316864014E-1,-1.274000702E0,8.379574585E-1,1.650538761E0
6.313010042E0,-7.608677673E-1,-1.044378204E0,8.508306885E-1,1.547112941E0
6.322950042E0,-1.228046265E0,-4.134402466E-1,1.067430267E0,1.678820372E0
6.332889042E0,-5.114863586E-1,7.032376099E-1,1.557511139E0,1.783816801E0
6.342828042E0,2.451901245E-1,8.035290527E-1,1.756597137E0,1.947154498E0
6.352767042E0,9.939331055E-2,2.064207458E-1,2.211650848E0,2.223485559E0
6.362706042E0,3.517684937E-1,8.696914673E-2,2.131268005E0,2.161852913E0
6.372645042E0,2.453398132E-1,-4.079017639E-1,1.875599670E0,1.935058034E0
6.382584042E0,3.878434753E-1,-7.119195557E-1,1.093625793E0,1.361348372E0
6.392523042E0,2.905458069E-1,-7.358697510E-1,3.800596619E-1,8.777052483E-1
6.402463042E0,2.644999695E-1,-8.117619324E-1,2.815644836E-1,8.989973455E-1
6.412402042E0,2.953358459E-1,-4.649331665E-1,7.453001404E-1,9.267461413E-1
6.422341042E0,2.438429260E-1,-1.797761536E-1,9.716294861E-1,1.017763576E0
6.432280042E0,2.459385681E-1,6.915618896E-2,1.111588440E0,1.140568813E0
6.442219042E0,1.651066589E-1,1.463955688E-1,1.200204163E0,1.220320410E0
6.452158042E0,6.092330933E-2,2.161505127E-1,1.161584473E0,1.183093902E0
6.462097042E0,2.125579834E-2,4.061054993E-1,9.020242310E-1,9.894550009E-1
6.472036042E0,3.233276367E-2,4.992118835E-1,5.957611084E-1,7.779390790E-1
6.481975042E0,2.173480225E-1,5.004093933E-1,5.562432861E-1,7.791381887E-1
6.491915042E0,7.682025146E-1,3.869453430E-1,6.842271423E-1,1.099103537E0
6.501854042E0,1.737736359E0,4.013154602E-1,8.316705322E-1,1.967856099E0
6.511793042E0,4.306095428E0,9.017248535E-1,5.990542603E-1,4.440093643E0
6.521732042E0,8.262218628E0,1.776056671E0,2.392025757E-1,8.454339231E0
6.531671042E0,1.246443008E1,2.277064819E0,1.485361176E0,1.275748170E1
6.541610042E0,1.740176285E1,2.793790283E0,3.859873352E0,1.804231794E1
6.551549042E0,2.359992371E1,4.379742279E0,4.926255798E0,2.450319444E1
6.561488042E0,2.940380447E1,7.623496857E0,6.907984772E0,3.115159186E1
6.571428042E0,3.253379562E1,1.191207870E1,7.945626984E0,3.554544225E1
6.581367042E0,2.943149689E1,1.500704269E1,8.709937592E0,3.416558725E1
6.591306042E0,2.882899979E1,1.518202881E1,6.236630859E0,3.317379677E1
6.601245042E0,2.728555939E1,1.325523560E1,1.174322983E1,3.252854852E1
6.611184042E0,3.325858841E1,1.698113754E1,7.664361877E0,3.812132183E1
6.621123042E0,4.343712204E1,1.850451965E1,-3.635040894E0,4.735413753E1
6.631062042E0,3.242886383E1,1.266291733E1,-5.210364990E0,3.520125833E1
6.641001042E0,2.560260910E1,8.461604004E0,3.549568634E0,2.719727509E1
6.650940042E0,2.533301971E1,7.121440887E0,6.697971497E0,2.715399842E1
6.660880042E0,2.201382202E1,6.830595703E0,3.480711823E0,2.331052879E1
6.670819042E0,1.941866867E1,5.886059875E0,2.050286407E0,2.039446170E1
6.680758042E0,1.626951736E1,5.210963745E0,1.438209229E0,1.714408890E1
6.690697042E0,1.374651398E1,5.268144836E0,3.006348267E0,1.502524963E1
6.700636042E0,1.084629501E1,5.062322845E0,4.110152893E0,1.265553574E1
6.710575042E0,8.500223694E0,5.269941101E0,3.894900513E0,1.073295542E1
6.720514042E0,6.201753387E0,4.840184784E0,3.714226227E0,8.699690241E0
6.730453042E0,4.836292877E0,4.220922546E0,3.745211792E0,7.431858940E0
6.740393042E0,3.962260437E0,3.675456848E0,3.848646698E0,6.634800089E0
6.750332042E0,2.866539001E0,2.695145416E0,3.563639374E0,5.308519591E0
6.760271042E0,1.641187134E0,1.128802643E0,2.628833313E0,3.298250324E0
6.770210042E0,3.341052246E-1,-2.421963501E-1,1.897304535E0,1.941661626E0
6.780149042E0,-5.960604858E-1,-1.031654663E0,1.558708649E0,1.961930707E0
6.790088042E0,-9.663903809E-1,-1.092278595E0,1.546733551E0,2.125880424E0
6.800027042E0,-1.385518799E0,-1.120869141E0,1.937271423E0,2.632305176E0
6.809966042E0,-1.658551025E0,-1.164129181E0,2.497556305E0,3.216174086E0
6.819905042E0,-1.625170441E0,-6.899153137E-1,2.334096222E0,2.926630703E0
6.829845042E0,-1.801653442E0,2.559677124E-1,2.018253021E0,2.717502503E0
6.839784042E0,-1.685794373E0,1.337169342E0,2.549198914E0,3.335916608E0
6.849723042E0,-1.312770081E-1,1.582359467E0,3.299438782E0,3.661610494E0
6.859662042E0,4.090992737E-1,1.253942413E0,2.719993744E0,3.022929003E0
6.869601042E0,-7.559280396E-2,8.813671875E-1,1.965861969E0,2.155721613E0
6.879540042E0,-2.035766602E-1,4.242178345E-1,1.078956299E0,1.177094271E0
6.889479042E0,1.905537415E-1,1.664538574E-1,7.937992859E-1,8.331475988E-1
6.899418042E0,5.038522339E-1,2.424957275E-2,7.680528259E-1,9.188907763E-1
6.909358042E0,8.134085083E-1,-9.834548950E-2,7.180567932E-1,1.089454357E0
6.919297042E0,8.915460205E-1,-2.445913696E-1,5.740562439E-1,1.088218643E0
6.929236042E0,7.258406067E-1,-2.770738220E-1,7.614665222E-1,1.087862930E0
6.939175042E0,6.613247681E-1,-1.585203552E-1,9.774673462E-1,1.190765117E0
6.949114042E0,5.020559692E-1,-1.672023010E-1,9.759704590E-1,1.110195993E0
6.959053042E0,3.270698547E-1,-2.517764282E-1,7.825726318E-1,8.847519335E-1
6.968992042E0,1.604663086E-1,-3.115022278E-1,6.655160522E-1,7.521267778E-1
6.978931042E0,4.355941772E-2,-2.957849121E-1,1.002615051E0,1.046242361E0
6.988870042E0,-1.203497314E-1,-2.881507874E-1,1.364861755E0,1.400129475E0
6.998810042E0,-8.382568359E-3,-2.140548706E-1,1.090182953E0,1.111030434E0
7.008749042E0,4.745132446E-1,-5.373825073E-2,8.213420105E-1,9.500806898E-1
7.018688042E0,9.777667236E-1,5.598358154E-2,5.575904846E-1,1.126973414E0
7.028627042E0,1.652264099E0,1.763333130E-1,5.804928589E-1,1.760125578E0
7.038566042E0,3.439846802E0,4.896318054E-1,1.006506958E0,3.617366664E0
7.048505042E0,6.858138428E0,1.531465302E0,1.884131927E0,7.275259568E0
7.058444042E0,1.076621155E1,3.432811432E0,3.123404846E0,1.172395681E1
7.068383042E0,1.232087860E1,4.946164398E0,5.826633453E0,1.449890510E1
7.078322042E0,1.399005753E1,5.573360138E0,6.711593170E0,1.648725373E1
7.088262042E0,1.678564407E1,5.806575165E0,5.552703094E0,1.860931685E1
7.098201042E0,2.055136322E1,6.476881256E0,4.905000000E0,2.209903948E1
7.108140042E0,2.596620300E1,8.797804871E0,3.705394592E0,2.766541194E1
7.118079042E0,3.090473328E1,1.126946503E1,1.964365082E0,3.295393923E1
7.128018042E0,3.223756165E1,1.236533615E1,4.795278168E0,3.485909654E1
7.137957042E0,3.300082443E1,1.361688354E1,9.635013885E0,3.697712027E1
7.147896042E0,3.037064392E1,1.279344589E1,1.200772980E1,3.507468952E1
7.157835042E0,3.772305450E1,1.599588638E1,1.524564651E1,4.371872551E1
7.167775042E0,4.271427521E1,1.641830795E1,1.167781586E1,4.722755049E1
7.177714042E0,2.570125397E1,1.094464050E1,-3.818858643E0,2.819438406E1
7.187653042E0,2.164962936E1,1.023376877E1,5.026846619E0,2.446846259E1
7.197592042E0,2.434731949E1,1.127470413E1,1.064211960E1,2.886460859E1
7.207531042E0,2.095597183E1,9.350904694E0,3.621568909E0,2.323161500E1
7.217470042E0,1.638567581E1,7.562423859E0,1.088536377E0,1.807942305E1
7.227409042E0,1.304806641E1,5.774541779E0,2.282603302E0,1.445017811E1
7.237348042E0,1.090407486E1,4.565206604E0,4.061953125E0,1.249957692E1
7.247287042E0,8.049510956E0,3.250041504E0,4.345463562E0,9.707752056E0
7.257227042E0,5.545667725E0,2.435435486E0,3.356021118E0,6.924496679E0
7.267166042E0,3.426374817E0,1.531764679E0,3.139870605E0,4.893376629E0
7.277105042E0,2.283501434E0,7.897576904E-1,3.695365448E0,4.415180835E0
7.287044042E0,1.151705017E0,3.156935120E-1,4.302652588E0,4.465300229E0
7.296983250E0,-2.725831604E-1,-2.844085693E-3,3.680097198E0,3.690179543E0
7.306922250E0,-1.177601166E0,-1.463955688E-1,2.367327118E0,2.648096269E0
7.316861250E0,-1.719773712E0,1.579216003E-1,1.101559296E0,2.048412491E0
7.326800250E0,-2.214045868E0,1.091230774E-1,3.866459656E-1,2.250200448E0
7.336739250E0,-2.432142334E0,-3.056643677E-1,1.546284485E-1,2.456146778E0
7.346679250E0,-2.600691833E0,-7.225474548E-1,-3.098556519E-2,2.699376399E0
7.356618250E0,-2.525548096E0,-7.173083496E-1,5.137316895E-1,2.675227972E0
7.366557250E0,-2.774181061E0,3.472778320E-2,1.096769257E0,2.983318518E0
7.376496250E0,-3.523672485E-1,1.241368561E0,1.212179260E0,1.770462409E0
7.386435250E0,1.028361511E0,6.719526672E-1,7.689509583E-1,1.449252691E0
7.396374250E0,4.912783813E-1,6.209088135E-1,1.352736969E0,1.567411723E0
7.406313250E0,6.789880371E-1,5.807922363E-1,2.151026917E0,2.329219005E0
7.416252250E0,5.441184998E-1,-3.391946411E-1,2.185305634E0,2.277428080E0
7.426191250E0,1.666035461E-1,-8.045768738E-1,1.278491364E0,1.519750260E0
7.436131250E0,3.987707520E-1,-6.297404480E-1,4.860392761E-1,8.898456734E-1
7.446070250E0,1.827699280E-1,-5.192701721E-1,-1.492396545E-1,5.703672788E-1
7.456009250E0,2.769241333E-1,-4.405339050E-1,-1.624122620E-1,5.451007613E-1
7.465948250E0,2.818638611E-1,-3.755690002E-1,-2.399510193E-1,5.273289313E-1
7.475887250E0,3.290158081E-1,-3.227288818E-1,-3.044668579E-1,5.523634679E-1
7.485826250E0,3.165916443E-1,-2.369572449E-1,-2.068698120E-1,4.462892831E-1
7.495765250E0,2.171983337E-1,-1.356179810E-1,-2.469863892E-2,2.572496369E-1
7.505704250E0,7.484436035E-2,1.841171265E-2,1.775308228E-1,1.935403381E-1
7.515644250E0,-7.634124756E-3,2.829116821E-2,2.667453003E-1,2.683500052E-1
7.525583250E0,-2.531236267E-1,6.526428223E-2,4.924758911E-1,5.575513432E-1
7.535522250E0,-7.220983887E-1,9.310638428E-2,1.279688873E0,1.472310597E0
7.545461250E0,-3.854484558E-1,-8.173004150E-2,1.619631958E0,1.666870718E0
7.555400250E0,7.357200623E-1,-4.475692749E-2,1.173559570E0,1.385831612E0
7.565339250E0,1.582359467E0,1.227447510E-1,1.285227356E0,2.042238260E0
7.575278250E0,2.656825104E0,4.710704041E-1,3.000660095E0,4.035416703E0
7.585217250E0,6.282285919E0,1.752555542E0,5.438939667E0,8.492386708E0
7.595156250E0,1.436996750E1,3.517086182E0,8.647816772E0,1.713623634E1
7.605096250E0,1.561971863E1,4.381239166E0,1.032597702E1,1.923009797E1
7.615035250E0,1.450947739E1,4.561464386E0,5.809568939E0,1.628136919E1
7.624974250E0,1.694072159E1,4.618795166E0,3.205733643E0,1.784931497E1
7.634913250E0,2.082649109E1,4.899012451E0,-9.985734558E-1,2.141822129E1
7.644852250E0,2.490850250E1,7.354955292E0,8.587641907E-1,2.598588733E1
7.654791250E0,3.054712692E1,1.161539566E1,-2.188449097E0,3.275414003E1
7.664730250E0,2.845118546E1,1.068642746E1,-3.926634521E0,3.064454510E1
7.674669250E0,2.540681625E1,9.830207977E0,1.375040588E0,2.727691401E1
7.684608250E0,3.082075790E1,1.674552750E1,1.059511734E1,3.664134714E1
7.694548250E0,3.770179871E1,2.134261780E1,8.914861450E0,4.423129791E1
7.704487250E0,3.730976395E1,1.933304672E1,-1.218915253E0,4.203892168E1
7.714426250E0,3.176125214E1,1.558409271E1,2.011067963E0,3.543565263E1
7.724365250E0,2.680356171E1,1.169667664E1,7.602690125E0,3.021661896E1
7.734304250E0,2.486658966E1,9.548942871E0,3.715124359E0,2.689482739E1
7.744243250E0,2.230242188E1,8.088130646E0,2.104473724E0,2.381689922E1
7.754182250E0,2.014256332E1,6.105353851E0,1.727707214E0,2.111831374E1
7.764121250E0,1.722887238E1,4.437671814E0,2.079775085E0,1.791235436E1
7.774060250E0,1.425635376E1,3.206931152E0,3.075205078E0,1.493267947E1
7.784000250E0,1.182211578E1,2.660717010E0,4.600084076E0,1.296158208E1
7.793939250E0,9.401349792E0,2.721790009E0,4.301904144E0,1.069111304E1
7.803878250E0,6.177503815E0,2.582579498E0,3.963607635E0,7.780839012E0
7.813817250E0,3.464545441E0,1.692230988E0,3.883823547E0,5.472732971E0
7.823756250E0,2.371368713E0,1.391057281E0,3.411855011E0,4.381687409E0
7.833695250E0,1.027164001E0,1.153501282E0,3.401676178E0,3.735911122E0
7.843634250E0,-3.153941345E-1,6.173162842E-1,2.980452118E0,3.060007791E0
7.853573250E0,-1.693129120E0,2.674937439E-1,2.080673218E0,2.695819014E0
7.863512250E0,-2.918331299E0,2.574645996E-2,1.658551025E0,3.356800851E0
7.873452250E0,-3.305725708E0,-3.162922668E-1,1.595382385E0,3.684169949E0
7.883391250E0,-2.664758606E0,-8.894503784E-1,1.742676086E0,3.305900837E0
7.893330250E0,-1.450334015E0,-1.003064117E0,2.141746216E0,2.774289681E0
7.903269250E0,-1.480421448E-1,-3.058140564E-1,2.352507935E0,2.376916552E0
7.913208250E0,6.077362061E-2,1.484912109E-1,1.858684845E0,1.865597069E0
7.923147250E0,-9.160949707E-2,-7.649093628E-2,1.610051880E0,1.614469021E0
7.933086250E0,-1.770817566E-1,-3.929328918E-1,1.365610199E0,1.432007480E0
7.943025250E0,9.011260986E-2,-4.592449951E-1,1.278641052E0,1.361598027E0
7.952964250E0,3.694317627E-1,-2.748284912E-1,7.768844604E-1,9.030836018E-1
7.962904250E0,4.900808716E-1,-5.089416504E-2,5.496569824E-1,7.381681889E-1
7.972843250E0,5.894741821E-1,-2.112107849E-1,3.173400879E-1,7.019932610E-1
7.982782250E0,7.146139526E-1,-1.902543640E-1,-1.564247131E-1,7.558693771E-1
7.992721250E0,7.497908020E-1,-1.651066589E-1,-2.282752991E-1,8.009719519E-1
8.002660250E0,5.911207581E-1,-1.121168518E-1,-1.871109009E-1,6.300828741E-1
8.012599250E0,5.026547241E-1,-8.861572266E-2,1.062789917E-2,5.105168658E-1
8.022538250E0,4.930746460E-1,-8.487350464E-2,2.573149109E-1,5.626162828E-1
8.032477250E0,3.760180664E-1,-9.445358276E-2,5.933660889E-1,7.087978421E-1
8.042416250E0,5.748046875E-2,-2.630030823E-1,7.396119690E-1,7.870835345E-1
8.052356250E0,-1.669029236E-1,-3.820056152E-1,9.150471497E-1,1.005532775E0
8.062295250E0,-3.037184143E-1,-4.358935547E-1,1.306932220E0,1.410786977E0
8.072234250E0,-6.571334839E-1,-6.122268677E-1,1.876647491E0,2.080493201E0
8.082173250E0,-7.943980408E-1,-5.637277222E-1,2.326911163E0,2.522572646E0
8.092112250E0,-2.409988403E-2,-4.306544495E-1,2.323618011E0,2.363312236E0
8.102051250E0,1.117276611E0,-1.404080200E-1,2.283800812E0,2.546324329E0
8.111990250E0,1.971250763E0,3.037184143E-1,2.546354828E0,3.234501098E0
8.121929250E0,4.275109863E0,9.421408081E-1,2.713407440E0,5.150414894E0
8.131868250E0,8.696914673E0,1.858235779E0,2.332749023E0,9.194078695E0
8.141808250E0,1.290631119E1,2.593656464E0,2.658771057E0,1.343015212E1
8.151747250E0,1.612506775E1,3.345692596E0,3.231180725E0,1.678249081E1
8.161686250E0,1.913171539E1,4.106111298E0,4.002227325E0,1.997249377E1
8.171625250E0,2.154155411E1,5.253625031E0,6.629264374E0,2.314273699E1
8.181564250E0,2.596680176E1,8.449778595E0,7.850874023E0,2.841319719E1
8.191503250E0,2.974868729E1,1.140643021E1,5.118156738E0,3.226897231E1
8.201442250E0,3.151890610E1,1.408076889E1,5.050647125E0,3.488865905E1
8.211381250E0,3.110606461E1,1.472592728E1,7.403604126E0,3.520303316E1
8.221320250E0,2.867766449E1,1.225411743E1,4.532275085E0,3.151370102E1
8.231260250E0,3.550990677E1,1.705613159E1,3.562741241E0,3.955449695E1
8.241199250E0,4.044020416E1,1.781205963E1,1.236054611E1,4.588532098E1
8.251138250E0,2.813384537E1,9.352401581E0,8.597970428E0,3.086917177E1
8.261077250E0,2.237517059E1,8.772208099E0,4.270918579E0,2.440984718E1
8.271016250E0,2.529724411E1,1.129146927E1,1.095437027E1,2.979003299E1
8.280955250E0,2.163780396E1,9.202712860E0,2.175426178E0,2.361391461E1
8.290894250E0,1.824675568E1,7.245682526E0,-2.686912537E0,1.981573887E1
8.300833792E0,1.552451660E1,5.295687561E0,9.288185120E-1,1.642916998E1
8.310772792E0,1.261831009E1,3.870052185E0,4.284240875E0,1.387637465E1
8.320712792E0,1.001701950E1,2.930456085E0,4.580923920E0,1.139794352E1
8.330651792E0,7.418423309E0,2.130519562E0,4.121229858E0,8.749665910E0
8.340590792E0,5.310656433E0,1.782493286E0,3.590583344E0,6.653769068E0
8.350529792E0,3.658991089E0,1.524280243E0,3.631448364E0,5.375784898E0
8.360468792E0,2.330354004E0,1.078357544E0,3.613934784E0,4.433275245E0
8.370407792E0,8.533753967E-1,8.740324402E-1,3.274440765E0,3.494874046E0
8.380346792E0,-4.020639038E-1,6.596781921E-1,2.423610077E0,2.543760308E0
8.390285792E0,-1.494043121E0,3.306623840E-1,1.486558685E0,2.133391475E0
8.400224792E0,-2.189047852E0,-2.888992310E-2,7.484436035E-1,2.313640627E0
8.410164792E0,-2.582729187E0,-1.856140137E-2,3.357518005E-1,2.604527568E0
8.420103792E0,-3.287313995E0,-2.975811768E-1,9.243278503E-1,3.427735380E0
8.430042792E0,-3.254681854E0,-5.047503662E-1,1.284628601E0,3.535250705E0
8.439981792E0,-2.564467163E0,-4.921765137E-1,1.666634216E0,3.097805540E0
8.449920792E0,-2.050735474E-2,1.047821045E-3,3.072959747E0,3.073028353E0
8.459859792E0,3.197351074E-1,-2.838098145E-1,3.934717712E0,3.957875949E0
8.469798792E0,-6.180647278E-1,-1.691482544E-2,2.984344025E0,3.047720357E0
8.479737792E0,-5.605842590E-1,5.987548828E-3,2.363584900E0,2.429161201E0
8.489676792E0,-5.179229736E-1,-1.655557251E-1,1.343456268E0,1.449319720E0
8.499615792E0,-1.142124939E-1,1.212478638E-2,-5.041516113E-1,5.170690006E-1
8.509555792E0,4.899311829E-1,3.607498169E-2,-1.042881317E0,1.152794609E0
8.519494792E0,7.478448486E-1,6.466552734E-2,-1.013392639E0,1.261117833E0
8.529433792E0,9.015751648E-1,1.261875916E-1,-6.735992432E-1,1.132473852E0
8.539372792E0,8.677455139E-1,2.215393066E-1,-4.435276794E-1,9.993891853E-1
8.549311792E0,8.196954346E-1,2.242337036E-1,-3.463796997E-1,9.176928983E-1
8.559250792E0,6.647676086E-1,1.155596924E-1,-2.432441711E-1,7.172431546E-1
8.569189792E0,5.125341797E-1,3.876937866E-2,-1.881587219E-1,5.473555103E-1
8.579128792E0,4.676275635E-1,3.682342529E-2,-6.661148071E-2,4.737811648E-1
8.589067792E0,2.647993469E-1,-5.403762817E-2,-2.439926147E-2,2.713560085E-1
8.599007792E0,2.080673218E-1,-9.909393311E-2,-8.637039185E-2,2.461127030E-1
8.608946792E0,1.932481384E-1,-8.143066406E-2,-7.903564453E-2,2.241036126E-1
8.618885792E0,5.882766724E-2,-3.577560425E-2,-2.769241333E-2,7.421224998E-2
8.628824792E0,-2.305206299E-2,-9.595046997E-2,8.382568359E-2,1.294783207E-1
8.638763792E0,1.459465027E-1,-2.411485291E-1,2.639012146E-1,3.861306071E-1
8.648702792E0,1.993853760E-1,-1.260379028E-1,3.579057312E-1,4.286450671E-1
8.658641792E0,7.605683899E-1,2.963836670E-2,4.090992737E-1,8.641208968E-1
8.668580792E0,3.621269531E0,3.170407104E-1,1.141526184E0,3.810143023E0
8.678519792E0,1.290301804E1,6.286926270E-1,2.498454437E0,1.315771270E1
8.688459792E0,2.237606873E1,7.719447327E-1,3.970044250E0,2.273863676E1
8.698398792E0,1.568962326E1,2.611319733E0,1.272907974E1,2.037186147E1
8.708337792E0,2.012504974E1,6.038143616E0,9.625433807E0,2.311116141E1
8.718276792E0,2.854638748E1,7.810458069E0,4.809498596E0,2.998384182E1
8.728215792E0,2.846046616E1,1.007809250E1,8.678353271E0,3.141464464E1
8.738154792E0,3.205643829E1,1.271710464E1,5.784570923E0,3.496857514E1
8.748093792E0,2.856165573E1,1.321811279E1,3.657643890E0,3.168382936E1
8.758032792E0,2.520967621E1,1.438119415E1,8.744815063E0,3.031201594E1
8.767971792E0,3.386632462E1,1.650707336E1,6.360573120E0,3.820822299E1
8.777910792E0,4.506872910E1,1.756701920E1,9.002878418E0,4.920205611E1
8.787850792E0,4.061653748E1,1.124656265E1,5.342689819E0,4.248214475E1
8.797789792E0,2.184138062E1,6.479725342E0,2.552192688E-1,2.278371973E1
8.807728792E0,1.853400833E1,6.167923737E0,4.193679199E0,1.997848075E1
8.817667792E0,2.218326965E1,8.384813690E0,9.212742004E0,2.544164241E1
8.827606792E0,2.073637848E1,8.614136810E0,3.727548523E0,2.276170827E1
8.837545792E0,1.862980911E1,7.270081787E0,-1.266216888E0,2.003814318E1
8.847484792E0,1.610860199E1,6.668033752E0,-4.161346436E-2,1.743420385E1
8.857423792E0,1.321212524E1,5.578299866E0,3.216511230E0,1.469774225E1
8.867362792E0,1.108400070E1,5.352718964E0,3.492387543E0,1.279466462E1
8.877302792E0,8.760831757E0,5.170847168E0,3.021317139E0,1.061217182E1
8.887241792E0,6.866670685E0,5.060526581E0,3.289559326E0,9.142280685E0
8.897180792E0,5.710624695E0,3.735931091E0,4.192930756E0,8.009312320E0
8.907119792E0,4.739144897E0,1.952988739E0,4.279001770E0,6.677088851E0
8.917058792E0,3.243455200E0,3.068618774E-1,4.331991577E0,5.420361323E0
8.926997792E0,9.879455566E-1,-6.201603699E-1,3.639830933E0,3.822172749E0
8.936936792E0,2.160008240E-1,-8.181985474E-1,1.965712280E0,2.140123825E0
8.946875792E0,2.821632385E-1,-6.517446899E-1,3.870950317E-1,8.088447302E-1
8.956814792E0,-1.184037781E-1,-9.833052063E-1,-1.683998108E-1,1.004622854E0
8.966754792E0,-7.643106079E-1,-1.244512024E0,-2.534230042E-1,1.482296901E0
8.976693792E0,-1.571282501E0,-1.324296112E0,-1.136137390E-1,2.058056601E0
8.986632792E0,-2.661615143E0,-1.499880981E0,7.033872986E-1,3.135058503E0
8.996571792E0,-2.483335876E0,-1.477427673E0,1.453926544E0,3.234756869E0
9.006510792E0,-2.403402100E0,-1.037941589E0,1.918410645E0,3.245606846E0
9.016449792E0,-1.818268890E0,-2.140548706E-1,3.058290253E0,3.564415873E0
9.026388792E0,-2.035766602E-2,6.783892822E-1,4.498595123E0,4.549503768E0
9.036327792E0,-2.062710571E-1,9.168434143E-1,4.043242035E0,4.151018640E0
9.046266792E0,-9.415420532E-1,3.222798157E-1,2.123035126E0,2.344705496E0
9.056206792E0,-4.803511047E-1,2.520758057E-1,3.888912964E-1,6.674697267E-1
9.066145792E0,-6.918612671E-1,3.953279114E-1,9.190887451E-2,8.021243118E-1
9.076084792E0,-8.009843445E-1,6.065386963E-1,1.712438965E-1,1.019210274E0
9.086023792E0,-1.901046753E-1,6.360273743E-1,4.328997803E-1,7.925104593E-1
9.095962792E0,2.694396973E-1,5.837860107E-1,7.484436035E-1,9.866973621E-1
9.105901792E0,4.095483398E-1,4.023632813E-1,6.164181519E-1,8.423760388E-1
9.115840792E0,4.315525818E-1,1.240919495E-1,5.574407959E-1,7.158049201E-1
9.125779792E0,2.450404358E-1,-5.523513794E-2,7.119195557E-1,7.549338974E-1
9.135718792E0,1.161584473E-1,-1.333726501E-1,9.716294861E-1,9.875955179E-1
9.145657792E0,-5.987548828E-4,-2.814147949E-1,1.211281128E0,1.243541964E0
9.155597792E0,-7.544311523E-2,-2.430944824E-1,1.188079376E0,1.215038763E0
9.165536792E0,8.547225952E-2,-1.528321838E-1,1.168320465E0,1.181370345E0
9.175475792E0,3.986210632E-1,-9.445358276E-2,1.115480347E0,1.188325139E0
9.185414792E0,6.535409546E-1,-8.098159790E-2,1.049467621E0,1.238973803E0
9.195353792E0,1.148860931E0,-7.948471069E-2,7.228468323E-1,1.359671579E0
9.205292792E0,2.618804169E0,-8.577163696E-2,5.153782654E-1,2.670413227E0
9.215231792E0,5.875431976E0,1.037342834E-1,6.753955078E-1,5.915033457E0
9.225170792E0,1.210891937E1,1.413061523E-1,6.095324707E-1,1.212507425E1
9.235109792E0,1.516241959E1,3.040177917E-1,1.495390320E-1,1.516620442E1
9.245048792E0,1.379576157E1,1.006806335E0,1.276994476E0,1.389127104E1
9.254988792E0,1.438284073E1,2.828967133E0,7.921676788E0,1.666199645E1
9.264927792E0,2.584121292E1,6.645281067E0,9.139394531E0,2.820383978E1
9.274866792E0,3.467209900E1,1.007899063E1,8.679999847E0,3.713600542E1
9.284805792E0,3.295816315E1,1.434182602E1,9.014404449E0,3.705655110E1
9.294744000E0,3.171694427E1,1.465901642E1,5.009333038E0,3.529794235E1
9.304683000E0,2.485117172E1,1.102277802E1,7.293582916E0,2.814744612E1
9.314622000E0,2.629462006E1,1.746672775E1,6.508465576E0,3.223125419E1
9.324561000E0,3.880440582E1,2.398956345E1,4.417763214E0,4.583445972E1
9.334500000E0,4.116200317E1,1.947390381E1,5.188510437E0,4.583082015E1
9.344440000E0,3.252975403E1,1.051772827E1,1.707349548E0,3.423043306E1
9.354379000E0,2.033611084E1,4.753964081E0,-2.351160736E0,2.101631593E1
9.364318000E0,1.667068314E1,2.002535706E0,6.727909241E0,1.808829976E1
9.374257000E0,1.850751343E1,4.349954224E0,9.275162201E0,2.115369445E1
9.384196000E0,1.704280930E1,5.585933990E0,3.285368042E0,1.823331156E1
9.394135000E0,1.592523331E1,4.630171509E0,1.253193970E0,1.663195837E1
9.404074000E0,1.425141403E1,3.915108490E0,1.283880157E0,1.483506740E1
9.414013000E0,1.184052750E1,3.389102325E0,3.192860413E0,1.272314676E1
9.423952000E0,9.936486969E0,3.547023926E0,4.212839355E0,1.136059714E1
9.433891000E0,8.176147614E0,3.508853302E0,3.778891754E0,9.666512514E0
9.443831000E0,6.503675537E0,3.306773529E0,3.594475250E0,8.133437096E0
9.453770000E0,5.433850250E0,3.375181274E0,3.507805481E0,7.295428464E0
9.463709000E0,3.842359772E0,2.571502533E0,3.717669067E0,5.932741119E0
9.473648000E0,2.473456421E0,1.459465027E0,3.721860352E0,4.701092353E0
9.483587000E0,1.585353241E0,7.556286621E-1,3.042123871E0,3.512668105E0
9.493526000E0,5.752537537E-1,5.758525085E-1,2.356998596E0,2.493584844E0
9.503465000E0,2.454895020E-2,1.972897339E-1,1.671723633E0,1.683504023E0
9.513404000E0,-4.891827393E-1,-1.423539734E-1,1.319206696E0,1.414167851E0
9.523343000E0,-8.788224792E-1,-5.761518860E-1,1.096320190E0,1.518617103E0
9.533283000E0,-7.864645386E-1,-9.087602234E-1,1.058149567E0,1.601265787E0
9.543222000E0,-1.208437042E0,-1.111588440E0,1.021026764E0,1.933505779E0
9.553161000E0,-1.392105103E0,-9.422904968E-1,7.752378845E-1,1.851178483E0
9.563100000E0,-1.414259033E0,-6.735992432E-1,7.447013855E-1,1.734486871E0
9.573039000E0,-1.383722534E0,-2.829116821E-2,7.866142273E-1,1.591932908E0
9.582978000E0,-7.812254333E-1,3.576063538E-1,1.393751678E0,1.637296315E0
9.592917000E0,2.514770508E-2,2.619552612E-1,1.192869415E0,1.221552458E0
9.602856000E0,1.540296936E-1,3.766168213E-1,3.649411011E-1,5.465778845E-1
9.612795000E0,-4.086502075E-2,3.797602844E-1,1.908531189E-1,4.269809557E-1
9.622734000E0,-2.871029663E-1,3.290158081E-1,-1.471440125E-1,4.607937452E-1
9.632674000E0,-1.490899658E-1,1.770817566E-1,-1.610650635E-1,2.820065976E-1
9.642613000E0,2.245330811E-3,-3.098556519E-2,2.930905151E-1,2.947324156E-1
9.652552000E0,2.260299683E-2,-1.778302002E-1,4.098477173E-1,4.473361453E-1
9.662491000E0,-4.355941772E-2,-3.511697388E-1,6.215075684E-1,7.151847774E-1
9.672430000E0,-1.724414062E-1,-3.878434753E-1,7.631130981E-1,8.732125746E-1
9.682369000E0,-1.540296936E-1,-3.974235535E-1,7.918533325E-1,8.992787819E-1
9.692308000E0,-6.182144165E-2,-3.733236694E-1,8.249345398E-1,9.075844026E-1
9.702247000E0,2.790197754E-1,-4.011657715E-1,6.744973755E-1,8.329061897E-1
9.712186000E0,4.924758911E-1,-3.679348755E-1,6.141728210E-1,8.689745854E-1
9.722125000E0,1.080602875E0,-3.664379883E-1,6.274951172E-1,1.302201787E0
9.732065000E0,2.414179688E0,-3.953279114E-1,8.979826355E-1,2.605939473E0
9.742004000E0,4.559219055E0,-4.020639038E-1,2.012864227E0,4.999975617E0
9.751943000E0,7.288942566E0,-3.878434753E-1,3.467090149E0,8.080830427E0
9.761882000E0,1.058254349E1,9.834548950E-1,3.667373657E0,1.124308853E1
9.771821000E0,1.336525681E1,3.008294220E0,3.371588745E0,1.410842069E1
9.781760000E0,1.351778961E1,3.458857269E0,4.081113281E0,1.453787520E1
9.791699000E0,1.535207520E1,3.424129486E0,4.713099060E0,1.642023685E1
9.801638000E0,2.104832977E1,4.444258118E0,6.250851288E0,2.240215968E1
9.811577000E0,2.855491974E1,6.396049347E0,8.005203094E0,3.033770204E1
9.821517000E0,3.145229462E1,9.189240875E0,6.303841095E0,3.336805953E1
9.831456000E0,2.855282410E1,1.073298065E1,4.866679688E0,3.088924099E1
9.841395000E0,2.691253510E1,1.384441040E1,2.597248993E0,3.037594356E1
9.851334000E0,2.617307281E1,1.284898041E1,1.903591461E0,2.921899551E1
9.861273000E0,3.169134750E1,1.603749985E1,8.912915497E0,3.661943433E1
9.871212000E0,4.252911026E1,1.593496307E1,1.447040863E1,4.766593116E1
9.881151000E0,3.354060196E1,1.054242691E1,-8.503816223E-1,3.516870617E1
9.891090000E0,2.190544739E1,5.254074097E0,1.586251373E0,2.258251787E1
9.901029000E0,2.191502747E1,4.628375244E0,8.293952637E0,2.388472182E1
9.910968000E0,2.075029953E1,6.487658844E0,8.585845642E0,2.337480253E1
9.920908000E0,1.769844589E1,5.843997345E0,4.530329132E0,1.918101077E1
9.930847000E0,1.496258514E1,4.555027771E0,1.857487335E0,1.575047591E1
9.940786000E0,1.254107071E1,4.160597992E0,2.936443634E0,1.353557281E1
9.950725000E0,9.739197235E0,3.077151031E0,3.948040009E0,1.095024389E1
9.960664000E0,7.924969940E0,3.111280060E0,3.624712372E0,9.253310323E0
9.970603000E0,5.790259094E0,2.487227783E0,3.735182648E0,7.325639347E0
9.980542000E0,4.236939240E0,2.041005707E0,3.361709290E0,5.780869118E0
9.990481000E0,2.931653595E0,1.639540558E0,3.107388153E0,4.575865730E0
1.000042000E1,1.571282501E0,4.893324280E-1,3.265160065E0,3.656452539E0
1.001035900E1,3.394940186E-1,-4.011657715E-2,2.816992035E0,2.837659186E0
1.002029900E1,-8.550219727E-1,3.293151855E-3,1.877994690E0,2.063477035E0
1.003023800E1,-1.814077606E0,3.080593872E-1,1.503323822E0,2.376080946E0
1.004017700E1,-2.444416809E0,3.719764709E-1,1.409019928E0,2.845852630E0
1.005011600E1,-2.714604950E0,8.277786255E-2,1.426533508E0,3.067723922E0
1.006005500E1,-2.323168945E0,-1.547781372E-1,1.068777466E0,2.561904661E0
1.006999400E1,-2.023492126E0,-4.939727783E-1,7.981402588E-1,2.230595742E0
1.007993300E1,-1.734143829E0,-6.863227844E-1,6.777905273E-1,1.984362312E0
1.008987200E1,-1.264270935E0,-1.002914429E0,9.255253601E-1,1.860326730E0
1.009981100E1,-8.586145020E-1,-1.221609650E0,1.349743195E0,2.012797976E0
1.010975000E1,-2.583627319E-1,-1.357976074E0,1.365759888E0,1.943231945E0
1.011969000E1,2.061213684E-1,-1.145867157E0,9.225315857E-1,1.485450129E0
1.012962900E1,6.033952332E-1,-8.276289368E-1,2.785707092E-1,1.061441051E0
1.013956800E1,9.641450500E-1,-6.432124329E-1,-1.913021851E-1,1.174689081E0
1.014950700E1,9.397457886E-1,-4.638853455E-1,-5.128335571E-1,1.166751909E0
1.015944600E1,6.295907593E-1,-2.528242493E-1,-4.593946838E-1,8.193583470E-1
1.016938500E1,4.064048767E-1,-8.652008057E-2,-2.368075562E-1,4.782556501E-1
1.017932400E1,3.185375977E-1,-8.936416626E-2,-1.246907043E-1,3.535532875E-1
1.018926300E1,2.534230042E-1,-4.565505981E-2,-5.583389282E-2,2.634862940E-1
1.019920200E1,2.603086853E-1,-3.188369751E-2,-1.901046753E-2,2.629421603E-1
1.020914200E1,3.287164307E-1,-8.876541138E-2,-6.316864014E-2,3.463005445E-1
1.021908100E1,3.513194275E-1,-1.525328064E-1,-8.457412720E-2,3.922300092E-1
1.022902000E1,4.278103638E-1,-1.477427673E-1,5.388793945E-3,4.526352524E-1
1.023895900E1,6.667135620E-1,-6.646179199E-2,1.059796143E-1,6.783478622E-1
1.024889800E1,1.359772339E0,-1.960922241E-2,4.677772522E-1,1.438117135E0
1.025883700E1,3.333118744E0,7.574249268E-2,1.916464691E0,3.845549947E0
1.026877600E1,6.203250275E0,3.571572876E-1,4.456682281E0,7.646560812E0
1.027871500E1,8.206684113E0,3.662882996E-1,5.142256622E0,9.691575435E0
1.028865400E1,1.154204819E1,3.566782837E0,4.640799408E0,1.294132278E1
1.029859375E1,1.734488113E1,7.309300232E0,6.378236389E0,1.987341619E1
1.030853375E1,2.018776932E1,5.400170288E0,6.005062408E0,2.174324363E1
1.031847275E1,2.316088669E1,4.246818695E0,6.592890015E0,2.445257328E1
1.032841175E1,2.891252609E1,6.621330872E0,1.188348816E1,3.195298857E1
1.033835075E1,3.085608444E1,9.173673248E0,2.020438477E1,3.800620202E1
1.034828975E1,2.647035461E1,6.954088898E0,8.330177307E0,2.860823098E1
1.035822875E1,1.994512390E1,7.323071594E0,-1.658745621E1,2.695513028E1
1.036816775E1,2.381158356E1,1.483085907E1,-1.350087479E1,3.113229051E1
1.037810675E1,3.707235764E1,2.252470963E1,7.653584290E0,4.404883196E1
1.038804575E1,3.423695389E1,1.758543091E1,3.076402588E0,3.861192361E1
1.039798475E1,2.647828812E1,1.239677078E1,1.562600555E0,2.927834333E1
1.040792475E1,2.470462646E1,9.909093933E0,5.135820007E0,2.710876903E1
1.041786375E1,2.101120697E1,8.499475250E0,4.568350067E0,2.312102334E1
1.042780275E1,1.933199890E1,8.167914734E0,3.775598602E0,2.132360564E1
1.043774175E1,1.859508133E1,7.879015503E0,3.961212616E0,2.058026094E1
1.044768075E1,1.711930023E1,7.320377197E0,4.196672974E0,1.908586982E1
1.045761975E1,1.504311768E1,6.908733215E0,4.192781067E0,1.707645739E1
1.046755875E1,1.332214645E1,6.329886932E0,4.377197571E0,1.538528236E1
1.047749775E1,1.159099640E1,5.626799011E0,4.656816101E0,1.370029200E1
1.048743675E1,9.782756653E0,4.716092834E0,4.651726685E0,1.181450043E1
1.049737575E1,7.653883667E0,3.502416687E0,4.364024963E0,9.481222058E0
1.050731575E1,5.623505859E0,2.542612610E0,3.819457397E0,7.257888939E0
1.051725475E1,3.575315094E0,1.410217438E0,3.526666260E0,5.216221444E0
1.052719375E1,1.728006592E0,1.481918335E-1,3.795806580E0,4.173261936E0
1.053713275E1,2.007325745E-1,-7.327262878E-1,3.516188049E0,3.597326754E0
1.054707175E1,-5.821394348E-1,-1.212179260E0,2.179617462E0,2.561053916E0
1.055701075E1,-1.435215454E0,-1.535207520E0,1.138831787E0,2.390322858E0
1.056694975E1,-2.617606659E0,-2.104324036E0,6.369255066E-1,3.418438001E0
1.057688875E1,-3.292104034E0,-2.423310699E0,7.587721252E-1,4.157657857E0
1.058682775E1,-3.510649567E0,-2.314786377E0,9.825567627E-1,4.318369385E0
1.059676675E1,-3.272494812E0,-2.099384308E0,1.136736145E0,4.050778423E0
1.060670675E1,-3.210224304E0,-1.808688812E0,1.489702148E0,3.974431757E0
1.061664575E1,-3.237317963E0,-1.683698730E0,2.185455322E0,4.253385002E0
1.062658475E1,-1.857786713E0,-1.014440460E0,2.705024872E0,3.434766437E0
1.063652375E1,2.553689575E-1,-1.838177490E-1,2.416574707E0,2.436972627E0
1.064646275E1,5.845344543E-1,6.346801758E-2,2.262844391E0,2.337984913E0
1.065640175E1,6.966513062E-1,1.041833496E-1,2.713856506E0,2.803782151E0
1.066634075E1,7.072792053E-1,-1.097218323E-1,3.072959747E0,3.155212253E0
1.067627975E1,2.721340942E-1,-6.388714600E-1,2.742746429E0,2.829288194E0
1.068621875E1,-6.213578796E-1,-7.333250427E-1,1.879341888E0,2.110871187E0
1.069615775E1,-4.499642944E-1,-5.737568665E-1,7.337741089E-1,1.034451183E0
1.070609775E1,-2.890489197E-1,-3.933819580E-1,-1.347198486E-3,4.881602788E-1
1.071603675E1,-4.378395081E-1,-1.469943237E-1,-1.904040527E-1,4.995642795E-1
1.072597575E1,-2.935395813E-1,-1.007405090E-1,-4.459226990E-1,5.432873912E-1
1.073591475E1,-8.846603394E-2,-7.918533325E-2,-5.704637146E-1,5.826880862E-1
1.074585375E1,-7.035369873E-2,1.960922241E-2,-5.385800171E-1,5.435095209E-1
1.075579275E1,1.676513672E-2,8.711883545E-2,-4.577481079E-1,4.662661167E-1
1.076573175E1,9.400451660E-2,1.746867371E-1,-3.550616455E-1,4.067199004E-1
1.077567075E1,2.442919922E-1,2.507286072E-1,-2.281256104E-1,4.178333472E-1
1.078560975E1,4.580474854E-1,3.329077148E-1,-5.239105225E-2,5.686649873E-1
1.079554875E1,8.916957092E-1,6.704557800E-1,-0.000000000E0,1.115630849E0
1.080548775E1,3.218756561E0,2.146536255E0,-2.948867798E-2,3.868963850E0
1.081542775E1,1.775143570E1,4.512216797E0,1.203796692E0,1.835545413E1
1.082536675E1,2.578717529E1,2.607278137E0,3.456013184E0,2.614804650E1
1.083530575E1,1.443732742E1,4.234693909E-1,1.674088715E1,2.211047381E1
1.084524475E1,1.382659744E1,3.113824768E0,2.670746155E1,3.023506580E1
1.085518375E1,3.279590057E1,7.888595581E0,5.634283447E0,3.419862840E1
1.086512275E1,3.146352127E1,9.741741943E0,6.385271759E0,3.355035622E1
1.087506175E1,3.005899200E1,1.182525925E1,9.755213928E-1,3.231611670E1
1.088500075E1,2.720981689E1,1.382090927E1,2.156116333E0,3.059477907E1
1.089493975E1,2.952639954E1,1.568378540E1,6.527326355E0,3.406457667E1
1.090487875E1,3.458707581E1,1.957314743E1,9.721533966E0,4.091310469E1
1.091481875E1,4.353995819E1,2.078592545E1,2.390319305E1,5.384371174E1
1.092475775E1,3.388368851E1,1.435170547E1,1.427162201E1,3.946840498E1
1.093469675E1,1.843805786E1,6.560108185E0,-4.071233826E0,1.998929568E1
1.094463575E1,2.124741577E1,7.856711884E0,8.996591492E0,2.437456168E1
1.095457475E1,2.052651489E1,9.740245056E0,5.972879333E0,2.349224287E1
1.096451375E1,1.642579239E1,7.468569031E0,3.300935669E0,1.834345538E1
1.097445275E1,1.328801743E1,5.218897247E0,2.940934296E0,1.457591816E1
1.098439175E1,1.041908340E1,3.526366882E0,4.529730377E0,1.189584044E1
1.099433075E1,7.826175385E0,2.322121124E0,6.169570312E0,1.023253954E1
1.100426975E1,6.305487671E0,1.758243713E0,5.566324768E0,8.592704298E0
1.101420975E1,4.804409180E0,1.401535492E0,4.844525757E0,6.965348456E0
1.102414875E1,3.342998199E0,8.159532166E-1,4.864584045E0,5.958657109E0
1.103408775E1,1.804796906E0,3.020718384E-1,4.609514465E0,4.959451872E0
1.104402675E1,6.185137939E-1,-1.062789917E-1,4.028572540E0,4.077162156E0
1.105396575E1,-1.004411316E-1,-1.514849854E-1,3.126847687E0,3.132125888E0
1.106390475E1,-1.092428284E0,-2.073188782E-1,2.102827148E0,2.378710299E0
1.107384375E1,-2.234403534E0,-4.671784973E-1,1.529818726E0,2.747937451E0
1.108378275E1,-3.000809784E0,-5.297483826E-1,1.551224213E0,3.419325850E0
1.109372175E1,-3.370540924E0,-8.445437622E-1,1.794169006E0,3.910606438E0
1.110366075E1,-2.983745270E0,-1.469793549E0,2.053429871E0,3.908913294E0
1.111360075E1,-2.563119965E0,-2.055525513E0,2.220781860E0,3.965682937E0
1.112353975E1,-2.236050110E0,-2.345023499E0,2.002835083E0,3.809252377E0
1.113347875E1,-1.769470367E0,-2.295925598E0,1.708547058E0,3.364733687E0
1.114341775E1,-1.461860046E0,-2.442021790E0,1.435664520E0,3.187732396E0
1.115335675E1,-1.029708710E0,-1.671873322E0,1.085542603E0,2.243627236E0
1.116329575E1,-6.560856628E-1,-5.748046875E-1,3.703298950E-1,9.476249558E-1
1.117323475E1,1.094224548E-1,-4.851411438E-1,-3.635939026E-1,6.160647117E-1
1.118317375E1,3.981719971E-1,-3.285667419E-1,-5.941145325E-1,7.870636066E-1
1.119311275E1,3.617976379E-1,-1.725910950E-1,-4.692741394E-1,6.171737477E-1
1.120305175E1,3.562591553E-1,-1.137634277E-2,-3.677851868E-1,5.121678929E-1
1.121299075E1,4.158352661E-1,2.963836670E-2,-2.406994629E-1,4.813871963E-1
1.122293075E1,4.661306763E-1,2.993774414E-3,1.357676697E-1,4.855096602E-1
1.123286975E1,4.400848389E-1,4.849914551E-2,9.029223633E-1,1.005631954E0
1.124280875E1,4.790039062E-1,6.586303711E-2,1.751058655E0,1.816587211E0
1.125274775E1,6.242019653E-1,-3.526666260E-1,2.240690460E0,2.352593374E0
1.126268675E1,5.352868652E-1,-1.110989685E0,2.267634430E0,2.581277981E0
1.127262575E1,8.797206116E-1,-1.127904510E0,2.712359619E0,3.066426527E0
1.128256475E1,2.635120239E0,-6.590794373E-1,1.982178040E0,3.362629055E0
1.129250375E1,3.890559540E0,-7.933502197E-1,1.779499512E0,4.351146586E0
1.130244262E1,4.489613800E0,-6.192622375E-1,2.578687592E0,5.214378917E0
1.131238163E1,6.564449158E0,-3.637435913E-2,2.615511017E0,7.066414488E0
1.132232162E1,9.621990967E0,1.160386963E0,3.543281708E0,1.031911107E1
1.133226063E1,1.184950882E1,1.873204651E0,4.977149963E0,1.298813985E1
1.134219962E1,1.355596024E1,2.630180511E0,4.900359650E0,1.465248894E1
1.135213862E1,1.636427032E1,5.004093933E0,4.486021271E0,1.769052532E1
1.136207763E1,2.260449371E1,7.606881409E0,3.908372498E0,2.416822617E1
1.137201662E1,3.019386154E1,9.071286163E0,8.007298737E0,3.252805467E1
1.138195562E1,3.150438629E1,9.468260651E0,8.562943268E0,3.399262145E1
1.139189462E1,2.576532074E1,1.002270767E1,-3.084036713E0,2.781757905E1
1.140183362E1,2.395079407E1,1.229109055E1,-7.636968842E0,2.798275784E1
1.141177262E1,3.045177521E1,1.640887756E1,-4.376898193E-1,3.459412448E1
1.142171162E1,3.883329575E1,2.323842545E1,4.400549011E0,4.546882566E1
1.143165162E1,3.755854660E1,2.166938828E1,4.709955597E0,4.361640165E1
1.144159062E1,2.586965378E1,1.248867966E1,1.818717957E0,2.878391636E1
1.145152962E1,2.263996994E1,9.478738861E0,2.352208557E0,2.465659373E1
1.146146862E1,2.136342453E1,8.209228821E0,3.048859863E0,2.308858792E1
1.147140762E1,1.902872955E1,8.063581696E0,2.718796234E0,2.084480154E1
1.148134662E1,1.660661636E1,7.515122223E0,3.528612213E0,1.856631017E1
1.149128563E1,1.442295731E1,6.601422272E0,4.335883484E0,1.644385475E1
1.150122462E1,1.191387497E1,5.712420959E0,4.753065948E0,1.404150298E1
1.151116362E1,9.579329681E0,4.608017578E0,4.855902100E0,1.168662348E1
1.152110263E1,7.691605225E0,3.195704498E0,4.841531982E0,9.633989314E0
1.153104262E1,5.385949860E0,1.664688263E0,4.666246490E0,7.318025636E0
1.154098163E1,2.970572662E0,2.514770508E-1,4.725822601E0,5.587570305E0
1.155092062E1,1.191522217E0,-7.381150818E-1,5.111869812E0,5.300542618E0
1.156085962E1,4.415817261E-2,-1.462608490E0,4.595443726E0,4.822787221E0
1.157079862E1,-5.292993164E-1,-1.675316162E0,3.222648468E0,3.670463889E0
1.158073762E1,-7.065307617E-1,-2.047891388E0,2.228116608E0,3.107659645E0
1.159067662E1,-1.299447784E0,-2.615810394E0,1.739233246E0,3.399405955E0
1.160061562E1,-1.918710022E0,-3.016527100E0,1.936373291E0,4.065762587E0
1.161055462E1,-2.079775085E0,-3.001408539E0,2.107018433E0,4.215856295E0
1.162049362E1,-1.818418579E0,-2.746189270E0,2.400558014E0,4.075644785E0
1.163043262E1,-1.753753052E0,-2.611619110E0,2.755619659E0,4.182062153E0
1.164037262E1,-1.641187134E0,-1.962868195E0,2.747087402E0,3.754042615E0
1.165031162E1,-1.080752563E0,-1.060245209E0,2.243684235E0,2.706707400E0
1.166025062E1,-9.110055542E-1,-3.194357300E-1,1.838027802E0,2.076130175E0
1.167018963E1,-6.971003723E-1,-1.887574768E-1,1.150208130E0,1.358144711E0
1.168012862E1,-3.439846802E-1,2.589614868E-2,6.179150391E-1,7.076828853E-1
1.169006762E1,5.852828979E-2,3.236270142E-1,4.785548401E-1,5.806674952E-1
1.170000663E1,2.618055725E-1,5.601351929E-1,3.332070923E-1,7.023678228E-1
1.170994562E1,3.135978699E-1,5.453160095E-1,3.248245239E-2,6.298954548E-1
1.171988462E1,4.695735168E-1,4.849914551E-1,2.230361938E-2,6.754357487E-1
1.172982362E1,6.565347290E-1,2.799179077E-1,1.133143616E-1,7.226562322E-1
1.173976362E1,6.280938721E-1,2.200424194E-1,1.573228455E-1,6.838647938E-1
1.174970262E1,5.315446472E-1,1.429527283E-1,2.541714478E-1,6.062823759E-1
1.175964162E1,3.944297791E-1,-2.709365845E-2,5.424719238E-1,6.712560652E-1
1.176958062E1,2.213896179E-1,-1.878593445E-1,7.958949280E-1,8.472031826E-1
1.177951962E1,1.829196167E-1,-2.776725769E-1,9.354048157E-1,9.927455945E-1
1.178945862E1,2.674937439E-1,-2.758763123E-1,1.175655212E0,1.236861278E0
1.179939762E1,8.021818542E-1,-4.323010254E-1,1.684596863E0,1.915266690E0
1.180933662E1,2.141446838E0,-7.873626709E-1,2.604583740E0,3.462598879E0
1.181927562E1,3.651057587E0,-1.179996185E0,3.555107117E0,5.230812471E0
1.182921463E1,5.505551147E0,-9.267228699E-1,3.563639374E0,6.623400509E0
1.183915362E1,8.448431396E0,-3.616479492E-1,3.611839142E0,9.195225081E0
1.184909363E1,1.296124695E1,1.648072815E-1,3.314856720E0,1.337943792E1
1.185903262E1,2.096330658E1,2.905458069E0,2.931054840E0,2.136569661E1
1.186897162E1,2.956980927E1,9.153914337E0,4.208498383E0,3.123906571E1
1.187891063E1,3.187277023E1,1.396655640E1,4.310586090E0,3.506450245E1
1.188884962E1,2.795601517E1,1.712468903E1,8.108338623E0,3.377186571E1
1.189878862E1,2.657483734E1,1.843266907E1,2.534978485E0,3.244089063E1
1.190872762E1,2.624462402E1,1.290256897E1,2.697390747E-1,2.924601401E1
1.191866662E1,3.050775879E1,9.459279327E0,6.340514832E0,3.256383638E1
1.192860562E1,3.932053253E1,1.878249161E1,3.134332123E0,4.368878926E1
1.193854462E1,3.472164597E1,1.800021835E1,-3.784130859E0,3.929275004E1
1.194848362E1,2.679952011E1,1.050889664E1,3.255729675E0,2.896982848E1
1.195842362E1,2.297751801E1,1.004995102E1,4.296365662E0,2.544457913E1
1.196836262E1,2.204211319E1,9.745783539E0,2.992127838E0,2.428554878E1
1.197830163E1,1.994213013E1,7.770790558E0,2.475552063E0,2.154534980E1
1.198824062E1,1.717288879E1,7.121889954E0,1.968706055E0,1.869505896E1
1.199817962E1,1.455827591E1,6.287375336E0,2.781515808E0,1.610004088E1
1.200811863E1,1.208242447E1,5.217999115E0,3.437751160E0,1.360259640E1
1.201805762E1,9.752669220E0,4.604275360E0,2.946323090E0,1.118010413E1
1.202799662E1,7.405550079E0,4.371359711E0,2.289788361E0,8.899106047E0
1.203793562E1,5.603597260E0,3.921694794E0,2.227517853E0,7.193179275E0
1.204787462E1,3.816613312E0,3.099155273E0,2.504441986E0,5.517565608E0
1.205781463E1,2.103425903E0,2.176773376E0,2.730921021E0,4.076845899E0
1.206775362E1,1.130149841E0,1.165326691E0,2.517315216E0,2.995346534E0
1.207769262E1,4.486170959E-1,-8.382568359E-2,2.669848022E0,2.708573888E0
1.208763162E1,-1.224453735E-1,-9.020242310E-1,2.922073517E0,3.060580700E0
1.209757062E1,-7.680528259E-1,-1.317410431E0,2.901715851E0,3.278022310E0
1.210750962E1,-8.518785095E-1,-1.954785004E0,2.743045807E0,3.474360618E0
1.211744862E1,-5.843847656E-1,-2.502795410E0,3.190315704E0,4.096779798E0
1.212738762E1,-3.758683777E-1,-2.999163208E0,3.437302094E0,4.577259297E0
1.213732663E1,-5.062472534E-1,-2.999312897E0,3.506308594E0,4.641806124E0
1.214726562E1,-6.969506836E-1,-2.320474548E0,3.225342865E0,4.034002848E0
1.215720462E1,-4.599934387E-1,-1.769021301E0,2.998265076E0,3.511498796E0
1.216714462E1,-9.071136475E-2,-1.200353851E0,2.875819702E0,3.117597934E0
1.217708362E1,-3.847000122E-2,-6.825805664E-1,2.586621094E0,2.675444795E0
1.218702263E1,3.119512939E-1,-1.242416382E-1,2.363734589E0,2.387465351E0
1.219696162E1,5.782475281E-1,2.653981018E-1,2.063908081E0,2.159750662E0
1.220690062E1,5.887257385E-1,6.144721985E-1,1.435215454E0,1.668537527E0
1.221683962E1,5.002597046E-1,8.072712708E-1,5.939648438E-1,1.120152183E0
1.222677862E1,6.780899048E-1,8.479866028E-1,2.540217590E-1,1.115084863E0
1.223671762E1,6.514453125E-1,7.363188171E-1,2.752775574E-1,1.020942765E0
1.224665662E1,5.176235962E-1,6.240522766E-1,3.580554199E-1,8.863290106E-1
1.225659562E1,4.495152283E-1,5.610333252E-1,2.692900085E-1,7.676844672E-1
1.226653462E1,3.610491943E-1,3.990701294E-1,2.906954956E-1,6.116513386E-1
1.227647362E1,2.707868958E-1,2.900967407E-1,4.363426208E-1,5.898106007E-1
1.228641362E1,1.245410156E-1,1.770817566E-1,5.469625854E-1,5.882486574E-1
1.229635275E1,3.306623840E-1,3.667373657E-2,6.081852722E-1,6.932329338E-1
1.230629175E1,9.285191345E-1,2.260299683E-2,5.477110291E-1,1.078260660E0
1.231623075E1,1.340462494E0,7.589218140E-2,7.782316589E-1,1.551851744E0
1.232616975E1,1.783391418E0,1.499880981E-1,1.075363770E0,2.087914897E0
1.233610875E1,2.719095612E0,1.818717957E-1,1.217867432E0,2.984922005E0
1.234604775E1,4.721032562E0,4.215234375E-1,1.037342834E0,4.852000682E0
1.235598675E1,7.877518616E0,1.265917511E0,1.269659729E0,8.078977814E0
1.236592575E1,1.206341400E1,3.038830719E0,2.245330811E0,1.264128000E1
1.237586475E1,1.760264511E1,5.711073761E0,4.059707794E0,1.894599445E1
1.238580475E1,2.566502930E1,9.152866516E0,6.081703033E0,2.791873575E1
1.239574375E1,3.293466202E1,1.242865448E1,7.654332733E0,3.602432822E1
1.240568275E1,3.575434845E1,1.456366470E1,1.003004242E1,3.988828793E1
1.241562175E1,3.252885590E1,1.563363968E1,9.307045898E0,3.727141343E1
1.242556075E1,2.722403732E1,1.132993927E1,1.062984512E1,3.134500501E1
1.243549975E1,2.862946472E1,1.025113266E1,-3.321293335E0,3.059024290E1
1.244543875E1,3.854604309E1,2.160966248E1,-3.125949554E0,4.430063782E1
1.245537775E1,3.233530838E1,1.584619766E1,2.314936066E0,3.608369545E1
1.246531675E1,2.235586075E1,1.047147446E1,1.522334290E-1,2.468723278E1
1.247525575E1,2.333692062E1,1.201850739E1,5.286107483E0,2.677684291E1
1.248519475E1,2.055735077E1,1.004141876E1,1.451980591E0,2.292472484E1
1.249513475E1,1.743559250E1,7.465425568E0,1.073866882E0,1.899699068E1
1.250507375E1,1.531704803E1,6.828649750E0,1.961970062E0,1.688466003E1
1.251501275E1,1.253149063E1,6.062842255E0,3.727847900E0,1.441156354E1
1.252495175E1,1.042252625E1,5.048850861E0,4.103267212E0,1.228644579E1
1.253489075E1,9.067543945E0,4.042493591E0,3.114573212E0,1.040493508E1
1.254482975E1,7.612868958E0,3.428620148E0,3.303929443E0,8.979262756E0
1.255476875E1,5.930667114E0,3.082988892E0,4.081861725E0,7.831936419E0
1.256470775E1,4.035458221E0,2.262694702E0,4.281696167E0,6.303779219E0
1.257464675E1,2.607427826E0,1.410816193E0,3.503913574E0,4.589824891E0
1.258458575E1,1.556613007E0,8.039781189E-1,2.223775635E0,2.831007408E0
1.259452475E1,1.682501221E-1,6.032455444E-2,2.043999481E0,2.051799463E0
1.260446475E1,-7.417076111E-1,-2.038760376E-1,2.590662689E0,2.702448665E0
1.261440375E1,-1.329086151E0,-2.908451843E-1,3.624113617E0,3.871080008E0
1.262434275E1,-2.077529755E0,-4.391867065E-1,4.206253052E0,4.711855216E0
1.263428175E1,-2.671793976E0,2.559677124E-2,4.854554901E0,5.541285188E0
1.264422075E1,-2.487078094E0,1.827699280E-1,4.156107330E0,4.846874295E0
1.265415975E1,-1.244961090E0,8.562194824E-2,3.347937927E0,3.572946627E0
1.266409875E1,-1.137933655E0,1.145118713E-1,3.033741302E0,3.242158581E0
1.267403775E1,-1.037342834E0,-1.375639343E-1,2.548001404E0,2.754508150E0
1.268397675E1,-7.408094788E-1,-4.028123474E-1,1.904788971E0,2.083093252E0
1.269391575E1,-3.472778320E-1,-7.012916565E-1,1.307980042E0,1.524212475E0
1.270385475E1,-1.698966980E-1,-5.921685791E-1,7.875123596E-1,9.998521044E-1
1.271379475E1,-1.895059204E-1,-6.268963623E-1,2.618055725E-1,7.053039775E-1
1.272373375E1,1.877096558E-1,-9.924362183E-1,-1.818717957E-1,1.026275749E0
1.273367275E1,2.706372070E-1,-8.574169922E-1,-2.395019531E-3,8.991185308E-1
1.274361175E1,4.131408691E-1,-6.553372192E-1,1.547781372E-1,7.900053927E-1
1.275355075E1,3.812571716E-1,-5.310955811E-1,9.295669556E-2,6.603487672E-1
1.276348975E1,2.463876343E-1,-2.894979858E-1,2.456391907E-1,4.526086191E-1
1.277342875E1,2.757266235E-1,-1.200503540E-1,3.182382202E-1,4.378502292E-1
1.278336775E1,2.601589966E-1,-1.219963074E-1,5.358856201E-1,6.080618393E-1
1.279330675E1,2.493814087E-1,-9.505233765E-2,8.568182373E-1,8.974204843E-1
1.280324575E1,3.565585327E-1,-2.035766602E-2,1.019080811E0,1.079849119E0
1.281318475E1,4.396357727E-1,5.822891235E-2,1.074615326E0,1.162526695E0
1.282312475E1,6.264472961E-1,4.535568237E-2,1.153950348E0,1.313809255E0
1.283306375E1,1.289418640E0,1.300794983E-1,1.399888916E0,1.907671377E0
1.284300275E1,3.303480377E0,5.828878784E-1,1.557511139E0,3.698456682E0
1.285294175E1,6.693181458E0,1.252894592E0,1.981130219E0,7.091776916E0
1.286288075E1,1.007300308E1,1.961670685E0,3.800895996E0,1.094350736E1
1.287281975E1,1.459734467E1,3.356021118E0,5.183271332E0,1.584965775E1
1.288275875E1,2.125744492E1,5.748945007E0,6.073470154E0,2.284330039E1
1.289269775E1,3.040761703E1,9.178912354E0,8.356821899E0,3.284375250E1
1.290263675E1,3.450699234E1,1.162527512E1,1.036863831E1,3.786011361E1
1.291257575E1,3.054353439E1,1.016790573E1,8.332272949E0,3.325237695E1
1.292251475E1,2.557626389E1,9.629924469E0,2.910248108E0,2.748363629E1
1.293245375E1,2.718930954E1,1.555595123E1,5.039121094E0,3.172757339E1
1.294239375E1,3.324481705E1,1.526046570E1,-5.721102905E-1,3.658451837E1
1.295233275E1,4.001853104E1,1.698038910E1,3.665876770E0,4.362631193E1
1.296227175E1,3.300052505E1,1.455094116E1,1.187765030E1,3.797160938E1
1.297221075E1,1.886377258E1,8.521329803E0,-2.097737732E0,2.080517919E1
1.298214975E1,1.973570938E1,8.678353271E0,7.269483032E0,2.275208614E1
1.299208875E1,2.150383255E1,1.149369873E1,7.218738556E0,2.542892273E1
1.300202775E1,1.836096817E1,1.021011795E1,-1.498384094E0,2.106221298E1
1.301196675E1,1.512634460E1,7.655530243E0,-2.574645996E0,1.714766009E1
1.302190575E1,1.284448975E1,6.168223114E0,9.056167603E-1,1.427753602E1
1.303184475E1,1.039438477E1,4.637057190E0,3.204236755E0,1.182424066E1
1.304178375E1,8.003257141E0,3.621419220E0,4.055666199E0,9.675496388E0
1.305172375E1,5.977369995E0,3.171005859E0,3.476819916E0,7.607398172E0
1.306166275E1,3.661236420E0,2.524949341E0,4.143832855E0,6.078764021E0
1.307160175E1,2.003284149E0,1.768422546E0,4.415817261E0,5.161386225E0
1.308154075E1,1.034798126E0,1.252595215E0,4.125421143E0,4.433835985E0
1.309147975E1,2.793191528E-1,1.050216064E0,3.807182922E0,3.959244218E0
1.310141875E1,4.041595459E-3,1.060843964E0,3.189567261E0,3.361360671E0
1.311135775E1,-2.167492676E-1,8.693920898E-1,2.784958649E0,2.925545680E0
1.312129675E1,-6.002517700E-2,6.782395935E-1,2.293231201E0,2.392179197E0
1.313123575E1,1.648072815E-1,1.924996948E-1,1.904040527E0,1.920830003E0
1.314117475E1,5.168751526E-1,-4.875361633E-1,1.613794098E0,1.763287505E0
1.315111375E1,9.394464111E-1,-1.156644745E0,1.575024719E0,2.168199597E0
1.316105375E1,7.451504517E-1,-1.741628265E0,1.826950836E0,2.631780304E0
1.317099275E1,1.957928467E-1,-1.710942078E0,2.089205475E0,2.707478005E0
1.318093175E1,-2.026785278E-1,-1.501976624E0,1.911375275E0,2.439337575E0
1.319087075E1,-5.873785400E-1,-1.137035522E0,1.863025818E0,2.260249660E0
1.320080975E1,-8.557704163E-1,-9.139993286E-1,1.833088074E0,2.219898571E0
1.321074875E1,-9.955796814E-1,-7.002438354E-1,1.671723633E0,2.067892704E0
1.322068775E1,-1.031205597E0,-4.219725037E-1,1.808838501E0,2.124462873E0
1.323062675E1,-7.077282715E-1,-4.086502075E-2,1.772763519E0,1.909251097E0
1.324056575E1,1.426533508E-1,6.218069458E-1,1.855541382E0,1.962148740E0
1.325050475E1,5.116360474E-1,1.029109955E0,1.506167908E0,1.894566048E0
1.326044375E1,2.915936279E-1,1.200802917E0,8.247848511E-1,1.485673094E0
1.327038275E1,1.877096558E-1,1.200353851E0,6.933581543E-1,1.398867332E0
1.328032275E1,-6.092330933E-2,1.171463928E0,8.167016602E-1,1.429349847E0
1.329026175E1,-6.765930176E-2,8.753796387E-1,1.106199646E0,1.412283594E0
1.330020017E1,-3.719764709E-1,8.517288208E-1,1.510658569E0,1.773667892E0
1.331013917E1,-2.243833923E-1,7.229965210E-1,1.583407288E0,1.755064248E0
1.332007817E1,3.894900513E-1,5.510041809E-1,1.660047913E0,1.791945083E0
1.333001717E1,1.146765289E0,4.028123474E-1,1.868115234E0,2.228717780E0
1.333995617E1,1.850601654E0,2.674937439E-1,1.908082123E0,2.671527049E0
1.334989517E1,3.013683014E0,6.051914978E-1,1.805844727E0,3.565055011E0
1.335983417E1,5.424120483E0,9.873468018E-1,2.149679718E0,5.917521408E0
1.336977317E1,8.901090088E0,1.778152313E0,2.639910278E0,9.453060704E0
1.337971217E1,1.241533218E1,2.933300171E0,2.626138916E0,1.302464313E1
1.338965217E1,1.569186859E1,3.868704987E0,2.765349426E0,1.639660866E1
1.339959117E1,2.052097641E1,4.628674622E0,2.617157593E0,2.119869372E1
1.340953017E1,2.575843506E1,6.241420898E0,5.623805237E0,2.709390147E1
1.341946917E1,3.237422745E1,1.006866211E1,8.197852478E0,3.488084495E1
1.342940817E1,3.238500504E1,1.215652039E1,4.157155151E0,3.484037138E1
1.343934717E1,2.633264099E1,1.114372650E1,4.467459869E0,2.894043572E1
1.344928617E1,2.690310471E1,1.400697235E1,6.633305969E0,3.104791564E1
1.345922517E1,3.541799789E1,1.938109680E1,1.064586182E0,4.038805308E1
1.346916417E1,3.891846863E1,1.911405212E1,-4.494104462E0,4.359118218E1
1.347910317E1,2.877002243E1,1.394889313E1,-9.333091736E-1,3.198682348E1
1.348904217E1,2.310969315E1,1.151510422E1,3.661236420E0,2.607796377E1
1.349898117E1,2.205393860E1,1.203931412E1,2.609673157E0,2.526126850E1
1.350892117E1,1.975322296E1,1.167946243E1,-7.144642639E-1,2.295887888E1
1.351886017E1,1.709789474E1,1.005533981E1,-1.255139923E0,1.987519156E1
1.352879917E1,1.552227127E1,8.619076538E0,1.560055847E0,1.782310747E1
1.353873817E1,1.315150131E1,6.918163605E0,2.901117096E0,1.514065569E1
1.354867717E1,1.081276474E1,5.251379700E0,3.674259338E0,1.256952870E1
1.355861617E1,9.714648285E0,3.752995605E0,3.687881012E0,1.104806923E1
1.356855517E1,8.412356415E0,2.852468262E0,3.101250916E0,9.408616948E0
1.357849417E1,6.725663910E0,2.467169495E0,2.371518402E0,7.546229514E0
1.358843317E1,4.760700073E0,1.404229889E0,2.413880310E0,5.519324680E0
1.359837217E1,2.732567596E0,1.350192261E-1,2.547851715E0,3.738543061E0
1.360831117E1,1.717229004E0,-5.538482666E-1,1.748214569E0,2.512345027E0
1.361825117E1,6.872209167E-1,-7.779322815E-1,1.271905060E0,1.641704512E0
1.362819017E1,-4.861889648E-1,-8.187973022E-1,1.850751343E0,2.081367162E0
1.363812917E1,-1.435365143E0,-8.195457458E-1,2.903661804E0,3.341134567E0
1.364806817E1,-2.376757507E0,-1.109792175E0,3.017425232E0,3.998183331E0
1.365800717E1,-3.530109100E0,-1.289119263E0,3.358266449E0,5.039985345E0
1.366794617E1,-3.865112457E0,-9.728269958E-1,4.220024414E0,5.804661293E0
1.367788517E1,-2.773881683E0,-2.619552612E-1,4.807253265E0,5.556322895E0
1.368782417E1,-1.280287628E0,4.728666687E-1,5.366640015E0,5.537469128E0
1.369776317E1,-1.058149567E0,1.052311707E-1,4.305047607E0,4.434432208E0
1.370770217E1,-1.102607117E0,-4.415817261E-2,2.906954956E0,3.109353553E0
1.371764117E1,-7.152127075E-1,-4.760101318E-2,1.851948853E0,1.985827189E0
1.372758117E1,-1.996847534E-1,8.966354370E-2,1.084195404E0,1.106071076E0
1.373752017E1,2.218386841E-1,2.360591125E-1,5.117857361E-1,6.056904705E-1
1.374745917E1,5.921685791E-1,1.670526123E-1,-1.637594604E-1,6.367003708E-1
1.375739817E1,7.267387390E-1,-4.595443726E-2,-6.813830566E-1,9.972682061E-1
1.376733717E1,8.539741516E-1,-2.905458069E-1,-6.551875305E-1,1.114880898E0
1.377727617E1,6.911128235E-1,-5.028044128E-1,-3.781137085E-1,9.345689856E-1
1.378721517E1,5.812413025E-1,-6.080355835E-1,-2.351609802E-1,8.734125080E-1
1.379715417E1,3.041674805E-1,-3.978726196E-1,-2.484832764E-2,5.014358553E-1
1.380709317E1,1.639091492E-1,-2.691403198E-1,2.576142883E-1,4.070231474E-1
1.381703217E1,1.598675537E-1,-3.815565491E-1,6.494993591E-1,7.700600317E-1
1.382697117E1,2.236349487E-1,-4.173321533E-1,9.583071899E-1,1.068892598E0
1.383691017E1,3.474275208E-1,-4.748126221E-1,1.369801483E0,1.490808174E0
1.384684917E1,8.454418945E-1,-5.340893555E-1,1.722767487E0,1.991971699E0
1.385678917E1,1.892215118E0,-4.505630493E-1,1.963017883E0,2.763498566E0
1.386672817E1,3.766018524E0,-2.746788025E-1,2.707868958E0,4.646600721E0
1.387666717E1,6.151308289E0,4.790039063E-2,3.829636230E0,7.246171525E0
1.388660617E1,9.722132721E0,1.732048187E0,4.351750488E0,1.079155169E1
1.389654517E1,1.305644897E1,3.846700745E0,4.564757538E0,1.435635670E1
1.390648417E1,1.485121674E1,5.152884521E0,4.512216797E0,1.635453937E1
1.391642317E1,1.836171661E1,6.738237762E0,4.726571045E0,2.012205156E1
1.392636217E1,2.575978226E1,1.023930725E1,5.648354187E0,2.828981619E1
1.393630117E1,3.290726898E1,1.336106552E1,6.983876953E0,3.619642194E1
1.394624017E1,3.174673233E1,1.565669174E1,8.437803497E0,3.638933275E1
1.395617917E1,2.905248505E1,1.707993210E1,6.788982239E0,3.437820891E1
1.396611917E1,2.652304504E1,1.181373322E1,6.446943512E0,2.974221396E1
1.397605817E1,3.252436523E1,1.306647812E1,7.802075500E0,3.590876726E1
1.398599717E1,3.638513672E1,1.479583191E1,5.497318268E0,3.966125722E1
1.399593617E1,2.203058716E1,9.867031403E0,-4.299209747E0,2.451914117E1
1.400587517E1,2.032129166E1,9.425150299E0,4.518653412E0,2.285183978E1
1.401581417E1,2.194316895E1,1.067265610E1,5.042563934E0,2.491657486E1
1.402575317E1,2.006412643E1,8.916657715E0,3.247496796E0,2.219509382E1
1.403569217E1,1.665242111E1,6.968159637E0,5.700146484E-1,1.806054524E1
1.404563117E1,1.394709686E1,5.835914154E0,8.650511169E-1,1.514357020E1
1.405557017E1,1.180714691E1,5.005890198E0,3.423381042E0,1.327355237E1
1.406550917E1,9.473350067E0,4.768334198E0,4.713398438E0,1.160592510E1
1.407544817E1,7.204518127E0,5.091212769E0,4.274211731E0,9.802775873E0
1.408538817E1,5.521418152E0,5.517825623E0,3.310964813E0,8.479088748E0
1.409532717E1,3.907324677E0,5.205724640E0,3.691473541E0,7.482895967E0
1.410526617E1,2.730322266E0,4.837191010E0,3.590882721E0,6.614190446E0
1.411520517E1,1.453178101E0,4.421505432E0,3.136128387E0,5.612195483E0
1.412514417E1,8.622070313E-1,3.711382141E0,2.653981018E0,4.643422618E0
1.413508317E1,7.403604126E-1,2.585124207E0,2.344125366E0,3.567341368E0
1.414502217E1,3.537144470E-1,1.525627441E0,2.092049561E0,2.613297603E0
1.415496117E1,1.414558411E-1,6.807843018E-1,1.642085266E0,1.783233311E0
1.416490017E1,-5.867797852E-2,-5.251080322E-1,1.243164825E0,1.350792484E0
1.417483917E1,-4.625381470E-2,-1.443298645E0,1.015338593E0,1.765265660E0
1.418477817E1,1.616638184E-2,-1.548380127E0,1.021775208E0,1.855199974E0
1.419471717E1,-5.538482666E-3,-1.482217712E0,1.222507782E0,1.921334250E0
1.420465717E1,-2.965333557E-1,-1.033600616E0,1.475930786E0,1.826098012E0
1.421459617E1,-3.791615295E-1,-3.348536682E-1,1.293160858E0,1.388580372E0
1.422453517E1,-4.020639038E-1,1.384620667E-1,9.116043091E-1,1.005907323E0
1.423447417E1,-5.141807556E-1,1.800755310E-1,6.292913818E-1,8.323561074E-1
1.424441317E1,-6.568341064E-1,2.580633545E-1,2.186952209E-1,7.388202339E-1
1.425435217E1,-5.602848816E-1,2.297721863E-1,2.827619934E-1,6.683328146E-1
1.426429117E1,-4.061054993E-1,1.032852173E-1,4.463717651E-1,6.122395490E-1
1.427423017E1,-5.816903687E-1,1.651066589E-1,1.054706726E0,1.215742642E0
1.428416917E1,-4.475692749E-1,-1.517843628E-1,1.652114410E0,1.718382604E0
1.429410817E1,-3.448828125E-1,-2.176473999E-1,1.723515930E0,1.771107480E0
1.430404750E1,-6.840774536E-2,-4.086502075E-2,1.996697845E0,1.998287231E0
1.431398650E1,1.103205872E-1,1.266366577E-1,2.443518677E0,2.449283773E0
1.432392650E1,3.353027344E-2,1.118174744E-1,3.061583405E0,3.063808148E0
1.433386550E1,-2.290237427E-1,3.891906738E-3,3.679648132E0,3.686770592E0
1.434380450E1,-5.598358154E-2,3.981719971E-1,4.152963867E0,4.172383489E0
1.435374350E1,5.560935974E-1,9.674382019E-1,4.571493530E0,4.705712471E0
1.436368250E1,1.675016785E0,1.309776306E0,4.009562073E0,4.538478073E0
1.437362150E1,3.252885590E0,1.250649261E0,3.235821075E0,4.755620492E0
1.438356050E1,5.641618195E0,1.901495819E0,2.821931763E0,6.588386834E0
1.439349950E1,8.744365997E0,3.420387268E0,2.628234558E0,9.750415512E0
1.440343850E1,1.304567139E1,5.551804962E0,2.684218140E0,1.442972998E1
1.441337750E1,2.040317139E1,7.807314606E0,3.154989166E0,2.207255129E1
1.442331650E1,2.843367188E1,8.483757935E0,7.639064484E0,3.063989476E1
1.443325550E1,3.181379288E1,9.116791534E0,1.275183243E1,3.546607584E1
1.444319550E1,2.566203552E1,9.658215637E0,1.221265366E1,3.001616407E1
1.445313450E1,2.103530685E1,7.883506165E0,-3.949237518E0,2.280855719E1
1.446307350E1,2.460762817E1,1.194680649E1,-1.108983856E1,2.951687770E1
1.447301250E1,3.135484726E1,1.835378311E1,1.875749359E0,3.638002525E1
1.448295150E1,3.410642532E1,1.763797165E1,6.474935303E0,3.893932562E1
1.449289050E1,2.824641129E1,1.483594849E1,-2.059716797E-1,3.190623046E1
1.450282950E1,2.562356552E1,1.202688995E1,2.447111206E0,2.841129257E1
1.451276850E1,2.191936844E1,1.074330917E1,3.936513977E0,2.472596908E1
1.452270750E1,1.872411301E1,1.120884109E1,2.149679718E0,2.192832984E1
1.453264650E1,1.707993210E1,1.039917480E1,1.503323822E0,2.005310199E1
1.454258550E1,1.555445435E1,9.011560364E0,1.933678894E0,1.808005487E1
1.455252550E1,1.401954620E1,7.536527710E0,2.094594269E0,1.605410386E1
1.456246450E1,1.195743439E1,6.381080475E0,2.346819763E0,1.375521676E1
1.457240350E1,9.710906067E0,5.444029083E0,2.929857330E0,1.151187271E1
1.458234250E1,8.054151306E0,4.686604156E0,3.121458893E0,9.827365741E0
1.459228150E1,6.284531250E0,3.899540863E0,3.307222595E0,8.101819133E0
1.460222050E1,4.341122589E0,3.436254272E0,3.475173340E0,6.536820213E0
1.461215950E1,2.562970276E0,2.651136932E0,3.582500153E0,5.141172144E0
1.462209850E1,1.324595490E0,1.683549042E0,3.548969879E0,4.145368233E0
1.463203750E1,6.155200195E-1,8.970845032E-1,3.090623016E0,3.276518904E0
1.464197650E1,-5.912704468E-2,3.504212952E-1,3.059338074E0,3.079909177E0
1.465191550E1,-4.474195862E-1,1.844165039E-1,2.958148499E0,2.997471647E0
1.466185450E1,-6.524931335E-1,-3.173400879E-2,2.863096161E0,2.936677368E0
1.467179350E1,-8.518785095E-1,-2.490820312E-1,2.924468536E0,3.056183089E0
1.468173350E1,-9.386979675E-1,-2.591111755E-1,3.106340332E0,3.255402085E0
1.469167250E1,-8.063731384E-1,-3.189866638E-1,2.622845764E0,2.762482585E0
1.470161150E1,-8.379574585E-1,-3.432362366E-1,2.271676025E0,2.445505220E0
1.471155050E1,-7.858657837E-1,-2.050735474E-1,1.951042786E0,2.113340517E0
1.472148950E1,-7.045848083E-1,-1.266366577E-1,1.967658234E0,2.093837510E0
1.473142850E1,-7.482939148E-1,-1.782792664E-1,2.460732880E0,2.578164771E0
1.474136750E1,-4.230203247E-1,-3.007246399E-1,2.544259186E0,2.596658682E0
1.475130650E1,-2.844085693E-1,-1.853146362E-1,1.921703796E0,1.951454645E0
1.476124550E1,1.601669312E-2,-4.041595459E-2,1.315015411E0,1.315733832E0
1.477118450E1,-2.639012146E-1,-3.191363525E-1,1.488654327E0,1.545180756E0
1.478112350E1,-2.812651062E-1,-4.691244507E-1,1.548679504E0,1.642436001E0
1.479106350E1,2.689906311E-1,-3.481759644E-1,1.065184937E0,1.152476208E0
1.480100250E1,5.574407959E-1,-2.751278687E-1,7.937992859E-1,1.008242476E0
1.481094150E1,5.043013000E-1,-1.899549866E-1,3.447331238E-1,6.397215213E-1
1.482088050E1,5.364843750E-1,-1.462458801E-1,-4.071533203E-2,5.575491730E-1
1.483081950E1,3.629951477E-1,-1.182540894E-1,-9.026229858E-2,3.922968130E-1
1.484075850E1,2.577639771E-1,-1.588197327E-1,2.321672058E-1,3.815332054E-1
1.485069750E1,1.514849854E-1,-8.891510010E-2,8.101153564E-1,8.289393745E-1
1.486063650E1,4.382885742E-1,1.942959595E-1,1.662592621E0,1.730335810E0
1.487057550E1,2.383643188E0,9.753717041E-1,2.400857391E0,3.520968762E0
1.488051450E1,5.590424652E0,1.674867096E0,3.539988556E0,6.825653563E0
1.489045350E1,8.543932800E0,2.235002289E0,4.783452759E0,1.004367678E1
1.490039250E1,1.101409607E1,3.176095276E0,5.779182129E0,1.283732213E1
1.491033250E1,1.362646362E1,4.497846680E0,5.682034149E0,1.543362069E1
1.492027150E1,1.885314468E1,6.022276611E0,4.892575836E0,2.038740244E1
1.493021050E1,2.465073853E1,8.221952362E0,6.618337097E0,2.681532764E1
1.494014950E1,2.868455017E1,1.041459274E1,6.885082397E0,3.128372612E1
1.495008850E1,2.844220413E1,9.754764862E0,4.323609009E0,3.037775516E1
1.496002750E1,2.581082611E1,8.744515686E0,6.199657745E0,2.794818519E1
1.496996650E1,2.794927917E1,1.207673630E1,4.013753357E0,3.071025858E1
1.497990550E1,3.140244827E1,1.838641525E1,-3.648363190E0,3.657163624E1
1.498984450E1,3.240371613E1,1.921988205E1,1.251397705E0,3.769576476E1
1.499978350E1,2.927881439E1,1.594154938E1,4.942871246E0,3.370183890E1
1.500972250E1,2.532583466E1,1.220921082E1,3.689527588E0,2.835622231E1
1.501966150E1,2.327764389E1,1.032103729E1,4.355941772E0,2.583305527E1
1.502960150E1,2.029300049E1,8.585695953E0,3.649860077E0,2.233476041E1
1.503954050E1,1.892155243E1,7.472760315E0,3.859723663E0,2.070663565E1
1.504947950E1,1.789049652E1,6.498735809E0,4.333488464E0,1.952133590E1
1.505941850E1,1.564636322E1,5.472320251E0,4.365970917E0,1.714108144E1
1.506935750E1,1.267070114E1,4.500092010E0,3.850742340E0,1.398662619E1
1.507929650E1,1.074271042E1,3.265908508E0,3.347189484E0,1.171646973E1
1.508923550E1,9.225764923E0,1.961970062E0,3.764072571E0,1.015540778E1
1.509917450E1,7.291038208E0,1.237925720E0,4.236190796E0,8.522734931E0
1.510911350E1,4.946014709E0,9.213340759E-1,3.659589844E0,6.221295348E0
1.511905250E1,2.420017548E0,4.459226990E-1,3.086132355E0,3.947093221E0
1.512899150E1,8.785231018E-1,4.149371338E-1,1.850751343E0,2.090276584E0
1.513893150E1,-7.271878052E-1,1.257385254E-2,1.637295227E0,1.791562409E0
1.514887050E1,-1.654958496E0,-3.927832031E-1,2.107018433E0,2.707894559E0
1.515880950E1,-2.210303650E0,-3.845503235E-1,2.842588806E0,3.621274955E0
1.516874850E1,-2.752476196E0,-3.335064697E-1,3.209775238E0,4.241463056E0
1.517868750E1,-3.049159241E0,2.350112915E-2,2.830164642E0,4.160259160E0
1.518862650E1,-3.187621307E0,4.802014160E-1,2.796035614E0,4.267240110E0
1.519856550E1,-2.825823669E0,1.152154083E0,2.893183594E0,4.205145628E0
1.520850450E1,-1.648521881E0,1.163979492E0,2.346670074E0,3.095049772E0
1.521844350E1,-1.334325256E0,9.964778137E-1,1.956880646E0,2.569586306E0
1.522838250E1,-1.065783691E0,9.354048157E-1,1.550475769E0,2.101154958E0
1.523832150E1,-7.339237976E-1,6.655160522E-1,1.429826660E0,1.739528682E0
1.524826050E1,-4.312532043E-1,3.161425781E-1,1.245110779E0,1.355074281E0
1.525820050E1,-1.869612122E-1,-1.571731567E-2,7.981402588E-1,8.198959700E-1
1.526813950E1,-4.102967834E-1,-3.074606323E-1,6.426136780E-1,8.220874832E-1
1.527807850E1,-4.471202087E-1,-3.224295044E-1,5.480104065E-1,7.772983160E-1
1.528801750E1,-3.059637451E-1,-1.950444031E-1,5.011578369E-1,6.187207044E-1
1.529795662E1,-1.143621826E-1,-1.778302002E-1,4.942721558E-1,5.375939480E-1
1.530789562E1,-1.010398865E-1,-1.377136230E-2,6.686595154E-1,6.763906095E-1
1.531783462E1,-3.802093506E-2,5.942642212E-2,9.253756714E-1,9.280610025E-1
1.532777363E1,3.222798157E-1,1.845661926E-1,1.158141632E0,1.216232296E0
1.533771262E1,5.204676819E-1,4.659809875E-1,1.219813385E0,1.405691852E0
1.534765162E1,1.081950073E0,6.472540283E-1,1.156794434E0,1.711060227E0
1.535759063E1,1.512005768E0,6.533912659E-1,1.550625458E0,2.262193824E0
1.536752962E1,2.067949677E0,6.231541443E-1,1.588646393E0,2.681144217E0
1.537746963E1,3.198099518E0,8.131091309E-1,1.305585022E0,3.548737696E0
1.538740862E1,4.992418213E0,1.175206146E0,8.637039185E-1,5.201089651E0
1.539734762E1,7.035519562E0,1.823807373E0,1.304088135E0,7.384135339E0
1.540728662E1,8.835676117E0,2.295326843E0,4.330045624E0,1.010381081E1
1.541722562E1,1.213661179E1,2.339185638E0,5.780828705E0,1.364503996E1
1.542716462E1,1.596190704E1,3.102747803E0,5.169499969E0,1.706262730E1
1.543710362E1,1.953797058E1,4.642146606E0,5.686225433E0,2.087139141E1
1.544704262E1,2.515354294E1,6.092031555E0,6.094127197E0,2.658856817E1
1.545698163E1,3.045566711E1,8.809181213E0,9.781409454E0,3.317868750E1
1.546692062E1,2.882974823E1,9.850715332E0,6.009403381E0,3.105324306E1
1.547685962E1,2.208118195E1,7.654482422E0,4.441563721E0,2.378859360E1
1.548679962E1,2.493888931E1,1.202778809E1,1.312620392E0,2.771892600E1
1.549673862E1,2.968237518E1,1.728186218E1,-6.048172760E0,3.487530001E1
1.550667763E1,3.371903091E1,1.973810440E1,-1.820065155E0,3.911366064E1
1.551661662E1,2.997875885E1,1.632520157E1,4.153412933E0,3.438733818E1
1.552655562E1,2.533526505E1,1.177556259E1,1.712588654E0,2.799057858E1
1.553649463E1,2.304203384E1,9.181756439E0,1.135838013E0,2.483002422E1
1.554643362E1,2.118289993E1,8.031398621E0,1.526525574E0,2.270570179E1
1.555637262E1,1.984004242E1,7.221133575E0,1.752256165E0,2.118590227E1
1.556631162E1,1.829285980E1,6.766678619E0,2.130369873E0,1.962027357E1
1.557625062E1,1.670690781E1,6.127657471E0,3.417094116E0,1.812030592E1
1.558618962E1,1.501018616E1,5.855673065E0,3.552712097E0,1.649898054E1
1.559612962E1,1.285691391E1,5.392386475E0,3.000211029E0,1.426111263E1
1.560606862E1,1.042342438E1,4.583768005E0,2.762655029E0,1.171712284E1
1.561600762E1,7.973768463E0,3.816763000E0,2.963986359E0,9.323833892E0
1.562594662E1,5.377567291E0,2.752027130E0,2.931503906E0,6.714581033E0
1.563588563E1,2.729124756E0,1.649869080E0,2.524649963E0,4.067437443E0
1.564582462E1,1.122964783E0,1.152154083E0,1.849404144E0,2.451286320E0
1.565576362E1,3.001258850E-1,1.078806610E0,1.191372528E0,1.635013073E0
1.566570263E1,-7.084767151E-1,7.640112305E-1,1.408421173E0,1.751942527E0
1.567564162E1,-1.465452576E0,3.550616455E-1,1.842967529E0,2.381207538E0
1.568558062E1,-1.712139587E0,6.212081909E-2,1.873803406E0,2.538980143E0
1.569551962E1,-2.220781860E0,-1.499880981E-1,1.993554382E0,2.988080919E0
1.570545862E1,-2.226320343E0,-5.551954651E-1,2.235151978E0,3.203224725E0
1.571539863E1,-2.042502594E0,-8.220904541E-1,2.619103546E0,3.421600933E0
1.572533762E1,-1.496737518E0,-8.943901062E-1,3.128494263E0,3.581568541E0
1.573527662E1,-1.303190002E0,-7.499404907E-1,3.362158356E0,3.683045442E0
1.574521562E1,-8.888516235E-1,-7.002438354E-1,3.427572327E0,3.609522225E0
1.575515462E1,-9.870474243E-1,-3.619473267E-1,2.858755188E0,3.045939873E0
1.576509362E1,-6.542893982E-1,-3.324586487E-1,2.332150269E0,2.444902502E0
1.577503262E1,-5.516029358E-1,-3.501219177E-1,2.199526062E0,2.294507802E0
1.578497162E1,-4.107458496E-1,-2.335144043E-1,1.986668701E0,2.042080718E0
1.579491063E1,-2.948867798E-1,-4.387376404E-1,1.860930176E0,1.934556809E0
1.580484962E1,-1.215472412E-1,-4.912783813E-1,1.746717682E0,1.818557351E0
1.581478862E1,7.918533325E-2,-4.270619202E-1,1.346300354E0,1.414629578E0
1.582472862E1,1.830693054E-1,-8.065228271E-1,8.825646973E-1,1.209509771E0
1.583466762E1,4.438270569E-1,-8.702902222E-1,4.954696655E-1,1.095389299E0
1.584460663E1,3.417393494E-1,-7.461982727E-1,2.703378296E-1,8.641065832E-1
1.585454562E1,2.722837830E-1,-2.272274780E-1,2.384541321E-1,4.273536689E-1
1.586448462E1,5.029541016E-1,2.850073242E-1,5.929170227E-1,8.280957668E-1
1.587442362E1,1.028810577E0,4.508624268E-1,1.345102844E0,1.752435389E0
1.588436262E1,1.332079926E0,3.978726196E-1,1.953437805E0,2.397636088E0
1.589430162E1,1.939067688E0,5.683680725E-1,2.311343536E0,3.070070798E0
1.590424062E1,3.080743561E0,9.542655945E-1,3.012784882E0,4.413442699E0
1.591417962E1,4.774920502E0,1.469943237E0,3.020269318E0,5.838032688E0
1.592411863E1,6.611301727E0,2.163451080E0,2.587369537E0,7.421880640E0
1.593405862E1,8.559500427E0,2.738704834E0,2.917433167E0,9.448649005E0
1.594399762E1,1.193108917E1,3.807482300E0,3.066672821E0,1.289388586E1
1.595393662E1,1.772059982E1,6.281537476E0,2.850671997E0,1.901588026E1
1.596387562E1,2.665177734E1,9.976154480E0,4.593946838E0,2.882612082E1
1.597381463E1,3.443858459E1,1.395547943E1,8.461903381E0,3.811004230E1
1.598375362E1,3.471745468E1,1.507410324E1,1.521196655E1,4.079134926E1
1.599369262E1,2.663815567E1,1.048060547E1,8.297545166E0,2.980408838E1
1.600363163E1,2.234029312E1,8.302634583E0,-1.166539169E1,2.653495433E1
1.601357062E1,3.008563660E1,1.646545990E1,-8.468190308E0,3.532657847E1
1.602350962E1,3.959895355E1,1.910851364E1,5.303022308E0,4.428695589E1
1.603344862E1,3.040372513E1,1.212807953E1,-1.209035797E0,3.275574121E1
1.604338862E1,2.537433380E1,1.060155396E1,2.485730896E0,2.761211003E1
1.605332762E1,2.348616028E1,8.675958252E0,4.027674408E0,2.535930081E1
1.606326662E1,1.965727249E1,6.752308502E0,1.691632233E0,2.085338465E1
1.607320562E1,1.755100250E1,6.525081024E0,1.999691620E0,1.883117463E1
1.608314462E1,1.616219055E1,6.519542542E0,3.227737885E0,1.772397050E1
1.609308362E1,1.426039536E1,5.862558746E0,3.411555634E0,1.579136418E1
1.610302263E1,1.203018311E1,4.923112335E0,3.729494476E0,1.352299781E1
1.611296162E1,9.882599030E0,4.116739197E0,3.994593201E0,1.142672657E1
1.612290062E1,7.169640656E0,3.462898865E0,4.462370453E0,9.127330702E0
1.613283963E1,4.971611481E0,2.759661255E0,4.538861389E0,7.275569646E0
1.614277862E1,3.362757111E0,2.016456757E0,4.003574524E0,5.603823891E0
1.615271863E1,1.697021027E0,1.024319916E0,3.213218079E0,3.775431376E0
1.616265762E1,3.412902832E-1,2.517764282E-1,2.564467163E0,2.599300340E0
1.617259662E1,-8.428971863E-1,-3.847000122E-2,2.340383148E0,2.487840205E0
1.618253563E1,-1.867516479E0,-3.528163147E-1,2.389181671E0,3.052914380E0
1.619247462E1,-2.547252960E0,-6.544390869E-1,2.700234833E0,3.769357547E0
1.620241362E1,-2.579585724E0,-8.728349304E-1,3.149600372E0,4.163662550E0
1.621235262E1,-2.218237152E0,-5.872288513E-1,3.503165131E0,4.187789359E0
1.622229162E1,-5.951623535E-1,-3.832031250E-2,3.505111084E0,3.555487362E0
1.623223062E1,-1.676513672E-2,-9.175918579E-2,2.769391022E0,2.770961467E0
1.624216962E1,-1.182540894E-2,-1.562750244E-1,2.535277863E0,2.540117234E0
1.625210862E1,2.489323425E-1,5.523513794E-2,2.321821747E0,2.335781337E0
1.626204763E1,4.596940613E-1,2.134561157E-1,1.879940643E0,1.947064191E0
1.627198762E1,5.749543762E-1,1.698966980E-1,1.510059814E0,1.624720919E0
1.628192663E1,6.185137939E-1,5.284011841E-2,1.318907318E0,1.457692665E0
1.629186562E1,3.508703613E-1,-1.719923401E-1,9.948312378E-1,1.068822047E0
1.630180454E1,3.809577942E-1,-2.649490356E-2,7.291337585E-1,8.230837495E-1
1.631174354E1,3.725752258E-1,1.243913269E-1,7.316784668E-1,8.304449891E-1
1.632168254E1,5.375321960E-1,8.936416626E-2,7.120692444E-1,8.966434212E-1
1.633162154E1,5.815406799E-1,1.655557251E-1,8.469387817E-1,1.040626523E0
1.634156054E1,5.269042969E-1,3.591032410E-1,8.801696777E-1,1.086867948E0
1.635149954E1,4.167333984E-1,2.315684509E-1,1.039438477E0,1.143557178E0
1.636143854E1,3.224295044E-1,1.607656860E-1,9.419911194E-1,1.008540361E0
1.637137754E1,6.676116943E-2,1.279838562E-1,9.767189026E-1,9.873280791E-1
1.638131754E1,1.980381775E-1,1.672023010E-1,1.152004395E0,1.180800514E0
1.639125654E1,5.379812622E-1,3.564088440E-1,1.609153748E0,1.733732069E0
1.640119554E1,1.320853271E0,3.902384949E-1,2.158661041E0,2.560616515E0
1.641113454E1,2.641257477E0,6.908134460E-1,2.758912811E0,3.881374006E0
1.642107354E1,5.369633789E0,1.266665955E0,3.146007843E0,6.350966463E0
1.643101254E1,7.993976440E0,1.628313904E0,2.942880249E0,8.672693334E0
1.644095154E1,9.188193054E0,1.574425964E0,2.805466003E0,9.735109050E0
1.645089054E1,1.114237930E1,2.187251587E0,2.993924103E0,1.174309446E1
1.646082954E1,1.446891174E1,3.279230804E0,3.368445282E0,1.521345409E1
1.647076854E1,1.952315140E1,5.095703430E0,3.572171631E0,2.049097470E1
1.648070754E1,2.622426636E1,8.250243530E0,4.103416901E0,2.779598342E1
1.649064754E1,3.212409760E1,1.088341782E1,3.186872864E0,3.406703081E1
1.650058654E1,3.147130508E1,1.119566849E1,3.271147614E0,3.356317094E1
1.651052554E1,2.724080246E1,1.008033783E1,3.830085297E0,2.929750984E1
1.652046454E1,2.663396439E1,1.208916046E1,-1.442699890E0,2.928476127E1
1.653040354E1,3.316099136E1,1.768377640E1,-3.927083588E0,3.778609905E1
1.654034254E1,3.545167786E1,1.745984207E1,1.422192535E0,3.954352260E1
