"Time (s)","Acceleration x (m/s^2)","Acceleration y (m/s^2)","Acceleration z (m/s^2)","Absolute acceleration (m/s^2)"
1.626875019E-3,5.999823303E0,-5.360353088E-1,-2.146835632E0,6.394850800E0
1.156587500E-2,5.737868042E0,1.191522217E-1,-1.667232971E0,5.976369525E0
2.150587502E-2,6.101312256E0,6.783892822E-1,-6.297404480E-1,6.171126015E0
3.144587501E-2,7.558082886E0,7.717950439E-1,1.507964172E0,7.745594906E0
4.138487502E-2,8.809031525E0,4.670288086E-2,3.976780243E0,9.665195221E0
5.132487501E-2,7.154073029E0,-2.789598999E0,6.936575317E0,1.034788387E1
6.126387502E-2,3.432961121E0,-7.340136108E0,1.151854706E1,1.408331447E1
7.120387501E-2,2.119592285E-1,-1.231833389E1,1.627056519E1,2.040876204E1
8.114387502E-2,-1.735491028E0,-1.692141174E1,1.520822433E1,2.281745367E1
9.108287501E-2,-1.417402496E0,-2.073353439E1,1.363454681E1,2.485536854E1
1.010228750E-1,-7.247927856E-1,-2.482916748E1,1.649255356E1,2.981639155E1
1.109618750E-1,1.190474396E0,-2.579630630E1,1.353006409E1,2.915354665E1
1.209018750E-1,3.829785919E0,-2.119053406E1,8.105644226E0,2.300885617E1
1.308408750E-1,1.993404694E0,-1.458536957E1,5.140610046E0,1.559270789E1
1.407808750E-1,-6.783892822E-1,-1.016566040E1,4.809648285E0,1.126648037E1
1.507208750E-1,-2.170037384E0,-7.339836731E0,5.575455780E0,9.469317433E0
1.606598750E-1,-1.729353790E0,-5.993536377E0,2.346071320E0,6.664622530E0
1.705998750E-1,2.153721313E0,-5.939349060E0,-4.466112671E0,7.736959683E0
1.805388750E-1,6.844965820E0,-6.258036346E0,-8.766819305E0,1.276219796E1
1.904788750E-1,9.135802002E0,-7.356452179E0,-8.595575409E0,1.454180812E1
2.004188750E-1,9.404642944E0,-8.924441528E0,-6.720724182E0,1.460346189E1
2.103578750E-1,9.395212555E0,-1.241847565E1,8.684939575E-1,1.559624436E1
2.202978750E-1,1.104927292E1,-1.794528259E1,1.609168716E1,2.651531624E1
2.302368750E-1,1.498114655E1,-1.642953461E1,2.681972809E0,2.239547582E1
2.401768750E-1,1.597522934E1,-1.061352905E1,-3.216062164E0,1.944731363E1
2.501158750E-1,1.292607010E1,-5.397026825E0,-1.389560394E0,1.407629443E1
2.600558750E-1,1.113803833E1,-1.935175781E0,-3.486250305E-1,1.131027597E1
2.699958750E-1,9.384734344E0,4.480183411E-1,-8.964857483E-1,9.438095457E0
2.799348750E-1,7.273674316E0,-4.840933228E-1,-4.274361420E0,8.450494066E0
2.898748750E-1,6.765481110E0,-2.239492950E0,-6.161337433E0,9.420676318E0
2.998138750E-1,7.373367004E0,-3.063379669E0,-6.177952881E0,1.009544144E1
3.097538750E-1,8.666527863E0,-3.967649231E0,-5.283712463E0,1.089809905E1
3.196938750E-1,8.776698761E0,-4.968468018E0,-4.039649506E0,1.086438603E1
3.296328750E-1,8.057145081E0,-5.796096954E0,-3.112477570E0,1.040191537E1
3.395728750E-1,7.289092255E0,-6.537056122E0,-2.461331635E0,1.009564867E1
3.495118750E-1,6.973099365E0,-7.274722137E0,-1.980980530E0,1.026985788E1
3.594518750E-1,7.335346069E0,-8.006400604E0,-1.688189392E0,1.098907348E1
3.693908750E-1,7.809260559E0,-8.650960236E0,-1.412462769E0,1.173962157E1
3.793308750E-1,7.646698608E0,-9.075327759E0,-1.262324982E0,1.193427995E1
3.892708750E-1,7.095844116E0,-9.248218231E0,-1.258133698E0,1.172448057E1
3.992098750E-1,6.460864563E0,-9.195527802E0,-1.284628601E0,1.131153275E1
4.091498750E-1,5.717210999E0,-9.013955383E0,-1.205143890E0,1.074198609E1
4.190888750E-1,4.986131287E0,-8.780590668E0,-1.081051941E0,1.015524254E1
4.290288750E-1,4.336931305E0,-8.652457123E0,-1.445094910E0,9.785820696E0
4.389688750E-1,3.577859802E0,-8.925339661E0,-2.221829681E0,9.869108164E0
4.489078750E-1,1.581611023E0,-8.985215149E0,2.308649139E0,9.410921610E0
4.588478750E-1,8.202941895E-1,-8.738827515E0,4.333638153E0,9.788789942E0
4.687868750E-1,1.386117554E0,-8.180488586E0,3.005599823E0,8.824700883E0
4.787268750E-1,2.509980469E0,-7.881410522E0,1.741478577E0,8.452773593E0
4.886658750E-1,3.404669952E0,-8.052205353E0,1.054557037E0,8.805786681E0
4.986058750E-1,3.868106232E0,-8.385412445E0,3.727249146E-1,9.242094544E0
5.085458750E-1,3.820205841E0,-8.551117859E0,3.742218018E-2,9.365734874E0
5.184848750E-1,3.425925751E0,-8.340954895E0,5.427713013E-1,9.033443225E0
5.284248750E-1,3.465443573E0,-8.301437073E0,9.569599915E-1,9.046487111E0
5.383638750E-1,3.776496735E0,-8.616681519E0,1.005309448E0,9.461489051E0
5.483038750E-1,3.722159729E0,-9.321715393E0,7.265890503E-1,1.006363665E1
5.582438750E-1,3.909420319E0,-1.022418869E1,9.913883972E-1,1.099092592E1
5.681828750E-1,4.285737762E0,-1.057146652E1,1.550625458E0,1.151207592E1
5.781228750E-1,4.185296631E0,-1.023766068E1,2.178419952E0,1.127261804E1
5.880618750E-1,3.611689453E0,-9.551038513E0,3.032543793E0,1.065189933E1
5.980018750E-1,2.807711334E0,-9.320517883E0,3.638633423E0,1.039206186E1
6.079408750E-1,2.259401550E0,-9.793983307E0,3.486998749E0,1.063889866E1
6.178808750E-1,2.247426453E0,-1.069121750E1,2.444416809E0,1.119500919E1
6.278208750E-1,2.704875183E0,-1.167706741E1,1.249601440E0,1.205121392E1
6.377598750E-1,3.246898041E0,-1.243374390E1,5.547463989E-1,1.286266216E1
6.476998750E-1,3.405867462E0,-1.292397446E1,4.267625427E-1,1.337202958E1
6.576388750E-1,3.445085907E0,-1.280302597E1,8.247848511E-1,1.328406417E1
6.675788750E-1,3.705993347E0,-1.211864914E1,1.622176666E0,1.277605185E1
6.775188750E-1,4.064048767E0,-1.143636795E1,2.352807312E0,1.236295703E1
6.874578750E-1,4.362528076E0,-1.100391724E1,2.759511566E0,1.215453618E1
6.973978750E-1,4.366120605E0,-1.108430008E1,2.860401764E0,1.225180051E1
7.073361667E-1,4.117487640E0,-1.167137924E1,2.796334991E0,1.268835243E1
7.172761667E-1,3.891607361E0,-1.279449371E1,2.576142883E0,1.361911118E1
7.272151667E-1,3.697012024E0,-1.411624512E1,2.270927582E0,1.476798518E1
7.371551667E-1,3.751648407E0,-1.446621735E1,2.575095062E0,1.516500658E1
7.470951667E-1,3.775598602E0,-1.290511368E1,2.945275269E0,1.376487378E1
7.570341667E-1,3.384012909E0,-1.114567245E1,2.752176819E0,1.196879422E1
7.669741667E-1,2.706072693E0,-1.016176849E1,1.693578186E0,1.065141190E1
7.769131667E-1,2.819387054E0,-9.491013336E0,1.530267792E0,1.001848277E1
7.868531667E-1,3.862717438E0,-8.815617828E0,2.534828796E0,9.952942315E0
7.967931667E-1,5.207071838E0,-8.738079071E0,3.478167114E0,1.075012881E1
8.067321667E-1,6.325545959E0,-8.977281647E0,3.018922119E0,1.138938138E1
8.166721667E-1,7.300767975E0,-9.592801666E0,1.328337708E0,1.212796512E1
8.266111667E-1,8.396190033E0,-1.069675598E1,-1.359173584E-1,1.359908339E1
8.365511667E-1,9.769883423E0,-1.188962540E1,-6.509962463E-1,1.540251961E1
8.464901667E-1,1.152438492E1,-1.287248154E1,-2.215393066E-1,1.727892671E1
8.564301667E-1,1.338681198E1,-1.377016479E1,5.572911072E-1,1.921287971E1
8.663701667E-1,1.472922043E1,-1.401834869E1,8.279283142E-1,2.035066338E1
8.763091667E-1,1.502440659E1,-1.317230804E1,1.787283325E-1,1.998185267E1
8.862491667E-1,1.439780960E1,-1.162841858E1,-5.176235962E-1,1.851445311E1
8.961881667E-1,1.263806900E1,-9.830207977E0,-8.226892090E-1,1.603217373E1
9.061281667E-1,1.038734940E1,-8.102201385E0,-1.057550812E0,1.321594145E1
9.160681667E-1,8.195756836E0,-6.771618347E0,-4.074526978E-1,1.063913826E1
9.260071667E-1,6.326444092E0,-6.066135406E0,3.469784546E-1,8.771675305E0
9.359471667E-1,4.991520081E0,-5.929020538E0,1.024020538E0,7.817747458E0
9.458861667E-1,4.295916595E0,-5.888903961E0,1.501677246E0,7.442386970E0
9.558261667E-1,3.603606262E0,-6.212830353E0,1.659299469E0,7.371466192E0
9.657651667E-1,3.302282867E0,-6.279292145E0,1.237776031E0,7.201851948E0
9.757051667E-1,2.989583130E0,-6.119125214E0,8.393046570E-1,6.861904472E0
9.856451667E-1,2.832709351E0,-5.932313690E0,4.962181091E-1,6.592633798E0
9.955841667E-1,2.654579773E0,-5.783672791E0,3.879931641E-1,6.375594358E0
1.005524167E0,2.033072205E0,-5.660928040E0,4.956193542E-1,6.035323306E0
1.015463167E0,1.538500671E0,-5.456303558E0,6.988966370E-1,5.711977709E0
1.025403167E0,1.620829468E0,-5.127736816E0,6.848258972E-1,5.421232289E0
1.035342167E0,2.189347229E0,-4.608766022E0,2.827619934E-1,5.110178067E0
1.045282167E0,2.988834686E0,-4.000580750E0,-4.031117249E-1,5.010017782E0
1.055222167E0,3.527414703E0,-3.460503845E0,-9.644444275E-1,5.034669245E0
1.065161167E0,4.059707794E0,-2.835254059E0,-1.288221130E0,5.116581538E0
1.075101167E0,4.740492096E0,-2.176473999E0,-1.461560669E0,5.417145371E0
1.085040167E0,5.316494293E0,-1.552571411E0,-1.614692230E0,5.769126498E0
1.094980167E0,5.546116791E0,-9.710307312E-1,-1.665436707E0,5.871625973E0
1.104920167E0,5.383554840E0,-4.369413757E-1,-1.790426788E0,5.690273154E0
1.114859167E0,4.921914825E0,9.160949707E-2,-1.799857178E0,5.241481061E0
1.124799167E0,5.000052338E0,6.550378418E-1,-1.075962524E0,5.156286775E0
1.134738167E0,6.377637634E0,8.752299500E-1,7.340734863E-1,6.479132129E0
1.144678167E0,7.973768463E0,6.882687378E-1,3.029699707E0,8.557673613E0
1.154617167E0,7.354955292E0,-1.653311920E0,7.322323151E0,1.050929227E1
1.164557167E0,3.712130585E0,-7.053182831E0,1.521151749E1,1.717316412E1
1.174497167E0,4.586462402E-1,-1.368065094E1,2.332045486E1,2.704097228E1
1.184436167E0,-6.081852722E-1,-1.981564316E1,1.693862595E1,2.607578670E1
1.194376167E0,1.276994476E0,-2.335982300E1,1.164563278E1,2.613298315E1
1.204315167E0,3.112627258E0,-2.608430740E1,1.297037796E1,2.929693236E1
1.214255167E0,4.837640076E0,-2.323243790E1,1.010234207E1,2.579159257E1
1.224195167E0,4.434528351E0,-1.498773285E1,7.480693817E0,1.732795307E1
1.234134167E0,2.286195831E0,-9.361682281E0,6.281238098E0,1.150311865E1
1.244074167E0,7.896080017E-1,-6.649472351E0,7.462282104E0,1.002619656E1
1.254013167E0,9.779164124E-1,-6.340215454E0,1.171179520E1,1.335368111E1
1.263953167E0,2.313588867E0,-9.779313812E0,1.171763306E1,1.543666404E1
1.273892167E0,3.496279449E0,-1.457504105E1,4.511168976E0,1.565268146E1
1.283832167E0,4.780309296E0,-1.617955444E1,-4.220323792E0,1.739081573E1
1.293772167E0,7.507937164E0,-1.419782547E1,-1.154923325E1,1.978211710E1
1.303711167E0,8.044870605E0,-1.133532806E1,-1.128218857E1,1.790244073E1
1.313651167E0,6.789431305E0,-8.015381927E0,-2.864293671E0,1.088792465E1
1.323590167E0,7.129075012E0,-4.404889984E0,7.709867249E0,1.138722175E1
1.333530167E0,5.931565247E0,-3.363954620E0,2.060315552E0,7.123521400E0
1.343469167E0,5.674699402E0,-2.296524353E0,-3.136577454E0,6.878543125E0
1.353409167E0,7.791148224E0,-3.521876221E0,-7.352560272E0,1.127677903E1
1.363349167E0,1.008557693E1,-5.369484100E0,-7.649243317E0,1.374995072E1
1.373288167E0,1.133323242E1,-5.682632904E0,-6.562054138E0,1.427567961E1
1.383228167E0,1.172017776E1,-5.614075470E0,-5.380261688E0,1.406512090E1
1.393167167E0,1.144939087E1,-5.920488281E0,-4.849465485E0,1.377163927E1
1.403107167E0,1.079240707E1,-6.435567169E0,-3.842060394E0,1.313978703E1
1.413046167E0,9.828112335E0,-6.592740326E0,-2.501897278E0,1.209609470E1
1.422986167E0,8.928034058E0,-6.513554993E0,-1.197659454E0,1.111623043E1
1.432926167E0,8.003556519E0,-6.337071991E0,-2.993774414E-3,1.020859478E1
1.442865167E0,6.878047028E0,-6.297853546E0,1.361568604E0,9.424667594E0
1.452805167E0,5.484295349E0,-6.812483368E0,4.204905853E0,9.704053707E0
1.462744167E0,4.606670380E0,-7.708070984E0,5.761069794E0,1.066891257E1
1.472684167E0,5.176834717E0,-7.934400330E0,2.745291138E0,9.863617476E0
1.482624167E0,5.676046600E0,-7.913144531E0,3.520678711E-1,9.744706931E0
1.492563167E0,5.766009521E0,-8.062533875E0,-6.592291260E-1,9.934077779E0
1.502503167E0,5.553301849E0,-8.552165680E0,-3.710783386E-1,1.020374433E1
1.512442167E0,5.159171448E0,-9.052874451E0,5.406756592E-1,1.043378723E1
1.522382167E0,4.428989868E0,-9.284742279E0,1.220711517E0,1.035917598E1
1.532321167E0,3.686533813E0,-9.154213715E0,1.182540894E0,9.939243596E0
1.542261167E0,3.235521698E0,-8.902586975E0,4.635859680E-1,9.483647371E0
1.552201167E0,2.969075775E0,-8.679401093E0,-2.502795410E-1,9.176603627E0
1.562140167E0,2.841690674E0,-8.563691711E0,-5.137316895E-1,9.037474308E0
1.572080167E0,2.923121338E0,-8.552015991E0,-4.767585754E-1,9.050354391E0
1.582019167E0,3.172951813E0,-8.631351013E0,-2.436932373E-1,9.199305947E0
1.591959167E0,3.465443573E0,-8.625513153E0,6.526428223E-2,9.295861216E0
1.601898167E0,3.746409302E0,-8.216114502E0,-1.616638184E-2,9.029971291E0
1.611838167E0,3.915856934E0,-7.712861023E0,-1.535806274E-1,8.651343693E0
1.621778167E0,4.298760681E0,-7.271578674E0,-8.143066406E-2,8.447593194E0
1.631717167E0,5.333259430E0,-7.172185364E0,-2.080673218E-2,8.937803531E0
1.641657167E0,5.732329559E0,-7.244485016E0,1.037342834E-1,9.238664737E0
1.651596167E0,5.131179657E0,-7.470365295E0,3.468287659E-1,9.069490201E0
1.661536167E0,4.981640625E0,-7.917635193E0,5.257067871E-1,9.369207970E0
1.671476167E0,5.180277557E0,-8.467142487E0,5.408253479E-1,9.940838471E0
1.681415167E0,5.282664642E0,-9.180109863E0,6.768923950E-1,1.061315910E1
1.691355167E0,5.487438812E0,-1.002076172E1,9.241781616E-1,1.146218807E1
1.701294250E0,5.438640289E0,-1.051069290E1,1.328188019E0,1.190871768E1
1.711234250E0,4.720284119E0,-1.055694672E1,1.969604187E0,1.173070956E1
1.721173250E0,3.822451172E0,-1.063867676E1,2.512974243E0,1.158048426E1
1.731113250E0,2.976111145E0,-1.119372253E1,2.773731995E0,1.191009030E1
1.741053250E0,2.475851440E0,-1.193393326E1,2.562970276E0,1.245461441E1
1.750992250E0,2.526446228E0,-1.235231323E1,2.027982788E0,1.277009346E1
1.760932250E0,2.697540436E0,-1.244901215E1,1.625619507E0,1.284123306E1
1.770871250E0,2.734363861E0,-1.234408035E1,1.747915192E0,1.276355252E1
1.780811250E0,2.709365845E0,-1.181987045E1,2.546055450E0,1.239081915E1
1.790750250E0,2.833607483E0,-1.111618378E1,3.717070312E0,1.205883431E1
1.800690250E0,3.084036713E0,-1.091290649E1,4.690496063E0,1.227206437E1
1.810630250E0,3.396586761E0,-1.143546982E1,5.005890198E0,1.293698992E1
1.820569250E0,3.417543182E0,-1.247475861E1,4.585414581E0,1.372316401E1
1.830509250E0,3.074157257E0,-1.359622650E1,3.694018250E0,1.442059599E1
1.840448250E0,2.456092529E0,-1.428374680E1,2.962639160E0,1.479307418E1
1.850388250E0,1.539698181E0,-1.432012115E1,2.827919312E0,1.467765881E1
1.860328250E0,5.530998230E-1,-1.347827179E1,3.066223755E0,1.383370731E1
1.870267250E0,8.562194824E-2,-1.215262848E1,1.707050171E0,1.227223412E1
1.880207250E0,4.848417664E-1,-1.101664078E1,-2.213896179E-1,1.102952669E1
1.890146250E0,1.758094025E0,-1.020398071E1,6.571334839E-2,1.035453694E1
1.900086250E0,3.916156311E0,-1.020308258E1,1.922152863E0,1.109656911E1
1.910025250E0,6.131998444E0,-1.085587509E1,3.398233337E0,1.292282549E1
1.919965250E0,7.901768188E0,-1.147932861E1,2.642305298E0,1.418431187E1
1.929905250E0,9.561965790E0,-1.245874191E1,6.059399414E-1,1.571682548E1
1.939844250E0,1.107786346E1,-1.364218094E1,-4.568499756E-1,1.757944458E1
1.949784250E0,1.242087067E1,-1.450049606E1,-6.857240295E-1,1.910530376E1
1.959723250E0,1.396670609E1,-1.466979401E1,-8.755293274E-1,2.027407918E1
1.969663250E0,1.551613403E1,-1.436832092E1,-9.846524048E-1,2.116999296E1
1.979602250E0,1.592732895E1,-1.344294525E1,-1.084644470E0,2.087029080E1
1.989542250E0,1.471410187E1,-1.180205750E1,-7.408094788E-1,1.887702714E1
1.999482250E0,1.345402222E1,-9.741891632E0,-6.200106812E-1,1.662226157E1
2.009421250E0,1.209350143E1,-7.298372955E0,-1.227447510E0,1.417835153E1
2.019361250E0,1.043884232E1,-5.354365540E0,-1.709295502E0,1.185581504E1
2.029300250E0,8.510402527E0,-4.196822662E0,-1.292113037E0,9.576524825E0
2.039240250E0,7.132218475E0,-3.356919250E0,-3.285667419E-1,7.889575612E0
2.049179250E0,5.773943024E0,-3.286116486E0,4.125421143E-1,6.656363166E0
2.059119250E0,4.491859131E0,-3.619622955E0,1.288520508E0,5.910901276E0
2.069059250E0,3.524420929E0,-4.217779083E0,1.603764954E0,5.725667237E0
2.078998250E0,2.935695190E0,-4.675976257E0,1.254990234E0,5.661983813E0
2.088938250E0,2.896776123E0,-4.951702881E0,6.818321228E-1,5.777159196E0
2.098877250E0,3.028651886E0,-5.124743042E0,1.736389160E-1,5.955323162E0
2.108817250E0,2.818937988E0,-5.435646515E0,1.255888367E-1,6.124413194E0
2.118756250E0,2.427202606E0,-5.684129791E0,1.725910950E-1,6.183076230E0
2.128696250E0,2.300416260E0,-5.894592133E0,2.877017212E-1,6.334106382E0
2.138636250E0,2.697091370E0,-5.902076569E0,3.697311401E-1,6.499654667E0
2.148575250E0,3.318898315E0,-5.566624146E0,9.325607300E-2,6.481596030E0
2.158515250E0,3.941154327E0,-4.974156189E0,-2.559677124E-1,6.351412968E0
2.168454250E0,4.555027771E0,-4.173620911E0,-7.214996338E-1,6.219963924E0
2.178394250E0,5.105283508E0,-3.271896057E0,-1.137035522E0,6.169446757E0
2.188334250E0,5.533393250E0,-2.345023499E0,-1.389710083E0,6.168376624E0
2.198273250E0,5.882766724E0,-1.474583588E0,-1.545685730E0,6.258632874E0
2.208213250E0,6.025569763E0,-7.635621643E-1,-1.800605621E0,6.335037392E0
2.218152250E0,6.065686340E0,-2.106120300E-1,-2.204914856E0,6.457442042E0
2.228092250E0,5.943091278E0,2.233355713E-1,-2.346370697E0,6.393408181E0
2.238031250E0,6.223009186E0,6.077362061E-1,-1.369053040E0,6.400741586E0
2.247971250E0,7.286996613E0,7.327262878E-1,4.911286926E-1,7.340191744E0
2.257911250E0,8.342002716E0,1.398092651E-1,2.757715302E0,8.787124082E0
2.267850250E0,6.540349274E0,-2.882406006E0,6.662345581E0,9.770940674E0
2.277790250E0,2.819536743E0,-7.815397797E0,1.321766373E1,1.561207432E1
2.287729250E0,1.160087585E-1,-1.347677490E1,2.043101349E1,2.447576826E1
2.297669250E0,-7.427554321E-1,-1.852397919E1,1.836441101E1,2.609484781E1
2.307608250E0,4.429289246E-1,-2.221081238E1,1.440319839E1,2.647580965E1
2.317548250E0,1.300794983E0,-2.467753281E1,1.374531647E1,2.827731278E1
2.327488250E0,2.662513275E0,-2.274624893E1,1.140343643E1,2.558357246E1
2.337427250E0,2.667153625E0,-1.590083405E1,7.585475922E0,1.781824000E1
2.347367250E0,5.221142578E-1,-1.107681564E1,5.169949036E0,1.223506523E1
2.357306250E0,-5.996530151E-1,-8.729247437E0,5.316045227E0,1.023814834E1
2.367246250E0,1.284329224E-1,-8.045768738E0,5.158872070E0,9.558496254E0
2.377185250E0,3.641627197E0,-9.453890533E0,-5.628295898E-1,1.014663846E1
2.387125250E0,8.309370575E0,-1.163739990E1,-6.985523529E0,1.591452968E1
2.397065250E0,1.071756271E1,-1.322410034E1,-8.659193115E0,1.909776442E1
2.407004250E0,1.007614655E1,-1.403705978E1,-7.687563629E0,1.891207051E1
2.416944250E0,8.164172516E0,-1.472248444E1,-5.764512634E-1,1.684451118E1
2.426883250E0,8.849746857E0,-1.366164047E1,7.540868683E0,1.793942977E1
2.436823250E0,1.083252365E1,-9.366771698E0,1.403780823E0,1.438925228E1
2.446762250E0,1.030711624E1,-3.454216919E0,2.679428101E-1,1.087382422E1
2.456702250E0,9.508227539E0,-1.290167084E0,4.209246826E-1,9.604587426E0
2.466642250E0,8.861123199E0,-3.471281433E-1,-7.153623962E-1,8.896726682E0
2.476581250E0,8.552764435E0,-9.204359436E-1,-3.994742889E0,9.484458475E0
2.486521250E0,8.709338837E0,-2.783761139E0,-6.138435059E0,1.101282407E1
2.496460250E0,9.304650879E0,-3.699257355E0,-6.509812775E0,1.194314428E1
2.506400250E0,1.061772034E1,-4.458029480E0,-5.973627777E0,1.297282702E1
2.516339250E0,1.112756012E1,-5.430557098E0,-4.967120819E0,1.334113315E1
2.526279250E0,9.948013000E0,-6.151308289E0,-3.947141876E0,1.234428958E1
2.536219250E0,8.488398285E0,-6.370302887E0,-3.178490295E0,1.107864905E1
2.546158250E0,7.253616028E0,-6.415059814E0,-2.630629578E0,1.003434850E1
2.556098250E0,6.612948303E0,-6.531517639E0,-1.936672668E0,9.494340891E0
2.566037250E0,6.389313354E0,-6.872209167E0,-1.287173309E0,9.471399005E0
2.575977250E0,6.695576477E0,-7.383845215E0,-8.075706482E-1,1.000020424E1
2.585917250E0,6.850803680E0,-7.959997101E0,-5.189707947E-1,1.051496056E1
2.595856250E0,6.348747711E0,-8.506510620E0,-4.216731262E-1,1.062285878E1
2.605796250E0,5.720204773E0,-8.945697327E0,-4.004173279E-1,1.062575067E1
2.615735250E0,5.085674286E0,-9.179361420E0,-3.918850708E-1,1.050134910E1
2.625675250E0,4.240980835E0,-9.296268311E0,-2.845582581E-1,1.022191256E1
2.635614250E0,2.984493713E0,-9.753267975E0,1.351389771E0,1.028881399E1
2.645554250E0,1.560355225E0,-1.044497955E1,3.412753143E0,1.109861209E1
2.655494250E0,1.257984009E0,-9.978549500E0,2.850522308E0,1.045368123E1
2.665433250E0,1.387315063E0,-9.304201813E0,2.010918274E0,9.619594938E0
2.675373250E0,1.570084991E0,-8.761879578E0,1.282233582E0,8.993321053E0
2.685312250E0,1.768123169E0,-8.387059021E0,6.489006042E-1,8.595934537E0
2.695252250E0,2.039658508E0,-8.179291077E0,2.345622253E-1,8.433032004E0
2.705191125E0,2.498304749E0,-8.137378235E0,2.049238586E-1,8.514719311E0
2.715131125E0,3.359613647E0,-8.143515472E0,4.784051514E-1,8.822285395E0
2.725071125E0,4.333787842E0,-8.212671661E0,7.264393616E-1,9.314365626E0
2.735010125E0,4.301904144E0,-8.593180389E0,1.186283112E0,9.682788653E0
2.744950125E0,4.739144897E0,-8.954079895E0,2.026785278E0,1.033164555E1
2.754889125E0,5.332660675E0,-9.255702667E0,2.550246735E0,1.098221563E1
2.764829125E0,5.682333527E0,-9.572144623E0,2.446362762E0,1.139734872E1
2.774768125E0,5.592370605E0,-9.882449341E0,1.923799438E0,1.151687537E1
2.784708125E0,5.228327637E0,-9.961484985E0,1.329535217E0,1.132847107E1
2.794648125E0,4.722379761E0,-9.536967773E0,1.133742371E0,1.070233604E1
2.804587125E0,4.035607910E0,-8.908574524E0,1.569486237E0,9.905156147E0
2.814527125E0,3.443888397E0,-8.621022491E0,2.201771393E0,9.540974445E0
2.824466125E0,3.278332672E0,-8.824449463E0,2.308349762E0,9.692618431E0
2.834406125E0,3.608995056E0,-9.599986725E0,1.735341339E0,1.040173063E1
2.844345125E0,4.269571381E0,-1.075378738E1,1.002315674E0,1.161369104E1
2.854285125E0,4.865182800E0,-1.162946640E1,5.438191223E-1,1.261785369E1
2.864225125E0,5.019511871E0,-1.169024002E1,5.031037903E-1,1.273225528E1
2.874164125E0,4.898563385E0,-1.098191299E1,8.798703003E-1,1.205705221E1
2.884104125E0,4.658612366E0,-1.009171417E1,1.616338806E0,1.123200406E1
2.894043125E0,4.460274811E0,-9.585317230E0,2.310146027E0,1.082169730E1
2.903983125E0,4.484075317E0,-9.505383453E0,2.764002228E0,1.086733428E1
2.913922125E0,4.499792633E0,-9.791438599E0,2.951412506E0,1.117279013E1
2.923862125E0,4.326153717E0,-1.052476364E1,2.903063049E0,1.174368046E1
2.933802125E0,4.070335693E0,-1.184157532E1,2.744542694E0,1.281885538E1
2.943741125E0,3.775598602E0,-1.331361420E1,2.686313782E0,1.409694114E1
2.953681125E0,3.563789062E0,-1.395637756E1,3.501368866E0,1.482365175E1
2.963620125E0,2.946772156E0,-1.302696030E1,4.204905853E0,1.400237101E1
2.973560125E0,1.785487061E0,-1.161809006E1,2.956950989E0,1.212070707E1
2.983499125E0,9.761201477E-1,-1.075603271E1,9.535171509E-1,1.084224355E1
2.993439125E0,1.190474396E0,-9.798174591E0,6.518943787E-1,9.891734978E0
3.003379125E0,2.300116882E0,-9.189839630E0,1.991758118E0,9.680433384E0
3.013318125E0,4.037104797E0,-9.975406036E0,2.976560211E0,1.116543109E1
3.023258125E0,5.827681274E0,-1.060589493E1,2.564018097E0,1.237016835E1
3.033197125E0,6.944658508E0,-1.144415176E1,8.849597168E-1,1.341566417E1
3.043137125E0,8.215665436E0,-1.284508850E1,-4.284091187E-1,1.525375336E1
3.053076125E0,9.718240814E0,-1.398601593E1,-1.148711243E0,1.706963338E1
3.063016125E0,1.128637985E1,-1.468161942E1,-1.511706390E0,1.858003162E1
3.072956125E0,1.243089981E1,-1.497081802E1,-1.441352692E0,1.951230791E1
3.082895125E0,1.266815643E1,-1.490450592E1,-1.264720001E0,1.960168362E1
3.092835125E0,1.204964264E1,-1.389889709E1,-1.311422882E0,1.844161214E1
3.102774125E0,1.137454651E1,-1.174158325E1,-1.204694824E0,1.639196069E1
3.112714125E0,9.935139771E0,-9.398805084E0,-1.200653229E0,1.372902427E1
3.122653125E0,8.109685822E0,-7.503745880E0,-1.239871674E0,1.111802537E1
3.132593125E0,6.037095795E0,-6.338119812E0,-8.628057861E-1,8.795608121E0
3.142533125E0,4.881798248E0,-5.787415009E0,6.721023560E-2,7.571700194E0
3.152472125E0,4.263883209E0,-5.768703918E0,1.451232147E0,7.318792227E0
3.162412125E0,3.787723389E0,-6.111042023E0,2.365979919E0,7.568985669E0
3.172351125E0,3.860771484E0,-6.490951996E0,1.919757843E0,7.792527475E0
3.182291125E0,4.044140167E0,-6.551126862E0,1.020877075E0,7.766242518E0
3.192230125E0,4.028871918E0,-6.431076508E0,1.594184875E-1,7.590518311E0
3.202170125E0,3.725003815E0,-6.408473511E0,-3.760180664E-1,7.421965760E0
3.212110125E0,3.446732483E0,-6.397546234E0,-5.266049194E-1,7.286005447E0
3.222049125E0,3.086132355E0,-6.319109344E0,-6.824308777E-1,7.065484252E0
3.231989125E0,2.766846313E0,-6.142925720E0,-8.785231018E-1,6.794319522E0
3.241928125E0,2.875370636E0,-5.906417542E0,-8.909472656E-1,6.629276846E0
3.251868125E0,3.434158630E0,-5.727240143E0,-1.054856415E0,6.760728305E0
3.261807125E0,4.243974609E0,-5.543272705E0,-1.594633942E0,7.161148663E0
3.271747125E0,5.166655884E0,-5.199437714E0,-2.032473450E0,7.606538890E0
3.281687125E0,6.129304047E0,-4.561314697E0,-2.160906372E0,7.939992205E0
3.291626125E0,6.918612671E0,-3.698059845E0,-2.127825165E0,8.128375474E0
3.301566125E0,7.201674042E0,-2.840044098E0,-2.135309601E0,8.030535883E0
3.311505125E0,7.194189606E0,-2.101479950E0,-2.103575592E0,7.784446823E0
3.321445125E0,7.061266022E0,-1.491947479E0,-1.979184265E0,7.483619142E0
3.331384125E0,6.850204926E0,-9.407936096E-1,-1.622476044E0,7.102311501E0
3.341324125E0,6.740782471E0,-2.442919922E-1,-4.650828552E-1,6.761222445E0
3.351264125E0,7.218888245E0,6.629713440E-1,1.241518250E0,7.354811082E0
3.361203125E0,8.056845703E0,1.130898285E0,2.946323090E0,8.652890463E0
3.371143125E0,8.348289642E0,-4.212240601E-1,5.008285217E0,9.744449214E0
3.381082125E0,5.778134308E0,-3.865262146E0,6.334377594E0,9.404861883E0
3.391022125E0,2.915038147E0,-7.629185028E0,8.409811707E0,1.172291962E1
3.400961125E0,1.099463654E0,-1.152124146E1,1.206940155E1,1.672179054E1
3.410901125E0,6.632707214E-1,-1.496707581E1,1.521945099E1,2.135614606E1
3.420841125E0,1.532962189E0,-1.790351944E1,1.686438034E1,2.464332173E1
3.430780125E0,2.293380890E0,-1.976684464E1,1.516226990E1,2.501763720E1
3.440720125E0,1.603315887E0,-2.030677185E1,1.129131958E1,2.329011599E1
3.450659125E0,1.288819885E-1,-1.887410110E1,6.465355225E0,1.995116842E1
3.460599125E0,-7.352709961E-1,-1.575548630E1,1.669029236E0,1.586069452E1
3.470538125E0,-9.792636108E-1,-1.289807831E1,-8.830137634E-1,1.296530349E1
3.480478125E0,-1.207538910E0,-1.093131821E1,-6.857240295E-1,1.101916900E1
3.490418125E0,-7.798782349E-1,-1.046458878E1,2.538720703E-1,1.049667944E1
3.500357125E0,1.024469604E0,-1.184247345E1,-7.361691284E-1,1.190947775E1
3.510297125E0,4.019142151E0,-1.404140076E1,-4.503085785E0,1.528372404E1
3.520236125E0,6.573131104E0,-1.545131882E1,-6.964267731E0,1.817829284E1
3.530176125E0,8.123157806E0,-1.550131485E1,-6.593638458E0,1.870167166E1
3.540115125E0,1.070229446E1,-1.585218521E1,1.541195068E0,1.918869889E1
3.550055125E0,1.464539474E1,-1.355685837E1,1.394634842E1,2.434700454E1
3.559995125E0,1.260393997E1,-6.489155731E0,6.829248505E0,1.573553558E1
3.569934125E0,1.043629761E1,-1.954934692E-1,3.237317963E0,1.092862082E1
3.579874125E0,9.955647125E0,2.373464355E0,1.506018219E0,1.034486992E1
3.589813125E0,8.152347107E0,3.276386719E0,-1.530417480E0,8.918388360E0
3.599753125E0,7.090605011E0,1.255888367E-1,-6.612499237E0,9.696267227E0
3.609692125E0,7.148684235E0,-2.082918549E0,-8.266409912E0,1.112545589E1
3.619632125E0,8.430019684E0,-2.800675964E0,-7.739206238E0,1.178152498E1
3.629572125E0,1.036863831E1,-4.111051025E0,-6.511758728E0,1.291558758E1
3.639511125E0,1.099867813E1,-5.708079987E0,-5.315446472E0,1.348358517E1
3.649451125E0,1.060035645E1,-7.116800537E0,-4.039200439E0,1.339147292E1
3.659390125E0,9.457183685E0,-7.885003052E0,-3.072211304E0,1.269055076E1
3.669330125E0,8.223898315E0,-8.163573761E0,-2.571053467E0,1.186957270E1
3.679269125E0,7.439529419E0,-8.249345398E0,-2.084116058E0,1.130229345E1
3.689209125E0,7.164551239E0,-8.470735016E0,-1.587299194E0,1.120730409E1
3.699149125E0,7.574997711E0,-8.846902771E0,-1.219663696E0,1.171050206E1
3.709087875E0,7.490872650E0,-9.076824646E0,-9.279203796E-1,1.180520881E1
3.719027875E0,6.635551300E0,-9.261839905E0,-7.505392456E-1,1.141821040E1
3.728966875E0,5.591921539E0,-9.406289520E0,-7.824229431E-1,1.097087301E1
3.738906875E0,4.601580963E0,-9.483678589E0,-9.117539978E-1,1.058045378E1
3.748845875E0,3.605552216E0,-9.844727783E0,-8.137078857E-1,1.051574022E1
3.758785875E0,7.951464844E-1,-9.690698090E0,8.211324463E0,1.272665458E1
3.768725875E0,3.442840576E-3,-8.996292114E0,9.637109528E0,1.318359449E1
3.778664875E0,9.815089417E-1,-8.388406219E0,4.963079224E0,9.795962132E0
3.788604875E0,2.420616302E0,-7.858807526E0,1.943109283E0,8.449610210E0
3.798543875E0,3.497776337E0,-7.609426117E0,-1.998344421E-1,8.377215464E0
3.808483875E0,4.000730438E0,-7.424560547E0,-9.060658264E-1,8.482387555E0
3.818422875E0,4.243525543E0,-7.074139252E0,-1.070723419E0,8.318497691E0
3.828362875E0,4.474046173E0,-6.669231262E0,-8.762777710E-1,8.078588832E0
3.838302875E0,4.248016205E0,-6.432124329E0,-1.941462708E-1,7.710743014E0
3.848241875E0,4.336482239E0,-6.390361176E0,2.435435486E-1,7.726649185E0
3.858181875E0,4.396208038E0,-6.972350922E0,8.854087830E-1,8.290010326E0
3.868120875E0,4.600682831E0,-7.848778381E0,1.505269775E0,9.221466352E0
3.878060875E0,4.934788055E0,-8.663983154E0,1.879940643E0,1.014647299E1
3.887999875E0,5.464536438E0,-9.338630219E0,1.931882629E0,1.099105743E1
3.897939875E0,5.788911896E0,-9.809700623E0,1.904639282E0,1.154856606E1
3.907879875E0,5.828280029E0,-1.004815475E1,1.861229553E0,1.176428653E1
3.917818875E0,5.886808319E0,-1.023526566E1,1.781595154E0,1.194107435E1
3.927758875E0,5.809868317E0,-9.971663818E0,1.760489044E0,1.167424391E1
3.937697875E0,5.533093872E0,-9.174122314E0,1.951342163E0,1.088978348E1
3.947637875E0,5.272785187E0,-8.347241821E0,2.421664124E0,1.016578412E1
3.957576875E0,5.422623596E0,-8.043972473E0,3.020868073E0,1.016051100E1
3.967516875E0,5.848038940E0,-8.455317078E0,3.091820526E0,1.073551585E1
3.977456875E0,6.247258759E0,-9.268276520E0,2.496059418E0,1.145248900E1
3.987395875E0,6.382277985E0,-9.928852844E0,1.796863403E0,1.193919215E1
3.997335875E0,6.171965332E0,-1.044453049E1,1.319805450E0,1.220341180E1
4.007274875E0,5.827082520E0,-1.061652283E1,1.188827820E0,1.216876161E1
4.017214875E0,5.190306702E0,-1.064496368E1,1.435963898E0,1.192964911E1
4.027153875E0,4.329746246E0,-1.075887680E1,1.705104218E0,1.172209508E1
4.037093875E0,3.442391510E0,-1.095481934E1,1.802252197E0,1.162352094E1
4.047033875E0,2.588567047E0,-1.147917892E1,1.749711456E0,1.189679446E1
4.056972875E0,1.670526123E0,-1.244182709E1,1.547931061E0,1.264854969E1
4.066912875E0,1.100361786E0,-1.357631790E1,1.728605347E0,1.373008668E1
4.076851875E0,1.114133148E0,-1.420486084E1,2.710263977E0,1.450396135E1
4.086791875E0,1.203347626E0,-1.363155304E1,3.924838257E0,1.423627898E1
4.096730875E0,1.369502106E0,-1.219993011E1,4.373006287E0,1.303215311E1
4.106670875E0,1.417701874E0,-1.124072479E1,3.276985474E0,1.179416832E1
4.116609875E0,2.266436920E0,-1.069316345E1,2.598446503E0,1.123531954E1
4.126549875E0,4.250860291E0,-1.061218185E1,3.971840515E0,1.210222021E1
4.136489875E0,6.228996735E0,-1.090467361E1,4.938380585E0,1.349443996E1
4.146428875E0,7.301815796E0,-1.114911530E1,3.361858978E0,1.374486746E1
4.156368875E0,7.580236816E0,-1.157423126E1,7.378157043E-1,1.385522254E1
4.166307875E0,7.755971375E0,-1.241173965E1,-1.177750854E0,1.468310152E1
4.176247875E0,8.158634033E0,-1.319027069E1,-2.250569916E0,1.567200099E1
4.186186875E0,9.048832855E0,-1.345971039E1,-2.961741028E0,1.648687629E1
4.196126875E0,1.031190628E1,-1.340537338E1,-3.485352173E0,1.726809562E1
4.206066875E0,1.119746475E1,-1.303519318E1,-3.859124908E0,1.761227762E1
4.216005875E0,1.118593872E1,-1.253238876E1,-3.154091034E0,1.709193621E1
4.225945875E0,1.051533325E1,-1.160521683E1,-2.062710571E0,1.579582432E1
4.235884875E0,9.816436615E0,-9.844129028E0,-1.463806000E0,1.397898538E1
4.245824875E0,8.877888336E0,-7.824678497E0,-1.793719940E0,1.196912387E1
4.255763875E0,7.713908844E0,-6.347101135E0,-2.088157654E0,1.020541449E1
4.265703875E0,6.500831451E0,-5.383854218E0,-1.663490753E0,8.603132992E0
4.275643875E0,5.204676819E0,-4.895270233E0,-1.058149567E0,7.223019587E0
4.285582875E0,4.536316681E0,-4.806055756E0,6.182144165E-2,6.609096977E0
4.295522875E0,4.203858032E0,-4.978048096E0,1.076411591E0,6.603941786E0
4.305461875E0,3.636238403E0,-5.656886444E0,1.603465576E0,6.913298476E0
4.315401875E0,3.431314545E0,-6.222560120E0,1.799408112E0,7.330214424E0
4.325340875E0,3.655997314E0,-6.500831451E0,1.406325531E0,7.589787706E0
4.335280875E0,3.928430786E0,-6.694378967E0,8.325686646E-1,7.806436369E0
4.345220875E0,3.804039459E0,-6.887178040E0,3.189866638E-1,7.874369184E0
4.355159875E0,3.346291351E0,-7.043902130E0,-0.000000000E0,7.798347455E0
4.365099875E0,3.114573212E0,-7.243736572E0,-1.987866211E-1,7.887445844E0
4.375038875E0,3.095263367E0,-7.483238525E0,-2.227368164E-1,8.101180521E0
4.384978875E0,3.324586487E0,-7.607330475E0,-1.992356873E-1,8.304459472E0
4.394917875E0,4.143683167E0,-7.350614319E0,-6.451583862E-1,8.462734215E0
4.404857875E0,5.439987488E0,-6.548582153E0,-1.176403656E0,8.594260739E0
4.414797875E0,6.752757568E0,-5.431155853E0,-1.500330048E0,8.794781346E0
4.424736875E0,7.581733704E0,-4.274660797E0,-1.705702972E0,8.869319789E0
4.434676875E0,7.743696899E0,-3.270249481E0,-1.688937836E0,8.573907181E0
4.444615875E0,7.760911102E0,-2.443967743E0,-1.457818451E0,8.266193447E0
4.454555875E0,8.022866364E0,-1.683399353E0,-1.263522491E0,8.294378045E0
4.464494875E0,8.234526215E0,-1.004261627E0,-9.421408081E-1,8.348867749E0
4.474434875E0,8.380772095E0,-2.255809021E-1,-7.035369873E-2,8.384102653E0
4.484373875E0,8.364456024E0,3.710783386E-1,1.389859772E0,8.487257148E0
4.494313875E0,8.017178192E0,4.848417664E-1,3.063229980E0,8.596138413E0
4.504253875E0,7.206913147E0,-6.246510315E-1,4.435127106E0,8.485289533E0
4.514192875E0,5.525609436E0,-3.164569244E0,5.748046875E0,8.578280773E0
4.524132875E0,3.945046234E0,-6.084846497E0,7.526947632E0,1.045197050E1
4.534071875E0,2.465223541E0,-8.915759583E0,8.793014832E0,1.276264886E1
4.544011875E0,1.040037231E0,-1.132904114E1,9.822873230E0,1.503055851E1
4.553950875E0,3.158432007E-2,-1.327484482E1,1.120180573E1,1.736959856E1
4.563890875E0,-3.282673645E-1,-1.538560547E1,1.216340607E1,1.961563311E1
4.573830875E0,-4.831951904E-1,-1.769200928E1,1.168979095E1,2.121065493E1
4.583769875E0,1.466949463E-2,-1.951417007E1,1.068807404E1,2.224944888E1
4.593709875E0,1.488504639E0,-1.910956146E1,8.296796722E0,2.088606763E1
4.603648875E0,2.755320282E0,-1.608794495E1,4.728816376E0,1.699339480E1
4.613588875E0,2.096989288E0,-1.284478912E1,2.223775635E0,1.320345219E1
4.623527875E0,8.488847351E-1,-1.072953781E1,1.142424316E0,1.082352624E1
4.633467875E0,7.867639160E-1,-1.005938141E1,1.179996185E0,1.015886523E1
4.643407875E0,2.776875458E0,-1.121333176E1,1.612446899E0,1.166404010E1
4.653346875E0,5.456153870E0,-1.300705170E1,2.339784393E0,1.429781801E1
4.663286875E0,7.945926361E0,-1.442385544E1,3.328777771E0,1.680077715E1
4.673225875E0,8.860973511E0,-1.426353882E1,2.257904663E0,1.694294911E1
4.683165875E0,8.186176758E0,-1.258223511E1,-2.021845551E0,1.514641838E1
4.693104875E0,8.232131195E0,-1.001821701E1,-5.045108643E0,1.391351060E1
4.703045000E0,8.308023376E0,-7.391329651E0,-3.808081055E0,1.175399880E1
4.712984000E0,8.340805206E0,-3.948189697E0,1.278042297E0,9.316148640E0
4.722924000E0,7.834258575E0,1.017134857E0,6.550827484E0,1.026272437E1
4.732864000E0,7.126530304E0,3.173251190E0,3.204985199E0,8.433794366E0
4.742803000E0,7.878716125E0,2.361788635E0,-5.495072937E-1,8.243432029E0
4.752743000E0,8.925339661E0,-1.698966980E-1,-3.315605164E0,9.522803712E0
4.762682000E0,9.420659637E0,-3.153941345E0,-5.807323608E0,1.150744027E1
4.772622000E0,9.578730927E0,-4.940476227E0,-5.932463379E0,1.230262221E1
4.782561000E0,1.009845016E1,-6.093528442E0,-4.980592804E0,1.280297189E1
4.792501000E0,1.035726196E1,-6.957681427E0,-4.054019623E0,1.311934759E1
4.802441000E0,9.774673462E0,-7.626041565E0,-3.046764221E0,1.276650005E1
4.812380000E0,8.854536896E0,-8.009993134E0,-2.310146027E0,1.216139747E1
4.822320000E0,7.935747528E0,-8.272696838E0,-1.846560059E0,1.161134729E1
4.832259000E0,7.137756958E0,-8.506510620E0,-1.432071991E0,1.119638904E1
4.842199000E0,6.354136505E0,-8.789721680E0,-9.142987061E-1,1.088440169E1
4.852138000E0,5.678890686E0,-9.186247101E0,-3.385958862E-1,1.080516462E1
4.862078000E0,5.267097015E0,-9.530082092E0,1.450483704E-1,1.088971141E1
4.872018000E0,5.073998566E0,-1.013886612E1,-1.525328064E-1,1.133866544E1
4.881957000E0,3.811972961E0,-1.055889267E1,1.964814148E0,1.139657172E1
4.891897000E0,1.241967316E0,-1.087683151E1,9.502689056E0,1.449651840E1
4.901836000E0,1.362317047E0,-1.053120026E1,7.875273285E0,1.322051496E1
4.911776000E0,2.860401764E0,-9.645342407E0,2.891387329E0,1.046779103E1
4.921715000E0,3.492986298E0,-8.876690826E0,6.102809143E-1,9.558715191E0
4.931655000E0,3.502865753E0,-8.313112793E0,-6.536906433E-1,9.044624052E0
4.941595000E0,3.205883331E0,-7.873177643E0,-5.141807556E-1,8.516395715E0
4.951534000E0,3.230581970E0,-7.466174011E0,-1.034349060E-1,8.135792095E0
4.961474000E0,3.426225128E0,-7.213200073E0,1.579216003E-1,7.987127967E0
4.971413000E0,3.776047668E0,-7.175478516E0,-1.496887207E-4,8.108392439E0
4.981353000E0,4.098776550E0,-7.358398132E0,-4.673281860E-1,8.435898762E0
4.991292000E0,4.391417999E0,-7.541168060E0,-1.026714935E0,8.786803248E0
5.001232000E0,4.656816101E0,-7.501201172E0,-1.581611023E0,8.969696129E0
5.011171000E0,4.907095642E0,-7.440427551E0,-2.119143219E0,9.161349124E0
5.021111000E0,5.258415070E0,-7.376061401E0,-1.930385742E0,9.261943638E0
5.031051000E0,5.303621063E0,-7.452252960E0,-9.562115479E-1,9.196673914E0
5.040990000E0,5.156776428E0,-7.546706543E0,8.412506104E-2,9.140689241E0
5.050930000E0,5.352718964E0,-7.508535919E0,1.267713776E0,9.307889673E0
5.060869000E0,5.908064117E0,-7.478149109E0,2.275268555E0,9.798203035E0
5.070809000E0,6.420598297E0,-7.589367828E0,2.920726318E0,1.036114032E1
5.080748000E0,6.750063171E0,-7.810308380E0,3.028801575E0,1.075815545E1
5.090688000E0,7.026538239E0,-8.046966248E0,2.822231140E0,1.104947483E1
5.100628000E0,7.287745056E0,-8.393944702E0,2.476899261E0,1.138879123E1
5.110567000E0,7.019802246E0,-8.841663666E0,2.258204041E0,1.151312840E1
5.120507000E0,5.951773224E0,-9.459578705E0,2.237397308E0,1.139794633E1
5.130446000E0,4.777614899E0,-1.015832565E1,1.936522980E0,1.139154535E1
5.140386000E0,4.053121490E0,-1.082788330E1,1.163380737E0,1.161999593E1
5.150325000E0,3.961511993E0,-1.123324036E1,3.737727356E-1,1.191717132E1
5.160265000E0,3.881129150E0,-1.150612289E1,1.401086426E-1,1.214387327E1
5.170205000E0,3.478017426E0,-1.172451874E1,4.327500916E-1,1.223716542E1
5.180144000E0,2.887645111E0,-1.160446838E1,1.215322723E0,1.201994967E1
5.190084000E0,2.460283813E0,-1.111438751E1,2.541714478E0,1.166374377E1
5.200023000E0,2.697839813E0,-1.082204544E1,3.825295258E0,1.179100890E1
5.209963000E0,3.345093842E0,-1.103415436E1,4.276007996E0,1.229741678E1
5.219902000E0,3.867507477E0,-1.190923462E1,3.890709229E0,1.311202126E1
5.229842000E0,3.864663391E0,-1.327933548E1,3.010389862E0,1.415410969E1
5.239781000E0,3.451522522E0,-1.444181808E1,2.493664398E0,1.505647633E1
5.249721000E0,2.761158142E0,-1.438373886E1,2.849773865E0,1.492103043E1
5.259661000E0,1.836979980E0,-1.326706100E1,2.822380829E0,1.368777691E1
5.269600000E0,1.086141357E0,-1.229273712E1,1.979184265E0,1.249833026E1
5.279540000E0,8.866062927E-1,-1.188857758E1,1.579216003E0,1.202573369E1
5.289479000E0,1.514700165E0,-1.198722244E1,2.262245636E0,1.229250071E1
5.299419000E0,3.646417236E0,-1.178663956E1,2.907553711E0,1.267576819E1
5.309358000E0,6.137985992E0,-1.121003860E1,2.517015839E0,1.302594359E1
5.319298000E0,8.112679596E0,-1.087264023E1,1.588047638E0,1.365839563E1
5.329238000E0,9.651180267E0,-1.150372787E1,4.575984192E-1,1.502299677E1
5.339177000E0,1.097353043E1,-1.250394791E1,-6.237528992E-1,1.664800742E1
5.349117000E0,1.212987579E1,-1.319086945E1,-1.622026978E0,1.799344033E1
5.359056000E0,1.308803329E1,-1.319401291E1,-2.532433777E0,1.875611402E1
5.368996000E0,1.348081650E1,-1.260543686E1,-2.575993195E0,1.863505280E1
5.378935000E0,1.318622910E1,-1.153171967E1,-1.575174408E0,1.758801781E1
5.388875000E0,1.268252655E1,-1.022403900E1,-6.788383484E-1,1.630454767E1
5.398815000E0,1.137634277E1,-8.476572876E0,-1.351689148E0,1.425133419E1
5.408754000E0,9.892927551E0,-6.771169281E0,-2.125579834E0,1.217525518E1
5.418694000E0,8.253686371E0,-5.555247803E0,-1.767973480E0,1.010494172E1
5.428633000E0,6.652615814E0,-5.038222961E0,-7.881111145E-1,8.382249514E0
5.438573000E0,5.506149902E0,-4.995262299E0,-4.819976807E-2,7.434558184E0
5.448512000E0,4.591851196E0,-5.301226044E0,4.923262024E-1,7.030681337E0
5.458452000E0,3.997287598E0,-5.790558472E0,9.803114319E-1,7.104216076E0
5.468391000E0,3.723506927E0,-6.115382996E0,1.175655212E0,7.255658357E0
5.478331000E0,3.596271515E0,-6.307283936E0,1.044827271E0,7.335302548E0
5.488271000E0,3.667673035E0,-6.351442108E0,6.438111877E-1,7.362549503E0
5.498210000E0,3.441194000E0,-6.349496155E0,1.719923401E-1,7.224091564E0
5.508150000E0,2.956651611E0,-6.315965881E0,-1.266366577E-1,6.974901477E0
5.518089000E0,2.654430084E0,-6.273454285E0,-1.431024170E-1,6.813421023E0
5.528029000E0,2.683170319E0,-6.058650970E0,1.146615601E-1,6.627201658E0
5.537968000E0,2.888543243E0,-5.686824188E0,2.809657288E-1,6.384558963E0
5.547908000E0,3.347937927E0,-5.313650208E0,4.281097412E-2,6.280557274E0
5.557848000E0,4.065845032E0,-4.998854828E0,-4.447251892E-1,6.458902841E0
5.567787000E0,4.680466919E0,-4.518653412E0,-9.027726746E-1,6.568104577E0
5.577727000E0,5.359005890E0,-3.720363464E0,-1.024170227E0,6.603709040E0
5.587666000E0,6.115981750E0,-2.826871490E0,-1.077758789E0,6.823342231E0
5.597606000E0,6.428082733E0,-2.032473450E0,-1.192570038E0,6.846416526E0
5.607545000E0,6.310128021E0,-1.282532959E0,-1.320853271E0,6.573222939E0
5.617485000E0,6.064339142E0,-6.795867920E-1,-1.353335724E0,6.250565176E0
5.627424000E0,5.692662048E0,-1.805245972E-1,-9.614506531E-1,5.776104023E0
5.637364000E0,5.657934265E0,1.291813660E-1,-2.631527710E-1,5.665523573E0
5.647304000E0,6.352190552E0,2.195933533E-1,1.186133423E0,6.465714078E0
5.657243000E0,6.956932983E0,-6.761439514E-1,3.040477295E0,7.622374260E0
5.667183000E0,5.231171722E0,-3.651506653E0,5.656138000E0,8.525875645E0
5.677122000E0,2.519111481E0,-7.498955841E0,9.503736877E0,1.236532555E1
5.687062000E0,6.216572571E-1,-1.176523407E1,1.330852478E1,1.777425167E1
5.697001000E0,-3.147953796E-1,-1.599843109E1,1.416025360E1,2.136730389E1
5.706941000E0,6.604266357E-1,-1.916419785E1,1.266306702E1,2.297946711E1
5.716881000E0,1.842518463E0,-2.216994736E1,1.388647293E1,2.622471297E1
5.726820000E0,2.493664398E0,-2.348930374E1,1.373498795E1,2.732426845E1
5.736760000E0,3.783083038E0,-1.994377670E1,9.237440643E0,2.230238230E1
5.746699000E0,3.365152130E0,-1.432296524E1,5.630690918E0,1.575361109E1
5.756639000E0,1.603914642E0,-1.054137909E1,3.948339386E0,1.137025062E1
5.766578000E0,2.796185303E-1,-8.076754303E0,3.221301270E0,8.699938417E0
5.776518000E0,3.914360046E-1,-6.540798340E0,2.457888794E0,6.998319969E0
5.786457000E0,2.395318909E0,-6.375392303E0,6.012995911E-1,6.837012571E0
5.796397000E0,5.259313202E0,-8.136330414E0,-2.122885437E0,9.918008396E0
5.806337000E0,7.431745605E0,-9.891131287E0,-3.937412109E0,1.298339459E1
5.816276000E0,8.607700195E0,-1.079719711E1,-5.200036469E0,1.475507870E1
5.826216000E0,8.474626923E0,-1.187196213E1,-3.383713531E0,1.497372043E1
5.836155000E0,9.311536560E0,-1.359877121E1,7.878267059E0,1.826741316E1
5.846095000E0,1.129805557E1,-1.251936584E1,8.575666809E0,1.891884357E1
5.856034000E0,1.162811920E1,-7.424710236E0,2.527943115E0,1.402604629E1
5.865974000E0,9.936636658E0,-3.817212067E0,1.645977173E0,1.077112329E1
5.875914000E0,7.985294495E0,-2.062560883E0,-8.205935669E-1,8.288091419E0
5.885853000E0,7.004384308E0,-1.428928528E0,-2.907553711E0,7.717324980E0
5.895793000E0,6.736441498E0,-2.726130981E0,-4.661456451E0,8.633690429E0
5.905732000E0,6.856042786E0,-3.898343353E0,-5.316943359E0,9.511692292E0
5.915672000E0,7.201973419E0,-4.568200378E0,-5.441634064E0,1.011673154E1
5.925611000E0,7.868986359E0,-5.483546906E0,-5.069358215E0,1.084843886E1
5.935551000E0,8.326884155E0,-6.495292969E0,-4.247716827E0,1.138283483E1
5.945490000E0,8.234975281E0,-7.259902954E0,-3.287912750E0,1.145999036E1
5.955430000E0,7.460785217E0,-7.833659821E0,-2.600991211E0,1.112630655E1
5.965370000E0,6.453080750E0,-8.314310303E0,-2.236948242E0,1.075983013E1
5.975309000E0,5.901627502E0,-8.643625488E0,-1.832339630E0,1.062539116E1
5.985249000E0,5.894292755E0,-8.917705536E0,-1.404080200E0,1.078144704E1
5.995188000E0,6.328839111E0,-9.030870209E0,-1.267863464E0,1.110037382E1
6.005128000E0,6.369853821E0,-8.889414368E0,-1.178798676E0,1.099937688E1
6.015067000E0,5.608087921E0,-8.636440430E0,-1.027164001E0,1.034861437E1
6.025007000E0,4.922513580E0,-8.212971039E0,-8.517288208E-1,9.612984719E0
6.034947000E0,4.546196136E0,-7.904312897E0,-1.617386627E0,9.260777569E0
6.044886000E0,3.866309967E0,-7.730524292E0,-3.210823059E-1,8.649419197E0
6.054826000E0,2.948867798E0,-7.340585175E0,6.342610474E0,1.013946348E1
6.064765000E0,3.064876556E0,-6.959926758E0,6.831942902E0,1.022298844E1
6.074705000E0,3.575764160E0,-7.031477966E0,3.433110809E0,8.603140214E0
6.084644000E0,4.271816711E0,-7.300767975E0,1.609752502E0,8.610513002E0
6.094584000E0,4.952900391E0,-7.519163818E0,4.781057739E-1,9.016519946E0
6.104523000E0,5.080435181E0,-7.647746429E0,4.266128540E-2,9.181539471E0
6.114463000E0,4.865482178E0,-7.639812927E0,2.680924988E-1,9.061541369E0
6.124403000E0,4.682712250E0,-7.528444519E0,5.516029358E-1,8.883104001E0
6.134342000E0,4.787344666E0,-7.444020081E0,7.071295166E-1,8.878746311E0
6.144282000E0,4.813091125E0,-7.660020905E0,6.610253906E-1,9.070761876E0
6.154221000E0,4.518054657E0,-8.109236755E0,6.279441833E-1,9.304130939E0
6.164161000E0,4.504133606E0,-8.532556458E0,7.445516968E-1,9.677091323E0
6.174100000E0,4.610861664E0,-8.885522461E0,1.136736145E0,1.007495527E1
6.184040000E0,4.798421631E0,-9.012159119E0,1.597927094E0,1.033427468E1
6.193979000E0,5.309608612E0,-9.071286163E0,1.829196167E0,1.066893317E1
6.203919000E0,5.724845123E0,-9.269324341E0,1.731000366E0,1.103134569E1
6.213859000E0,5.897136841E0,-9.395212555E0,1.307830353E0,1.116945218E1
6.223798000E0,5.794899445E0,-9.250164185E0,9.517208862E-1,1.095683210E1
6.233738000E0,5.307962036E0,-8.851692810E0,1.039737854E0,1.037342669E1
6.243677000E0,4.640949097E0,-8.583450623E0,1.495240631E0,9.871665394E0
6.253617000E0,4.233346710E0,-8.843759308E0,1.829046478E0,9.973901648E0
6.263556000E0,4.063150635E0,-9.946216736E0,1.739382935E0,1.088401918E1
6.273496000E0,4.077071686E0,-1.130209717E1,1.298998718E0,1.208500358E1
6.283436000E0,4.103267212E0,-1.222522751E1,9.159452820E-1,1.292795209E1
6.293375000E0,4.016447754E0,-1.240320740E1,8.704399109E-1,1.306633353E1
6.303315000E0,3.858077087E0,-1.190773773E1,1.313817902E0,1.258590856E1
6.313254000E0,3.862567749E0,-1.124656265E1,2.206561432E0,1.209435879E1
6.323194000E0,4.151766357E0,-1.085123474E1,3.228037262E0,1.205846938E1
6.333133000E0,4.504133606E0,-1.091215805E1,4.009412384E0,1.246746969E1
6.343073000E0,4.627327423E0,-1.145717468E1,4.381688232E0,1.311023274E1
6.353012000E0,4.487967224E0,-1.245110779E1,4.204606476E0,1.388706775E1
6.362952000E0,4.059857483E0,-1.351120331E1,3.866759033E0,1.462829050E1
6.372892000E0,3.397335205E0,-1.347243393E1,3.684737549E0,1.437447924E1
6.382831000E0,2.498604126E0,-1.230590973E1,3.130290527E0,1.294129652E1
6.392771000E0,1.739682312E0,-1.127006378E1,1.960173798E0,1.157078707E1
6.402710000E0,1.579964447E0,-1.082339264E1,1.515298920E0,1.104256522E1
6.412650000E0,2.547103271E0,-1.107636658E1,2.682421875E0,1.167771462E1
6.422589000E0,4.239184570E0,-1.172930878E1,2.806064758E0,1.278363679E1
6.432529000E0,5.875581665E0,-1.175670181E1,1.396296387E0,1.321711546E1
6.442468000E0,7.182513885E0,-1.200323914E1,1.101708984E-1,1.398850932E1
6.452408000E0,8.395441589E0,-1.281170792E1,-7.132667542E-1,1.533401606E1
6.462348000E0,9.739197235E0,-1.358694580E1,-1.118025055E0,1.675431404E1
6.472287000E0,1.114612152E1,-1.395338379E1,-1.096020813E0,1.789229459E1
6.482227000E0,1.250903732E1,-1.387030655E1,-9.357041931E-1,1.870125560E1
6.492166000E0,1.341076218E1,-1.345956070E1,-9.009764099E-1,1.902156868E1
6.502106000E0,1.310404999E1,-1.244676682E1,-1.184187469E0,1.811188643E1
6.512045000E0,1.253643036E1,-1.082204544E1,-1.626367950E0,1.664102840E1
6.521985000E0,1.134790192E1,-8.828940125E0,-2.029629364E0,1.452048405E1
6.531925000E0,9.580676880E0,-7.019353180E0,-2.472109222E0,1.213144726E1
6.541864000E0,7.935747528E0,-5.583389282E0,-2.151176605E0,9.938706430E0
6.551804000E0,6.447691956E0,-4.571194153E0,-1.447938995E0,8.035239565E0
6.561743000E0,5.501958618E0,-4.330943756E0,-2.023791504E-1,7.004968221E0
6.571683000E0,4.736450500E0,-4.517755280E0,9.238787842E-1,6.610418150E0
6.581622000E0,3.970643005E0,-4.976251831E0,1.953288116E0,6.659160805E0
6.591562000E0,3.579955444E0,-5.460943909E0,2.440674591E0,6.971002928E0
6.601501000E0,3.619323578E0,-5.768404541E0,1.927541656E0,7.077387297E0
6.611441000E0,3.698359222E0,-5.969436493E0,1.202898560E0,7.124534927E0
6.621381000E0,3.159330139E0,-5.991440735E0,5.780978394E-1,6.798008982E0
6.631320000E0,2.664758606E0,-6.043532410E0,1.838177490E-1,6.607496605E0
6.641260000E0,2.395618286E0,-6.098019104E0,1.294807434E-1,6.552983231E0
6.651199000E0,2.224823456E0,-6.008804626E0,2.347119141E-1,6.411759675E0
6.661139000E0,2.712958374E0,-5.732179871E0,4.528083801E-1,6.357913544E0
6.671078000E0,3.477418671E0,-5.292095032E0,4.806504822E-1,6.350569685E0
6.681018000E0,3.994593201E0,-4.844675446E0,2.365081787E-2,6.279188990E0
6.690957000E0,4.563410339E0,-4.332889709E0,-6.960525513E-1,6.331124412E0
6.700897000E0,5.354215851E0,-3.656147003E0,-1.432071991E0,6.639719006E0
6.710837375E0,5.968837738E0,-2.955603790E0,-2.087858276E0,6.980098129E0
6.720776375E0,6.193071442E0,-2.330653381E0,-2.658621368E0,7.131223363E0
6.730716375E0,6.312073975E0,-1.651815033E0,-2.974763947E0,7.170773410E0
6.740655375E0,6.376589813E0,-8.668473816E-1,-2.618355103E0,6.947525133E0
6.750595375E0,6.249504089E0,-1.757345581E-1,-1.799408112E0,6.505770788E0
6.760534375E0,6.537654877E0,3.326083374E-1,-1.083596649E0,6.635189620E0
6.770474375E0,7.899672546E0,4.254153442E-1,3.463796997E-1,7.918698343E0
6.780414375E0,9.192833405E0,2.309696960E-1,2.850073242E0,9.627276380E0
6.790353375E0,8.578211517E0,-1.503473511E0,7.185058594E0,1.129031498E1
6.800293375E0,4.900659027E0,-5.795797577E0,1.342228821E1,1.541964815E1
6.810232375E0,1.098415833E0,-1.114327744E1,1.932286789E1,2.233276456E1
6.820172375E0,-1.267564087E0,-1.656215881E1,1.619572083E1,2.319942233E1
6.830111375E0,-9.577084351E-1,-2.069326813E1,1.236189331E1,2.412353534E1
6.840051375E0,-6.885681152E-1,-2.562296677E1,1.863055756E1,3.168766679E1
6.849990375E0,-3.140469360E-1,-2.673455521E1,1.348096619E1,2.994280409E1
6.859930375E0,2.118095398E0,-2.197220856E1,5.891897736E0,2.284685396E1
6.869870375E0,2.616259460E0,-1.479238907E1,3.715423737E0,1.547462314E1
6.879809375E0,1.019380188E0,-9.460027771E0,4.088597717E0,1.035605585E1
6.889749375E0,1.305285645E-1,-5.953868866E0,5.060077515E0,7.814728187E0
6.899688375E0,9.319619751E-1,-3.871249695E0,5.170398102E0,6.525959229E0
6.909628375E0,4.427193604E0,-4.506678314E0,3.947740631E0,7.449486474E0
6.919567375E0,8.309370575E0,-7.489375763E0,1.112935638E0,1.124166422E1
6.929507375E0,1.016700760E1,-1.045830185E1,-3.672463074E0,1.504098089E1
6.939446375E0,9.573940887E0,-1.285182449E1,-7.817643127E0,1.783102019E1
6.949386375E0,9.256750488E0,-1.464105377E1,-7.910300446E0,1.904260324E1
6.959326375E0,1.074076447E1,-1.537407944E1,-1.113983459E0,1.878742396E1
6.969265375E0,1.088177124E1,-1.191851532E1,3.703748016E0,1.655843296E1
6.979205375E0,9.241931305E0,-6.361620941E0,9.825567627E-1,1.126272316E1
6.989144375E0,7.358547821E0,-2.002685394E0,-5.917195129E-1,7.649124578E0
6.999084375E0,6.674470367E0,-6.438111877E-1,-6.843768311E-1,6.740283316E0
7.009023375E0,6.820117493E0,-3.532653809E-1,-1.694326630E0,7.036301711E0
7.018963375E0,7.290738831E0,-1.963167572E0,-4.034410400E0,8.560687291E0
7.028902375E0,8.009843445E0,-3.651806030E0,-4.790787506E0,1.002222152E1
7.038842375E0,8.603209534E0,-4.823419647E0,-4.622537384E0,1.089258662E1
7.048782375E0,9.461973724E0,-5.878725128E0,-4.001478882E0,1.183639257E1
7.058721375E0,9.425599365E0,-6.947652283E0,-3.241808624E0,1.214994316E1
7.068661375E0,8.336164856E0,-7.567064209E0,-2.674488373E0,1.157173251E1
7.078600375E0,7.320377197E0,-7.903115387E0,-2.271825714E0,1.100946625E1
7.088540375E0,6.856791229E0,-8.153394928E0,-1.968406677E0,1.083365403E1
7.098479375E0,6.567592621E0,-8.646918640E0,-1.622625732E0,1.097886101E1
7.108419375E0,6.357130280E0,-8.727600861E0,-9.867480469E-1,1.084240720E1
7.118359375E0,6.114634552E0,-8.938063202E0,-7.427554321E-1,1.085492585E1
7.128298375E0,6.223158875E0,-8.888665924E0,-7.852670288E-1,1.087900421E1
7.138238375E0,5.581443329E0,-8.819509735E0,-6.896159363E-1,1.046001108E1
7.148177375E0,4.690046997E0,-8.871451721E0,-9.744735718E-1,1.008210272E1
7.158117375E0,3.172652435E0,-8.799601135E0,1.682650909E0,9.504210525E0
7.168056375E0,1.951791229E0,-8.303083649E0,5.896388397E0,1.036909269E1
7.177996375E0,1.933379517E0,-8.013885040E0,4.147425385E0,9.228296003E0
7.187935375E0,2.811603241E0,-7.769293671E0,1.421444092E0,8.383766470E0
7.197875375E0,3.727099457E0,-7.442523193E0,3.293151855E-2,8.323671445E0
7.207815375E0,4.204456787E0,-7.289092255E0,-7.375163269E-1,8.447026288E0
7.217754375E0,4.325405273E0,-7.173382874E0,-9.139993286E-1,8.426265329E0
7.227694375E0,4.379891968E0,-6.952891388E0,-6.327342224E-1,8.241753751E0
7.237633375E0,4.762196960E0,-6.663543091E0,-5.140310669E-1,8.206433717E0
7.247573375E0,4.941224670E0,-6.717281342E0,-1.624122620E-1,8.340500441E0
7.257512375E0,5.018464050E0,-7.068002014E0,3.209326172E-1,8.674366354E0
7.267452375E0,5.141059113E0,-7.702382813E0,7.833210754E-1,9.293588204E0
7.277391375E0,5.120102692E0,-8.470735016E0,1.190175018E0,9.969218618E0
7.287331375E0,5.232219543E0,-9.005273438E0,1.281185760E0,1.049345072E1
7.297271375E0,5.520520020E0,-9.365873566E0,1.460063782E0,1.096938992E1
7.307210375E0,5.752088470E0,-9.568103027E0,1.856589203E0,1.131733364E1
7.317150375E0,5.768853607E0,-9.677226105E0,2.175575867E0,1.147438484E1
7.327089375E0,5.725743256E0,-9.703122253E0,2.200873260E0,1.147948433E1
7.337029375E0,5.657335510E0,-9.663305054E0,2.063009949E0,1.138599665E1
7.346968375E0,5.228477325E0,-9.666298828E0,1.938019867E0,1.115931132E1
7.356908375E0,4.405039673E0,-9.689949646E0,1.841021576E0,1.080226176E1
7.366847375E0,3.598067780E0,-9.867031403E0,1.727856903E0,1.064377235E1
7.376787375E0,3.164269867E0,-1.035262161E1,1.275347900E0,1.090027019E1
7.386727375E0,3.050506439E0,-1.104702759E1,5.995033264E-1,1.147614100E1
7.396666375E0,3.073408813E0,-1.143232635E1,2.025288391E-1,1.183997236E1
7.406606375E0,2.993025970E0,-1.156644745E1,4.337979126E-1,1.195529555E1
7.416545375E0,2.901117096E0,-1.116857483E1,1.190923462E0,1.160051045E1
7.426485375E0,3.123853912E0,-1.057146652E1,2.173031158E0,1.123549875E1
7.436424375E0,3.649560699E0,-1.029529083E1,2.964884491E0,1.131825281E1
7.446364375E0,4.411625977E0,-1.052281769E1,3.412004700E0,1.190940435E1
7.456303375E0,4.950804749E0,-1.124551483E1,3.612437897E0,1.280709878E1
7.466243375E0,5.024152222E0,-1.234782257E1,3.653153229E0,1.382231371E1
7.476183375E0,4.613406372E0,-1.338741074E1,3.476969604E0,1.458065850E1
7.486122375E0,3.858226776E0,-1.374950775E1,3.349434814E0,1.466811477E1
7.496062375E0,2.929707642E0,-1.303055283E1,3.276237030E0,1.375180799E1
7.506001375E0,2.309547272E0,-1.201162170E1,3.051554260E0,1.260654782E1
7.515941375E0,1.642684021E0,-1.142274628E1,1.950294342E0,1.170389642E1
7.525880375E0,1.384920044E0,-1.118444183E1,9.523196411E-1,1.131002455E1
7.535820375E0,2.354902954E0,-1.108220444E1,1.663939819E0,1.145117980E1
7.545759375E0,4.083508301E0,-1.136107452E1,3.081342316E0,1.245968398E1
7.555699375E0,5.941444702E0,-1.152109177E1,2.808459778E0,1.326362571E1
7.565639375E0,7.661817169E0,-1.180984131E1,1.255289612E0,1.413334872E1
7.575578375E0,9.164991302E0,-1.267040176E1,-2.116598511E-1,1.563908394E1
7.585518375E0,1.065783691E1,-1.378603180E1,-9.737251282E-1,1.745257291E1
7.595457375E0,1.196970886E1,-1.453178101E1,-1.292412415E0,1.887106037E1
7.605397375E0,1.334519852E1,-1.470721619E1,-1.232237549E0,1.989761143E1
7.615336375E0,1.426847855E1,-1.432311493E1,-1.158291321E0,2.025049975E1
7.625276375E0,1.350162323E1,-1.334055817E1,-1.037941589E0,1.900898853E1
7.635215375E0,1.246053818E1,-1.151615204E1,-1.200353851E0,1.700963312E1
7.645155375E0,1.123788071E1,-9.049431610E0,-1.755249939E0,1.453489173E1
7.655095375E0,9.502090302E0,-7.042554932E0,-2.333647156E0,1.205542239E1
7.665034375E0,7.660769348E0,-5.791007538E0,-2.344125366E0,9.885245523E0
7.674974375E0,6.059100037E0,-4.924160156E0,-1.739532623E0,7.999126218E0
7.684913375E0,5.060825958E0,-4.522395630E0,-8.051756287E-1,6.834641864E0
7.694853375E0,4.301904144E0,-4.690645752E0,2.154020691E-1,6.368275661E0
7.704792375E0,3.708687744E0,-5.222489777E0,1.178050232E0,6.512800212E0
7.714732375E0,3.430416412E0,-5.652844849E0,1.492695923E0,6.778683704E0
7.724672375E0,3.421584778E0,-5.809718628E0,1.252445526E0,6.857746913E0
7.734611375E0,3.448977814E0,-5.942791901E0,1.015188904E0,6.945706015E0
7.744551375E0,3.226839752E0,-5.986501007E0,7.176077271E-1,6.838541507E0
7.754490375E0,2.961741028E0,-5.916596375E0,2.951861572E-1,6.623077641E0
7.764430375E0,3.000211029E0,-5.745951233E0,1.210981750E-1,6.483200333E0
7.774369375E0,3.248394928E0,-5.468727722E0,-9.116043091E-2,6.361396288E0
7.784309375E0,3.646117859E0,-5.143903198E0,-4.135899353E-1,6.318621067E0
7.794248375E0,4.141587524E0,-4.815336456E0,-7.818241882E-1,6.399332893E0
7.804188375E0,4.766837311E0,-4.386777649E0,-1.258133698E0,6.599201201E0
7.814128375E0,5.399272156E0,-3.755390625E0,-1.626517639E0,6.775002449E0
7.824067375E0,5.972430267E0,-2.998714142E0,-1.728755035E0,6.902956162E0
7.834007375E0,6.373745728E0,-2.264191589E0,-1.876946869E0,7.019553241E0
7.843946375E0,6.624174957E0,-1.481618958E0,-2.030976563E0,7.085178501E0
7.853886375E0,6.671476593E0,-6.978488159E-1,-2.265688477E0,7.080179177E0
7.863825375E0,6.492598572E0,-7.409591675E-2,-2.217039642E0,6.861092566E0
7.873765375E0,6.383774872E0,4.752616882E-1,-1.530866547E0,6.581945584E0
7.883704375E0,6.548731842E0,9.366023254E-1,-3.562591553E-1,6.624955339E0
7.893644375E0,7.764054565E0,1.086291046E0,1.672771454E0,8.016154681E0
7.903584375E0,9.482630768E0,6.526428223E-1,5.052293701E0,1.076438111E1
7.913523375E0,7.550748138E0,-2.582429810E0,9.515113220E0,1.241853940E1
7.923463375E0,3.517385559E0,-7.432194672E0,1.452070404E1,1.668713171E1
7.933402375E0,3.189866638E-1,-1.242730728E1,1.746433273E1,2.143694560E1
7.943342375E0,-9.131011963E-1,-1.670106995E1,1.394634842E1,2.177751421E1
7.953281375E0,3.053649902E-2,-1.996129028E1,1.135748199E1,2.296620211E1
7.963221375E0,9.083111572E-1,-2.343586487E1,1.460961914E1,2.763160804E1
7.973160375E0,1.598974915E0,-2.358390701E1,1.245425125E1,2.671826650E1
7.983100375E0,2.520907745E0,-1.886227570E1,7.592361603E0,2.048864015E1
7.993040375E0,9.840536499E-1,-1.348680405E1,4.436324615E0,1.423176802E1
8.002979375E0,-1.210832062E0,-9.932295685E0,3.525169373E0,1.060864888E1
8.012919375E0,-2.367327118E0,-7.534282379E0,4.913083191E0,9.300969578E0
8.022858375E0,-1.565594330E0,-6.500681763E0,5.300926666E0,8.532864262E0
8.032798375E0,1.760489044E0,-7.662415924E0,1.258133698E0,7.962087658E0
8.042737375E0,6.052962799E0,-9.558822327E0,-4.434079285E0,1.215197523E1
8.052677375E0,9.226663055E0,-1.079824493E1,-7.792645111E0,1.620057785E1
8.062616375E0,9.655072174E0,-1.201790863E1,-8.471483459E0,1.759024100E1
8.072556375E0,8.992400208E0,-1.422761353E1,-6.132148132E0,1.791344436E1
8.082496375E0,1.040142014E1,-1.795082108E1,1.091305618E1,2.344176430E1
8.092435375E0,1.300465668E1,-1.469778580E1,8.432414703E0,2.136004729E1
8.102375375E0,1.356314529E1,-6.816225586E0,4.038901062E0,1.570772305E1
8.112314375E0,1.248912872E1,-1.450932770E0,2.887495422E0,1.290043302E1
8.122254375E0,1.035651352E1,1.052910461E0,2.218087463E0,1.064358514E1
8.132193375E0,8.991801453E0,2.001038818E0,-1.701212311E0,9.367538259E0
8.142133375E0,8.472531281E0,-4.116439819E-1,-6.205645294E0,1.051015084E1
8.152072375E0,8.235723724E0,-2.232607269E0,-7.071594543E0,1.108237925E1
8.162012375E0,8.925189972E0,-3.019520874E0,-6.192921753E0,1.127514089E1
8.171952375E0,1.002914429E1,-4.136498108E0,-5.318589935E0,1.208229079E1
8.181891375E0,1.009815079E1,-5.331762543E0,-4.488416290E0,1.226972787E1
8.191831375E0,9.311386871E0,-6.188880157E0,-3.487597504E0,1.171185295E1
8.201770375E0,8.497678986E0,-6.947502594E0,-2.533182220E0,1.126478374E1
8.211710375E0,7.903265076E0,-7.519313507E0,-1.920057220E0,1.107647481E1
8.221649375E0,7.451504517E0,-8.029452667E0,-1.595232697E0,1.106985985E1
8.231589375E0,7.274273071E0,-8.526269531E0,-1.472338257E0,1.130398606E1
8.241528375E0,7.652536469E0,-8.991951141E0,-1.303190002E0,1.187917522E1
8.251468375E0,7.318880310E0,-9.225315857E0,-1.048419800E0,1.182250590E1
8.261408375E0,6.297105103E0,-9.095386047E0,-1.026714935E0,1.111007307E1
8.271347375E0,5.243745575E0,-8.817114716E0,-1.172960815E0,1.032541605E1
8.281287375E0,4.269571381E0,-8.535999298E0,-1.315464478E0,9.634467841E0
8.291226375E0,3.674409027E0,-8.285420380E0,-1.384321289E0,9.168741353E0
8.301166375E0,3.448079681E0,-8.296048279E0,-1.564696198E0,9.119317119E0
8.311105375E0,3.030897217E0,-8.844807129E0,-1.832339630E0,9.527561052E0
8.321045375E0,1.581012268E0,-9.579629059E0,1.568139038E0,9.835036997E0
8.330984375E0,2.984793091E-1,-9.771230621E0,6.079607391E0,1.151206601E1
8.340924375E0,8.711883545E-1,-9.434431000E0,4.097279663E0,1.032255579E1
8.350864375E0,1.903142395E0,-9.142088928E0,2.068698120E0,9.564478703E0
8.360803375E0,2.913241882E0,-8.951535187E0,6.959028625E-1,9.439345383E0
8.370743375E0,3.438798981E0,-8.805738373E0,-1.845661926E-1,9.455180136E0
8.380682375E0,3.548221436E0,-8.602161713E0,-5.451663208E-1,9.321173092E0
8.390622375E0,3.789369965E0,-8.405770111E0,-3.486250305E-1,9.227016598E0
8.400561375E0,3.477718048E0,-8.513545990E0,-5.748046875E-2,9.196645701E0
8.410501375E0,3.611988831E0,-8.963510284E0,1.154100037E0,9.732570412E0
8.420440375E0,4.411326599E0,-9.317075043E0,2.671943665E0,1.064927099E1
8.430380375E0,5.202730865E0,-9.626032562E0,3.344794464E0,1.144187753E1
8.440320375E0,5.646108856E0,-9.831106110E0,3.447181549E0,1.184956764E1
8.450259375E0,5.577252045E0,-9.908794556E0,3.170556793E0,1.180433735E1
8.460199375E0,5.006488953E0,-9.576036530E0,2.764750671E0,1.115388961E1
8.470138375E0,3.965553589E0,-8.995843048E0,2.463127899E0,1.013497935E1
8.480078375E0,2.885549469E0,-8.838819580E0,2.356399841E0,9.591858398E0
8.490017375E0,2.631827087E0,-9.385782166E0,1.900597687E0,9.931348964E0
8.499957375E0,3.089126129E0,-1.056053925E1,9.957293701E-1,1.104803903E1
8.509896375E0,3.834575958E0,-1.169098846E1,1.916015625E-1,1.230527916E1
8.519836375E0,4.497846680E0,-1.213331863E1,-9.894424438E-2,1.294055006E1
8.529776375E0,4.870272217E0,-1.160207336E1,1.927990723E-1,1.258430885E1
8.539715375E0,4.982239380E0,-1.066412384E1,8.171507263E-1,1.179889748E1
8.549655375E0,4.975054321E0,-1.010129425E1,1.349593506E0,1.134057819E1
8.559594375E0,4.936434631E0,-9.817634125E0,1.849404144E0,1.114336674E1
8.569534375E0,4.910089417E0,-9.913135529E0,2.414479065E0,1.132293881E1
8.579473375E0,4.724475403E0,-1.047072601E1,2.877915344E0,1.184226194E1
8.589413375E0,4.289330292E0,-1.156584869E1,2.889591064E0,1.266952828E1
8.599352375E0,3.836521912E0,-1.279284714E1,2.491718445E0,1.358618780E1
8.609292375E0,3.555705872E0,-1.314446594E1,2.501148834E0,1.384470204E1
8.619232375E0,3.191064148E0,-1.238614288E1,2.707569580E0,1.307403377E1
8.629171375E0,2.930905151E0,-1.165820663E1,2.789898376E0,1.234048297E1
8.639111375E0,2.285896454E0,-1.155656799E1,2.122885437E0,1.197022259E1
8.649050375E0,1.825903015E0,-1.165236877E1,1.514700165E0,1.189142281E1
8.658990375E0,3.015628967E0,-1.136406830E1,2.134561157E0,1.194957814E1
8.668929375E0,5.353766785E0,-1.095975906E1,3.090473328E0,1.258293141E1
8.678869375E0,7.485633545E0,-1.100032471E1,3.983516235E0,1.388921361E1
8.688808375E0,9.322164459E0,-1.185878952E1,3.148402863E0,1.540928550E1
8.698748375E0,1.074031540E1,-1.318113968E1,8.298742676E-1,1.702308754E1
8.708688625E0,1.136346954E1,-1.438104446E1,-6.285429382E-1,1.833951870E1
8.718627625E0,1.237267090E1,-1.477248047E1,-9.020242310E-1,1.929048501E1
8.728567625E0,1.359951965E1,-1.444885345E1,-5.676196289E-1,1.985040284E1
8.738506625E0,1.381626892E1,-1.368304596E1,-4.041595459E-2,1.944522222E1
8.748446625E0,1.320853271E1,-1.239811798E1,-3.412902832E-2,1.811573434E1
8.758385625E0,1.230650848E1,-1.045111679E1,-6.939569092E-1,1.616037034E1
8.768325625E0,1.028286667E1,-8.354875946E0,-1.986519012E0,1.339729662E1
8.778264625E0,8.510552216E0,-6.527625732E0,-2.531835022E0,1.102041675E1
8.788204625E0,7.129973145E0,-5.144501953E0,-2.110012207E0,9.041823317E0
8.798144625E0,5.567522278E0,-4.356091461E0,-1.070424042E0,7.149730398E0
8.808083625E0,4.412524109E0,-4.268523560E0,1.610650635E-1,6.141384563E0
8.818023625E0,3.801794128E0,-4.580474854E0,1.083446960E0,6.050474840E0
8.827962625E0,3.256478119E0,-5.058281250E0,1.281036072E0,6.150765185E0
8.837902625E0,3.244053955E0,-5.350323944E0,9.842033386E-1,6.333917317E0
8.847841625E0,3.455115051E0,-5.449268188E0,4.254153442E-1,6.466322140E0
8.857781625E0,3.432362366E0,-5.400769043E0,-1.933978271E-1,6.402095000E0
8.867720625E0,3.044818268E0,-5.294939117E0,-6.426136780E-1,6.141681438E0
8.877660625E0,2.569406891E0,-5.231171722E0,-9.750723267E-1,5.909126450E0
8.887600625E0,2.497705994E0,-5.104385376E0,-9.624984741E-1,5.763652367E0
8.897539625E0,2.785407715E0,-5.009482727E0,-7.544311523E-1,5.781226487E0
8.907479625E0,3.260669403E0,-4.916226654E0,-4.775070190E-1,5.918552393E0
8.917418625E0,3.897594910E0,-4.772226105E0,-4.769082642E-1,6.180034755E0
8.927358625E0,4.536017303E0,-4.430486755E0,-6.911128235E-1,6.378268010E0
8.937297625E0,5.308860168E0,-3.784130859E0,-9.789642334E-1,6.592572610E0
8.947237625E0,6.065686340E0,-2.959645386E0,-1.293609924E0,6.872079614E0
8.957176625E0,6.453380127E0,-2.188598785E0,-1.659149780E0,7.013476862E0
8.967116625E0,6.384523315E0,-1.507664795E0,-2.013013916E0,6.862027115E0
8.977055625E0,5.893095245E0,-9.226812744E-1,-2.556833038E0,6.489784857E0
8.986995625E0,5.124743042E0,-3.775149536E-1,-2.694247284E0,5.802109721E0
8.996935625E0,4.966372375E0,1.601669312E-2,-1.700164490E0,5.249349521E0
9.006874625E0,6.221362610E0,7.409591675E-2,5.292993164E-1,6.244277436E0
9.016814625E0,7.988138580E0,-2.704875183E-1,3.576662292E0,8.756485290E0
9.026753625E0,7.814799042E0,-2.813399506E0,9.065298615E0,1.229495587E1
9.036693625E0,4.567901001E0,-7.980055389E0,1.818867645E1,2.038074961E1
9.046632625E0,1.835782471E0,-1.380040192E1,2.238400223E1,2.636028729E1
9.056572625E0,1.041234741E0,-1.793031372E1,1.263238083E1,2.195808200E1
9.066511625E0,2.477947083E0,-2.014031799E1,9.739646301E0,2.250851707E1
9.076451625E0,4.142335968E0,-2.165232376E1,1.289718018E1,2.554054283E1
9.086391625E0,5.721402283E0,-1.765713181E1,1.270423141E1,2.249235967E1
9.096330625E0,4.966372375E0,-1.098565521E1,9.083710327E0,1.509514055E1
9.106270625E0,3.376229095E0,-7.177424469E0,6.407425690E0,1.019654103E1
9.116209625E0,2.478096771E0,-5.358257446E0,5.000651093E0,7.736820912E0
9.126149625E0,1.571731567E0,-4.869074707E0,5.899531860E0,7.809142385E0
9.136088625E0,1.419198761E0,-6.160139923E0,6.239325256E0,8.882039667E0
9.146028625E0,3.165317688E0,-9.586365051E0,2.386187897E0,1.037359743E1
9.155967625E0,5.225034485E0,-1.308429108E1,-1.199605408E0,1.413996858E1
9.165907625E0,6.015690308E0,-1.536958878E1,-4.720433807E0,1.716669113E1
9.175847625E0,5.751639404E0,-1.704729996E1,-5.830225983E0,1.891251772E1
9.185786625E0,4.879253540E0,-1.938992844E1,-1.105151825E0,2.002492947E1
9.195726625E0,7.857011261E0,-1.841335922E1,1.592388611E0,2.008283161E1
9.205665625E0,1.149818939E1,-1.197135544E1,1.886227570E0,1.670567463E1
9.215605625E0,1.029529083E1,-5.002147980E0,3.700305176E0,1.202941213E1
9.225544625E0,7.418423309E0,-5.571414185E-1,-1.403182068E0,7.570490795E0
9.235484625E0,6.400989075E0,2.912942505E-1,-4.055516510E0,7.583187169E0
9.245423625E0,6.448739777E0,-3.191363525E-1,-4.900359650E0,8.105653423E0
9.255363625E0,7.807763672E0,-1.966311035E0,-6.505172424E0,1.035107825E1
9.265303625E0,9.232500916E0,-3.010988617E0,-6.869664459E0,1.189526861E1
9.275242625E0,1.100167191E1,-3.861519928E0,-6.355184326E0,1.327917500E1
9.285182625E0,1.152378616E1,-5.245092773E0,-5.345084839E0,1.374331029E1
9.295121625E0,1.060799057E1,-6.380781097E0,-4.271367645E0,1.309535845E1
9.305061625E0,9.148824921E0,-6.911876678E0,-3.207529907E0,1.190643879E1
9.315000625E0,7.979606323E0,-7.231462097E0,-2.508034515E0,1.105705197E1
9.324940625E0,7.268584900E0,-7.404951324E0,-2.056723022E0,1.057807828E1
9.334879625E0,7.030879211E0,-7.600295105E0,-1.608405304E0,1.047782018E1
9.344819625E0,7.284751282E0,-7.882907410E0,-1.373543701E0,1.082101903E1
9.354759625E0,7.746840363E0,-8.266858978E0,-1.256786499E0,1.139885982E1
9.364698625E0,7.577841797E0,-8.744066620E0,-9.497749329E-1,1.160967096E1
9.374638625E0,6.838978271E0,-8.989855499E0,-6.110293579E-1,1.131205033E1
9.384577625E0,5.923781433E0,-9.087452545E0,-4.123924255E-1,1.085555377E1
9.394517625E0,5.293442230E0,-8.938811646E0,-4.399351501E-1,1.039790494E1
9.404456625E0,4.724176025E0,-8.588839417E0,-5.004093933E-1,9.815111370E0
9.414396625E0,3.619473267E0,-8.511300659E0,1.256187744E0,9.333854150E0
9.424335625E0,1.578766937E0,-8.944799194E0,5.289250946E0,1.051085692E1
9.434275625E0,1.367556152E0,-8.560847626E0,4.394860840E0,9.719728582E0
9.444214625E0,2.042951660E0,-8.167315979E0,2.341730347E0,8.738558394E0
9.454154625E0,2.759960632E0,-7.860753479E0,9.360035706E-1,8.383610835E0
9.464094625E0,3.382066956E0,-7.600744171E0,-1.002914429E-1,8.319840577E0
9.474033625E0,3.728746033E0,-7.600744171E0,-6.264472961E-1,8.489245853E0
9.483973625E0,3.924838257E0,-8.027656403E0,-5.628295898E-1,8.953457422E0
9.493912625E0,3.948339386E0,-8.616831207E0,-3.905378723E-1,9.486394668E0
9.503852625E0,3.676354980E0,-9.219777374E0,7.828720093E-2,9.926026882E0
9.513791625E0,3.440146179E0,-9.632319489E0,7.006929016E-1,1.025217806E1
9.523731625E0,3.237317963E0,-9.940378876E0,1.542991333E0,1.056750595E1
9.533670625E0,3.144361267E0,-1.004351440E1,2.578837280E0,1.083557064E1
9.543610625E0,3.331921234E0,-1.003498215E1,3.123255157E0,1.102530220E1
9.553550625E0,3.695515137E0,-1.017434235E1,2.787353668E0,1.117780903E1
9.563489625E0,4.117787018E0,-1.032792297E1,1.789528656E0,1.126164178E1
9.573429625E0,4.205803986E0,-1.015129028E1,9.107061768E-1,1.102573659E1
9.583368625E0,4.066593475E0,-9.435029755E0,6.277944946E-1,1.029325482E1
9.593308625E0,3.807482300E0,-8.581953735E0,1.208287354E0,9.466087349E0
9.603247625E0,3.971840515E0,-7.983947296E0,2.597248993E0,9.287875636E0
9.613187625E0,4.806205444E0,-8.181386719E0,3.692970428E0,1.018198065E1
9.623126625E0,5.791755981E0,-9.099128265E0,3.320245514E0,1.128550410E1
9.633066625E0,6.314019928E0,-1.025038422E1,2.017205200E0,1.220681535E1
9.643006625E0,6.267167358E0,-1.116064133E1,1.009351044E0,1.283962971E1
9.652945625E0,5.680537262E0,-1.163305893E1,5.269042969E-1,1.295662733E1
9.662885625E0,4.689148865E0,-1.178559174E1,2.956352234E-1,1.268761955E1
9.672824625E0,3.773203583E0,-1.189426575E1,3.121009827E-1,1.248230868E1
9.682764625E0,3.080593872E0,-1.212673233E1,5.670208740E-1,1.252474384E1
9.692703625E0,2.384092255E0,-1.255124954E1,8.223898315E-1,1.280211256E1
9.702643625E0,1.801653442E0,-1.304237823E1,1.141376495E0,1.321560916E1
9.712581542E0,1.735940094E0,-1.322065750E1,1.993853760E0,1.348238575E1
9.722521542E0,1.795516205E0,-1.283730469E1,2.668351135E0,1.323406090E1
9.732460542E0,2.275118866E0,-1.177690979E1,3.288810883E0,1.243736496E1
9.742400542E0,3.029699707E0,-1.074345886E1,3.728296967E0,1.176865272E1
9.752340542E0,3.108585663E0,-1.045815216E1,3.437451782E0,1.143907016E1
9.762279542E0,3.181184692E0,-1.025472519E1,2.217189331E0,1.096335958E1
9.772219542E0,4.249513092E0,-9.889634399E0,2.044598236E0,1.095644158E1
9.782158542E0,5.756429443E0,-9.789193268E0,3.691623230E0,1.194122552E1
9.792098542E0,7.201374664E0,-1.008752289E1,5.182373199E0,1.343409495E1
9.802037542E0,8.388705597E0,-1.079390396E1,4.202061768E0,1.430161066E1
9.811977542E0,9.410630493E0,-1.189052353E1,1.596879272E0,1.524777162E1
9.821916542E0,1.049512527E1,-1.306228683E1,-1.919009399E-1,1.675732132E1
9.831856542E0,1.169952072E1,-1.389695114E1,-8.134085083E-1,1.818421485E1
9.841796542E0,1.363634308E1,-1.405337585E1,-7.526348877E-1,1.959626711E1
9.851735542E0,1.536779251E1,-1.366463425E1,-7.081773376E-1,2.057651066E1
9.861675542E0,1.573423050E1,-1.279449371E1,-2.682421875E-1,2.028144553E1
9.871614542E0,1.459749435E1,-1.134371063E1,3.150947571E-1,1.848961592E1
9.881554542E0,1.323996735E1,-9.293274536E0,2.543211365E-1,1.617795927E1
9.891493542E0,1.168559967E1,-7.001989288E0,-6.074368286E-1,1.363635117E1
9.901433542E0,9.124126282E0,-5.367089081E0,-1.239272919E0,1.065791363E1
9.911372542E0,6.882537689E0,-4.499493256E0,-1.069226532E0,8.292044982E0
9.921312542E0,5.613626404E0,-4.048181763E0,-1.772314453E-1,6.923293145E0
9.931251542E0,4.905748444E0,-4.097728729E0,4.601431274E-1,6.408547435E0
9.941191542E0,4.025878143E0,-4.453987885E0,7.497908020E-1,6.050445368E0
9.951131542E0,3.178939362E0,-5.020260315E0,1.090931396E0,6.041423707E0
9.961070542E0,2.932252350E0,-5.343288574E0,9.943821716E-1,6.175567386E0
9.971010542E0,3.109483795E0,-5.498366089E0,8.313711548E-1,6.371192755E0
9.980949542E0,3.254681854E0,-5.615572357E0,6.993457031E-1,6.528146083E0
9.990889542E0,3.036286011E0,-5.756878510E0,6.987469482E-1,6.545909426E0
1.000082854E1,2.637215881E0,-5.782175903E0,8.599617004E-1,6.413111562E0
1.001076854E1,2.620450745E0,-5.596112823E0,8.574169922E-1,6.238461728E0
1.002070754E1,3.011138306E0,-5.210814056E0,7.595205688E-1,6.066004329E0
1.003064754E1,3.653602295E0,-4.718188477E0,5.487588501E-1,5.992599478E0
1.004058754E1,4.107458496E0,-4.209546204E0,2.362088013E-1,5.886194793E0
1.005052654E1,4.473297729E0,-3.737278290E0,1.152603149E-2,5.829045757E0
1.006046654E1,5.053940277E0,-3.189866638E0,-2.091151428E-1,5.980074467E0
1.007040554E1,5.591921539E0,-2.587668915E0,-6.768923950E-1,6.198693429E0
1.008034554E1,5.945935364E0,-2.016456757E0,-1.276395721E0,6.406983006E0
1.009028454E1,6.021378479E0,-1.517394562E0,-1.872306519E0,6.485754909E0
1.010022454E1,5.950276337E0,-1.014141083E0,-2.139650574E0,6.404090505E0
1.011016354E1,5.839656372E0,-6.551875305E-1,-1.867516479E0,6.165912345E0
1.012010354E1,6.079757080E0,-4.760101318E-1,-9.632469177E-1,6.173967640E0
1.013004354E1,6.568490753E0,-6.794371033E-1,7.186555481E-1,6.642527482E0
1.013998254E1,6.749165039E0,-1.807191925E0,3.321443024E0,7.736223571E0
1.014992254E1,4.889582062E0,-4.296066284E0,6.561455383E0,9.242126108E0
1.015986154E1,2.445165253E0,-7.824977875E0,1.098251175E1,1.370491431E1
1.016980154E1,5.174739075E-1,-1.236623428E1,1.598480942E1,2.021647006E1
1.017974054E1,-1.011446686E0,-1.692425583E1,1.672142761E1,2.381301327E1
1.018968054E1,-1.358574829E0,-2.061797470E1,1.549951859E1,2.582986029E1
1.019961954E1,-1.460213470E0,-2.420032516E1,1.632130966E1,2.922624010E1
1.020955954E1,-9.072633362E-1,-2.468127502E1,1.294972092E1,2.788698147E1
1.021949854E1,1.609602814E0,-2.031275940E1,7.910899200E0,2.185820994E1
1.022943854E1,1.973346405E0,-1.387315063E1,4.570894775E0,1.473945330E1
1.023937854E1,8.681945801E-1,-9.005423126E0,3.439248047E0,9.678834364E0
1.024931754E1,-3.743714905E-1,-6.176755371E0,3.431164856E0,7.075687472E0
1.025925754E1,-8.678952026E-1,-4.845872955E0,1.655257874E0,5.193804522E0
1.026919654E1,2.069745941E0,-4.967719574E0,-6.586303711E-1,5.421796749E0
1.027913654E1,7.955506439E0,-6.178252258E0,-3.336561584E0,1.061100970E1
1.028907554E1,1.212867828E1,-7.689659271E0,-4.707111511E0,1.511266341E1
1.029901554E1,1.323248291E1,-9.141939240E0,-4.568649445E0,1.671963561E1
1.030895454E1,1.332693649E1,-1.237791000E1,1.411714325E0,1.824315843E1
1.031889454E1,1.241218872E1,-1.730745895E1,6.929839325E0,2.239717030E1
1.032883454E1,1.292891418E1,-1.603690109E1,-1.438059540E0,2.064962551E1
1.033877354E1,1.318233719E1,-1.020577698E1,-4.127666473E0,1.717467694E1
1.034871354E1,1.117785553E1,-5.263654175E0,-2.747536469E0,1.265699278E1
1.035865254E1,9.693841553E0,-1.817071381E0,-1.246907043E0,9.941181501E0
1.036859254E1,8.552614746E0,-4.183799744E-1,-1.630708923E0,8.716735191E0
1.037853154E1,7.396868134E0,-1.440753937E0,-4.180207214E0,8.617630907E0
1.038847154E1,6.702611847E0,-2.550845490E0,-5.197042694E0,8.856696396E0
1.039841054E1,7.217840424E0,-3.215014343E0,-4.874912567E0,9.284304505E0
1.040835054E1,8.288114777E0,-4.302203522E0,-4.236190796E0,1.025412669E1
1.041828954E1,8.329279175E0,-5.483097839E0,-3.329226837E0,1.051308731E1
1.042822954E1,7.736811218E0,-6.381978607E0,-2.711611176E0,1.038945301E1
1.043816954E1,7.150330811E0,-7.037914581E0,-2.167342987E0,1.026434840E1
1.044810854E1,6.995702362E0,-7.558382263E0,-1.706152039E0,1.043934618E1
1.045804854E1,7.224277039E0,-8.006101227E0,-1.415007477E0,1.087612439E1
1.046798754E1,7.144942017E0,-8.335715790E0,-1.080004120E0,1.103180688E1
1.047792754E1,6.544989624E0,-8.490493927E0,-9.294172668E-1,1.076053868E1
1.048786654E1,5.874384155E0,-8.520581360E0,-1.005309448E0,1.039804515E1
1.049780654E1,5.246889038E0,-8.689729614E0,-1.131497040E0,1.021379121E1
1.050774554E1,4.698728943E0,-8.732241211E0,-1.061891785E0,9.972848360E0
1.051768554E1,4.016298065E0,-8.732540588E0,-6.830296326E-1,9.636101118E0
1.052762554E1,2.697839813E0,-9.265582123E0,1.108894043E0,9.713855966E0
1.053756454E1,1.128503265E0,-9.174122314E0,5.081333313E0,1.054789022E1
1.054750454E1,1.144669647E0,-8.707392883E0,4.145180054E0,9.711409635E0
1.055744354E1,1.879790955E0,-8.387657776E0,2.187850342E0,8.869786137E0
1.056738354E1,2.966980133E0,-8.286318512E0,9.422904968E-1,8.851777052E0
1.057732254E1,3.713477783E0,-8.387807465E0,1.951940918E-1,9.175147522E0
1.058726254E1,3.883823547E0,-8.379724274E0,-1.701960754E-1,9.237577115E0
1.059720154E1,3.904480591E0,-8.141419830E0,-2.776725769E-1,9.033536827E0
1.060714154E1,4.136498108E0,-7.721992035E0,-4.617897034E-1,8.772287462E0
1.061708054E1,3.723506927E0,-7.747139740E0,-7.747888184E-1,8.630352003E0
1.062702054E1,3.392994232E0,-8.030051422E0,1.496887207E-1,8.718746608E0
1.063696054E1,3.860023041E0,-8.376880188E0,1.427731018E0,9.333290707E0
1.064689954E1,4.655468903E0,-8.618328094E0,2.163002014E0,1.003132830E1
1.065683954E1,5.319637756E0,-8.826096039E0,2.460583191E0,1.059495100E1
1.066677854E1,5.749543762E0,-8.994645538E0,2.255958710E0,1.091101515E1
1.067671854E1,5.909111938E0,-9.198371887E0,1.771865387E0,1.107552058E1
1.068665754E1,5.867648163E0,-9.397158508E0,1.394200745E0,1.116600549E1
1.069659754E1,5.535638580E0,-9.335486755E0,1.096769257E0,1.090859800E1
1.070653654E1,5.035528564E0,-9.326355743E0,8.493338013E-1,1.063291246E1
1.071647700E1,4.492607574E0,-9.449399872E0,5.963598633E-1,1.047999646E1
1.072641700E1,4.010310516E0,-9.992620239E0,3.282673645E-1,1.077231680E1
1.073635600E1,3.616329803E0,-1.070738388E1,7.948471069E-2,1.130186837E1
1.074629600E1,3.572770386E0,-1.129146927E1,-5.688171387E-2,1.184336109E1
1.075623500E1,3.604205017E0,-1.147663422E1,9.340576172E-2,1.202963638E1
1.076617500E1,3.621718597E0,-1.109732300E1,6.743476868E-1,1.169282550E1
1.077611400E1,3.831731873E0,-1.058718384E1,1.507215729E0,1.135968001E1
1.078605400E1,4.254452820E0,-1.052850586E1,2.187700653E0,1.156442124E1
1.079599300E1,4.630470886E0,-1.094134735E1,2.602039032E0,1.216244012E1
1.080593300E1,4.736300812E0,-1.164802780E1,2.773731995E0,1.287643919E1
1.081587200E1,4.514162750E0,-1.267788620E1,2.712209930E0,1.372816618E1
1.082581200E1,3.973038025E0,-1.370085892E1,2.355052643E0,1.445838301E1
1.083575200E1,3.423530731E0,-1.396700546E1,2.324067078E0,1.456705502E1
1.084569100E1,3.132535858E0,-1.304462357E1,2.903063049E0,1.372598849E1
1.085563100E1,2.857557678E0,-1.184965851E1,3.018922119E0,1.255762451E1
1.086557000E1,2.346969452E0,-1.109283234E1,2.659818878E0,1.164619386E1
1.087551000E1,2.182461548E0,-1.046758255E1,2.137854309E0,1.090430392E1
1.088544900E1,3.218008118E0,-9.917326813E0,2.567311249E0,1.073778536E1
1.089538900E1,4.913681946E0,-9.745184784E0,3.912863159E0,1.159411035E1
1.090532800E1,6.804998932E0,-1.003079086E1,4.958438873E0,1.309621670E1
1.091526800E1,8.343200226E0,-1.076216995E1,4.041296082E0,1.420441361E1
1.092520800E1,9.364526367E0,-1.195129715E1,1.617386627E0,1.526904703E1
1.093514700E1,1.032058823E1,-1.323921890E1,-5.403762817E-2,1.678673222E1
1.094508700E1,1.116707794E1,-1.397553772E1,-1.263672180E0,1.793365974E1
1.095502600E1,1.214454529E1,-1.408151733E1,-1.477727051E0,1.865376069E1
1.096496600E1,1.267549118E1,-1.383423157E1,-1.580712891E-1,1.876376898E1
1.097490500E1,1.221714432E1,-1.277428574E1,1.463356934E0,1.773647104E1
1.098484500E1,1.170835236E1,-1.112950607E1,1.842219086E0,1.625869587E1
1.099478400E1,1.100436630E1,-9.246871033E0,2.591111755E-1,1.437594659E1
1.100472400E1,9.295669556E0,-7.482939148E0,-1.734892273E0,1.205876038E1
1.101466300E1,7.494614868E0,-6.287525024E0,-2.742447052E0,1.015988380E1
1.102460300E1,6.218817902E0,-5.369484100E0,-2.757116547E0,8.666414902E0
1.103454300E1,5.285658417E0,-4.861141205E0,-1.572030945E0,7.351201263E0
1.104448200E1,4.813839569E0,-4.873116302E0,1.196012878E-1,6.850884495E0
1.105442200E1,4.562661896E0,-5.083728333E0,1.120420074E0,6.922248080E0
1.106436100E1,4.435426483E0,-5.347330170E0,1.256936188E0,7.060229218E0
1.107430100E1,4.650678864E0,-5.466033325E0,1.001716919E0,7.246362604E0
1.108424000E1,4.682861938E0,-5.522166595E0,7.864645386E-1,7.282997069E0
1.109418000E1,4.391268311E0,-5.482948151E0,7.381150818E-1,7.063339980E0
1.110411900E1,3.749103699E0,-5.315745850E0,7.942483521E-1,6.553149085E0
1.111405900E1,3.079845428E0,-5.162614288E0,7.072792053E-1,6.052956140E0
1.112399800E1,2.593057709E0,-5.107828217E0,7.592211914E-1,5.778431810E0
1.113393800E1,2.695893860E0,-4.988226929E0,6.911128235E-1,5.712082679E0
1.114387800E1,3.280428314E0,-4.682712250E0,2.185455322E-1,5.721605202E0
1.115381700E1,3.896547089E0,-4.295467529E0,-4.041595459E-1,5.813558759E0
1.116375700E1,4.509522400E0,-3.758534088E0,-9.729766846E-1,5.950550764E0
1.117369600E1,5.053790588E0,-3.047362976E0,-1.390757904E0,6.063120316E0
1.118363600E1,5.502856750E0,-2.307601318E0,-1.689686279E0,6.201733305E0
1.119357500E1,5.584886169E0,-1.657054138E0,-1.953587494E0,6.144370272E0
1.120351500E1,5.333708496E0,-1.072968750E0,-2.221679993E0,5.876697223E0
1.121345400E1,4.927153931E0,-4.728666687E-1,-2.170636139E0,5.404822845E0
1.122339400E1,4.723427582E0,7.484436035E-3,-1.639989624E0,5.000039010E0
1.123333400E1,5.564528503E0,2.462379456E-1,-6.427633667E-1,5.606938143E0
1.124327300E1,7.085365906E0,1.775308228E-1,1.150208130E0,7.180313778E0
1.125321300E1,8.248297577E0,-6.580316162E-1,3.938010864E0,9.163806419E0
1.126315200E1,6.707701263E0,-3.774550781E0,7.947572937E0,1.106365245E1
1.127309200E1,3.359014893E0,-8.738977203E0,1.472323288E1,1.744781620E1
1.128303100E1,5.152285767E-1,-1.499461853E1,2.160666870E1,2.630498390E1
1.129297100E1,-4.572990417E-1,-2.053834030E1,1.774634628E1,2.714710576E1
1.130291000E1,1.056652679E0,-2.518991730E1,1.495974106E1,2.931624636E1
1.131285000E1,1.894161072E0,-2.730456985E1,1.155177795E1,2.970809578E1
1.132278900E1,2.793790283E0,-2.346625168E1,6.961573334E0,2.463602515E1
1.133272900E1,2.215842133E0,-1.657937302E1,5.381010132E0,1.757102262E1
1.134266900E1,1.595681763E-1,-1.051054321E1,4.709506531E0,1.151852562E1
1.135260800E1,-9.207353210E-1,-6.729256439E0,5.076243896E0,8.479321780E0
1.136254800E1,-6.243516541E-1,-4.810097351E0,3.365900574E0,5.903908721E0
1.137248700E1,1.825304260E0,-4.531975708E0,3.456312561E-1,4.897958802E0
1.138242700E1,6.827751617E0,-5.530399475E0,-5.009632416E0,1.011434266E1
1.139236600E1,1.059945831E1,-7.257358246E0,-7.308701477E0,1.477954270E1
1.140230600E1,1.160162430E1,-8.681347046E0,-5.889203339E0,1.564116968E1
1.141224500E1,1.155327484E1,-1.072878937E1,2.060016174E0,1.590058953E1
1.142218500E1,9.858499146E0,-1.557660828E1,1.124776016E1,2.159474101E1
1.143212400E1,1.130958160E1,-1.552002594E1,-1.047371979E0,1.923213013E1
1.144206400E1,1.286379959E1,-1.131736542E1,-3.682192841E0,1.752480083E1
1.145200400E1,1.067819458E1,-6.311624908E0,-1.673220520E0,1.251639386E1
1.146194300E1,9.167985077E0,-3.007695465E0,-4.269122314E-1,9.658179768E0
1.147188300E1,7.903863831E0,-9.707313538E-1,-1.151555328E0,8.046083674E0
1.148182200E1,6.901697845E0,-1.943109283E0,-3.664679260E0,8.052265577E0
1.149176200E1,6.529571686E0,-3.281326447E0,-4.633764038E0,8.652986699E0
1.150170100E1,6.942413177E0,-3.741469574E0,-4.815935211E0,9.240612927E0
1.151164100E1,7.932304688E0,-4.635560303E0,-4.537364502E0,1.024683139E1
1.152158000E1,8.377329254E0,-5.668861542E0,-3.837719421E0,1.081867492E1
1.153152000E1,7.910450134E0,-6.406826935E0,-3.152594147E0,1.065652394E1
1.154146000E1,7.024143219E0,-7.038513336E0,-2.658022614E0,1.029292680E1
1.155139900E1,6.441255341E0,-7.538623352E0,-2.200573883E0,1.015692561E1
1.156133900E1,6.557563477E0,-7.883206787E0,-1.770667877E0,1.040585666E1
1.157127800E1,6.954238586E0,-8.161029053E0,-1.501078491E0,1.082668306E1
1.158121800E1,6.929689636E0,-8.289611664E0,-1.255439301E0,1.087724174E1
1.159115700E1,6.405629425E0,-8.225395203E0,-1.147962799E0,1.048842377E1
1.160109700E1,5.716911621E0,-8.117918701E0,-1.208437042E0,1.000219989E1
1.161103600E1,5.051844635E0,-7.937394104E0,-1.297801208E0,9.497770652E0
1.162097600E1,4.434378662E0,-7.807613983E0,-1.208736420E0,9.059999667E0
1.163091500E1,3.961811371E0,-7.974666595E0,-1.268013153E0,8.994393476E0
1.164085500E1,2.935994568E0,-8.217012634E0,1.799258423E0,8.909359775E0
1.165079500E1,2.074386292E0,-8.099956055E0,5.303920441E0,9.901713923E0
1.166073400E1,2.328857117E0,-7.910001068E0,3.925137634E0,9.132272325E0
1.167067400E1,3.289858704E0,-7.873327332E0,1.982477417E0,8.760289394E0
1.168061300E1,4.229754181E0,-7.949518890E0,9.234297180E-1,9.051982847E0
1.169055300E1,4.598287811E0,-8.159681854E0,1.345701599E-1,9.367110968E0
1.170049200E1,4.511019287E0,-8.482261047E0,-3.680845642E-1,9.614235993E0
1.171043225E1,4.445605316E0,-8.706045685E0,-3.052153015E-1,9.780173540E0
1.172037125E1,4.476441193E0,-8.969048767E0,5.239105225E-3,1.002409043E1
1.173031125E1,3.646417236E0,-9.291328583E0,4.568499756E-1,9.991689416E0
1.174025125E1,3.120710449E0,-9.698032837E0,1.224453735E0,1.026108969E1
1.175019025E1,3.053051147E0,-1.005623795E1,1.996248779E0,1.069738529E1
1.176013025E1,3.402873688E0,-1.002076172E1,2.319726105E0,1.083403637E1
1.177006925E1,3.746558990E0,-9.911039886E0,2.162253571E0,1.081391494E1
1.178000925E1,4.091890869E0,-9.859846344E0,1.814526672E0,1.082832618E1
1.178994825E1,4.393962708E0,-9.590855713E0,1.476828918E0,1.065234459E1
1.179988825E1,4.469256134E0,-9.075028381E0,1.317560120E0,1.020129184E1
1.180982725E1,4.201762390E0,-8.667276306E0,1.537901917E0,9.754057005E0
1.181976725E1,3.766317902E0,-8.825646973E0,1.636546783E0,9.734242672E0
1.182970625E1,3.710783386E0,-9.591903534E0,1.178948364E0,1.035202618E1
1.183964625E1,3.856879578E0,-1.078177917E1,5.776487732E-1,1.146542456E1
1.184958625E1,4.017046509E0,-1.179756683E1,2.995271301E-1,1.246631310E1
1.185952525E1,4.071383514E0,-1.216235825E1,5.918692017E-1,1.283937035E1
1.186946525E1,3.973487091E0,-1.197674423E1,1.339714050E0,1.268959557E1
1.187940425E1,3.851191406E0,-1.174996582E1,2.094893646E0,1.254121013E1
1.188934425E1,3.913761292E0,-1.169458099E1,2.521955566E0,1.258733538E1
1.189928325E1,4.058061218E0,-1.184621567E1,2.646795959E0,1.279868022E1
1.190922325E1,4.078119507E0,-1.220921082E1,2.611768799E0,1.313458122E1
1.191916225E1,3.880081329E0,-1.274240204E1,2.630030823E0,1.357722000E1
1.192910225E1,3.459306335E0,-1.299357971E1,2.867736511E0,1.374859363E1
1.193904125E1,2.818488922E0,-1.230845444E1,3.298091583E0,1.305064514E1
1.194898125E1,2.241887970E0,-1.107636658E1,3.508404236E0,1.183304097E1
1.195892125E1,1.670526123E0,-1.057371185E1,3.131488037E0,1.115348633E1
1.196886025E1,1.711540833E0,-1.068298462E1,2.087109833E0,1.101869139E1
1.197880025E1,2.935545502E0,-1.062086380E1,2.659669189E0,1.133552008E1
1.198873925E1,4.890330505E0,-1.083012863E1,4.703518982E0,1.278006688E1
1.199867925E1,6.764433289E0,-1.120225479E1,4.896467743E0,1.397223914E1
1.200861825E1,7.809410248E0,-1.161150375E1,2.537822571E0,1.422161915E1
1.201855825E1,8.628357239E0,-1.259421021E1,-3.457809448E-2,1.526642967E1
1.202849725E1,9.923314362E0,-1.413450714E1,-1.061592407E0,1.730270032E1
1.203843725E1,1.153591095E1,-1.517289780E1,-1.118623810E0,1.909307173E1
1.204837625E1,1.363110397E1,-1.552466629E1,-3.824546814E-1,2.066321685E1
1.205831625E1,1.526286072E1,-1.554756866E1,6.520440674E-1,2.179694864E1
1.206825625E1,1.567914505E1,-1.468625977E1,7.692503357E-1,2.149682678E1
1.207819525E1,1.502949600E1,-1.290436523E1,2.921923828E-1,1.981145549E1
1.208813525E1,1.356958191E1,-1.026041336E1,-1.061592407E0,1.704513461E1
1.209807425E1,1.121138580E1,-7.697742462E0,-2.377206573E0,1.380585100E1
1.210801425E1,8.930279388E0,-5.843398590E0,-2.691552887E0,1.100634608E1
1.211795325E1,6.766528931E0,-4.350103912E0,-2.150877228E0,8.326799545E0
1.212789325E1,4.772525482E0,-3.490291901E0,-1.215322723E0,6.036236108E0
1.213783225E1,3.586990814E0,-3.242108002E0,-2.288740540E-1,4.840470094E0
1.214777225E1,3.241958313E0,-3.484454041E0,6.634204102E-1,4.805396998E0
1.215771225E1,2.793490906E0,-4.139042816E0,8.018824768E-1,5.057497640E0
1.216765125E1,2.746488647E0,-4.654121704E0,6.084846497E-1,5.438226025E0
1.217759125E1,3.196602631E0,-4.916076965E0,5.598358154E-1,5.890627916E0
1.218753025E1,3.568728790E0,-4.994214478E0,2.643502808E-1,6.143930704E0
1.219747025E1,3.097059631E0,-5.051994324E0,-2.261796570E-1,5.930057525E0
1.220740925E1,2.576591949E0,-5.122048645E0,-5.270539856E-1,5.757776854E0
1.221734925E1,2.304906921E0,-5.400319977E0,-3.132984924E-1,5.879983649E0
1.222728825E1,2.315534821E0,-5.760321350E0,1.086740112E-1,6.209252258E0
1.223722825E1,2.715353394E0,-5.872438202E0,7.095245361E-2,6.470217055E0
1.224716725E1,3.527115326E0,-5.538482666E0,-3.450325012E-1,6.575285560E0
1.225710725E1,4.473597107E0,-4.680466919E0,-8.553213501E-1,6.530805177E0
1.226704725E1,5.375621338E0,-3.616030426E0,-1.346300354E0,6.617061693E0
1.227698625E1,6.076014862E0,-2.558778992E0,-1.879491577E0,6.855493791E0
1.228692625E1,6.297703857E0,-1.643881531E0,-2.386786652E0,6.932544330E0
1.229686525E1,6.087540894E0,-8.690927124E-1,-3.025059357E0,6.853062117E0
1.230680525E1,5.564528503E0,-2.197430420E-1,-3.445684662E0,6.548664540E0
1.231674425E1,5.363496552E0,1.501377869E-1,-2.799029388E0,6.051793299E0
1.232668425E1,5.901777191E0,-1.272354126E-2,-1.358724518E0,6.056176039E0
1.233662325E1,7.541018372E0,-1.666035461E-1,9.586065674E-1,7.603528219E0
1.234656325E1,9.888137512E0,-1.083596649E0,6.974596252E0,1.214884513E1
1.235650225E1,7.791597290E0,-5.560486908E0,1.640558441E1,1.899397807E1
1.236644225E1,3.378175049E0,-1.153800659E1,2.398507278E1,2.682948712E1
1.237638225E1,2.415975952E-1,-1.646052017E1,1.771311539E1,2.418184340E1
1.238632125E1,-2.793191528E-1,-1.902289169E1,9.044342194E0,2.106534009E1
1.239626125E1,5.020559692E-1,-2.098710709E1,9.487121429E0,2.303727842E1
1.240620025E1,2.323618011E0,-2.034299652E1,1.179172897E1,2.362798299E1
1.241614025E1,4.275259552E0,-1.503383698E1,1.086051544E1,1.903273218E1
1.242607925E1,3.716920624E0,-1.060140427E1,7.252119141E0,1.337155576E1
1.243601925E1,2.882855072E0,-8.470136261E0,5.085374908E0,1.029150619E1
1.244595825E1,2.389331360E0,-7.670648804E0,5.219645691E0,9.580838093E0
1.245589825E1,3.049458618E0,-8.255782013E0,5.877228241E0,1.058295546E1
1.246583725E1,5.258714447E0,-1.041683807E1,2.404300232E0,1.191407792E1
1.247577725E1,8.166118469E0,-1.233300339E1,-2.583777008E0,1.501547092E1
1.248571725E1,9.833501129E0,-1.246188538E1,-6.467750244E0,1.714141548E1
1.249565625E1,8.721763000E0,-1.214873657E1,-8.405919800E0,1.715576981E1
1.250559625E1,6.676116943E0,-1.275228149E1,-5.089416504E0,1.526739602E1
1.251553525E1,6.522835693E0,-1.209574677E1,4.796775055E0,1.455553250E1
1.252547525E1,8.287665710E0,-8.273894348E0,3.126398621E0,1.212093639E1
1.253541425E1,8.226443024E0,-3.487298126E0,1.746418304E0,9.104152346E0
1.254535425E1,7.524253235E0,-5.313949585E-1,5.345384216E-1,7.561911046E0
1.255529325E1,7.188651123E0,-9.030720520E-1,-7.048841858E-1,7.279361635E0
1.256523325E1,7.139553223E0,-2.208507385E0,-3.756288757E0,8.364235190E0
1.257517225E1,7.626790009E0,-4.326752472E0,-5.341043243E0,1.026720292E1
1.258511225E1,8.386909332E0,-5.727838898E0,-5.296735382E0,1.145442239E1
1.259505225E1,9.260343018E0,-6.834487610E0,-5.062023468E0,1.257331521E1
1.260499125E1,9.419013062E0,-7.680827637E0,-4.544399872E0,1.297553430E1
1.261493125E1,8.929081879E0,-8.188571777E0,-3.655847626E0,1.265489758E1
1.262487025E1,8.112529907E0,-8.413703613E0,-2.777474213E0,1.201323907E1
1.263481025E1,7.309000854E0,-8.449928284E0,-2.413580933E0,1.143014236E1
1.264474925E1,6.728058929E0,-8.446186066E0,-2.350861359E0,1.105130694E1
1.265468925E1,6.490652618E0,-8.273594971E0,-2.267784119E0,1.075749924E1
1.266462825E1,6.188431091E0,-8.070167999E0,-2.219434662E0,1.040913931E1
1.267456825E1,5.945336609E0,-7.952961731E0,-2.058219910E0,1.014065564E1
1.268450725E1,5.614075470E0,-7.877967682E0,-1.795516205E0,9.838907288E0
1.269444725E1,5.018464050E0,-7.897127838E0,-1.671573944E0,9.504933928E0
1.270438725E1,4.604275360E0,-8.084388428E0,-1.418150940E0,9.411048822E0
1.271432617E1,4.398902435E0,-8.315058746E0,-6.141728210E-1,9.426969441E0
1.272426617E1,3.668271790E0,-8.591833191E0,3.000360718E0,9.812134321E0
1.273420517E1,3.299139404E0,-8.254584503E0,4.608316956E0,1.001294519E1
1.274414517E1,3.241658936E0,-7.895630951E0,3.319796448E0,9.158077813E0
1.275408417E1,3.648063812E0,-7.601193237E0,1.804647217E0,8.622253753E0
1.276402417E1,4.363276520E0,-7.321874084E0,7.798782349E-1,8.558985463E0
1.277396317E1,4.988526306E0,-7.173532562E0,3.255729675E-1,8.743624070E0
1.278390317E1,4.938979340E0,-6.881340179E0,3.953279114E-1,8.479542661E0
1.279384217E1,4.603227539E0,-6.786736908E0,5.548960876E-1,8.219331561E0
1.280378217E1,4.229454803E0,-6.909781036E0,4.683760071E-1,8.114969993E0
1.281372217E1,4.022135925E0,-7.277715912E0,3.129991150E-1,8.321099371E0
1.282366117E1,4.189936981E0,-8.074958038E0,7.216493225E-1,9.125858698E0
1.283360117E1,4.531975708E0,-9.157207489E0,1.666634216E0,1.035233898E1
1.284354017E1,4.893174591E0,-9.814640350E0,2.340383148E0,1.121372891E1
1.285348017E1,5.408852234E0,-9.783654785E0,2.565365295E0,1.146981615E1
1.286341917E1,5.569468231E0,-9.263935547E0,2.676733704E0,1.113572546E1
1.287335917E1,5.232967987E0,-8.773255920E0,2.663261719E0,1.055684311E1
1.288329817E1,4.564009094E0,-8.541986847E0,2.536475372E0,1.001146471E1
1.289323817E1,4.094136200E0,-8.699010315E0,2.193688202E0,9.861389335E0
1.290317717E1,3.949237518E0,-9.271120605E0,1.615590363E0,1.020589469E1
1.291311717E1,4.031117249E0,-1.016251694E1,9.963281250E-1,1.097812946E1
1.292305717E1,4.240232391E0,-1.125479553E1,5.834866333E-1,1.204119802E1
1.293299617E1,4.373305664E0,-1.211071564E1,5.631289673E-1,1.288845801E1
1.294293617E1,4.160448303E0,-1.254765701E1,9.952803040E-1,1.325683256E1
1.295287517E1,3.595523071E0,-1.262055542E1,1.709594879E0,1.323362837E1
1.296281517E1,2.928061066E0,-1.248269211E1,2.360890503E0,1.303706055E1
1.297275417E1,2.413880310E0,-1.236174362E1,2.799328766E0,1.290254878E1
1.298269417E1,2.038311310E0,-1.222118591E1,3.000061340E0,1.274803774E1
1.299263317E1,1.625918884E0,-1.226444595E1,3.016227722E0,1.273412252E1
1.300257317E1,1.264121246E0,-1.273626480E1,3.046315155E0,1.315638551E1
1.301251317E1,1.085841980E0,-1.322978851E1,3.412004700E0,1.370577006E1
1.302245217E1,8.879534912E-1,-1.307935135E1,4.067641296E0,1.372601905E1
1.303239217E1,1.012344818E0,-1.266770737E1,5.058430939E0,1.367784250E1
1.304233117E1,1.274749146E0,-1.259540771E1,4.070934448E0,1.329818740E1
1.305227117E1,2.751877441E0,-1.226160187E1,2.436483307E0,1.280063126E1
1.306221017E1,4.891977081E0,-1.187405777E1,2.519560547E0,1.308712623E1
1.307215017E1,6.964567108E0,-1.175116333E1,3.167712708E0,1.402246192E1
1.308208917E1,8.817563782E0,-1.205069046E1,3.095712433E0,1.524965597E1
1.309202917E1,1.052191956E1,-1.315539322E1,1.479972382E0,1.691051389E1
1.310196817E1,1.192674820E1,-1.465018478E1,-3.424877930E-1,1.889424607E1
1.311190817E1,1.305031174E1,-1.561882050E1,-1.135089569E0,2.038496059E1
1.312184817E1,1.476230164E1,-1.564456696E1,-1.082099762E0,2.153715312E1
1.313178717E1,1.629945511E1,-1.479208969E1,-5.957611084E-1,2.201892562E1
1.314172717E1,1.623808273E1,-1.294927185E1,8.128097534E-2,2.076934228E1
1.315166617E1,1.503398666E1,-1.100047440E1,3.094065857E-1,1.863134253E1
1.316160617E1,1.368618942E1,-8.955726471E0,-8.592132568E-1,1.637849398E1
1.317154517E1,1.199261124E1,-6.967560883E0,-2.321821747E0,1.406273391E1
1.318148517E1,9.956096191E0,-5.483097839E0,-3.061134338E0,1.177109837E1
1.319142417E1,7.672295380E0,-4.338877258E0,-2.935844879E0,9.290272192E0
1.320136417E1,6.135740662E0,-3.596570892E0,-2.198029175E0,7.444055877E0
1.321130317E1,5.110821991E0,-3.232078857E0,-1.664837952E0,6.272042775E0
1.322124317E1,4.332740021E0,-3.098855896E0,-1.038989410E0,5.427250035E0
1.323118317E1,3.580853577E0,-3.295846252E0,-3.658392334E-1,4.880466494E0
1.324112217E1,2.980601807E0,-3.792663116E0,2.372566223E-1,4.829551879E0
1.325106217E1,2.736908569E0,-4.341421967E0,7.430548096E-1,5.185628569E0
1.326100117E1,2.794688416E0,-4.544250183E0,9.924362183E-1,5.426363673E0
1.327094117E1,2.702779541E0,-4.650379486E0,1.004860382E0,5.471817888E0
1.328088017E1,2.292931824E0,-4.828059998E0,7.900570679E-1,5.402951958E0
1.329082017E1,2.055226135E0,-5.041067047E0,8.987310791E-1,5.517610805E0
1.330075917E1,2.093845825E0,-5.183121643E0,1.135838013E0,5.704302613E0
1.331069917E1,2.338586884E0,-5.228177948E0,7.771838379E-1,5.779865741E0
1.332063817E1,2.917732544E0,-4.998405762E0,1.204994202E-1,5.788932844E0
1.333057817E1,3.697311401E0,-4.392316132E0,-3.661386108E-1,5.752965329E0
1.334051817E1,4.674778748E0,-3.619323578E0,-6.860234070E-1,5.951780206E0
1.335045717E1,5.838159485E0,-2.704725494E0,-8.840615845E-1,6.494706387E0
1.336039717E1,6.433022461E0,-1.829645233E0,-1.142873383E0,6.785096848E0
1.337033617E1,6.130651245E0,-1.185684357E0,-1.864522705E0,6.516684510E0
1.338027617E1,5.575755157E0,-6.291416931E-1,-2.498604126E0,6.142303104E0
1.339021517E1,5.298381958E0,-1.483415222E-1,-2.230811005E0,5.750771628E0
1.340015517E1,6.043831787E0,9.265731812E-2,-6.890171814E-1,6.083685785E0
1.341009417E1,7.350464630E0,-6.601272583E-2,1.711840210E0,7.547455522E0
1.342003417E1,7.263196106E0,-1.880988464E0,4.389921112E0,8.692729298E0
1.342997317E1,3.991300049E0,-5.908064117E0,8.934171295E0,1.143044682E1
1.343991317E1,6.997947693E-1,-1.112636261E1,1.744083160E1,2.069947499E1
1.344985317E1,-1.600172424E0,-1.685390213E1,2.071437424E1,2.675256752E1
1.345979217E1,-1.102158051E0,-2.038595718E1,1.438134384E1,2.497248593E1
1.346973217E1,3.950285339E-1,-2.340652588E1,1.300121384E1,2.677784649E1
1.347967117E1,1.909429321E0,-2.375649811E1,1.149893784E1,2.646209920E1
1.348961117E1,3.699556732E0,-1.901450912E1,8.555309143E0,2.117620343E1
1.349955017E1,2.655328217E0,-1.301962555E1,6.631958771E0,1.485073380E1
1.350949017E1,9.237290955E-1,-9.296717377E0,5.860163727E0,1.102831575E1
1.351942917E1,4.815486145E-1,-6.900799713E0,6.284082184E0,9.345727079E0
1.352936917E1,1.801952820E0,-5.777236176E0,5.993536377E0,8.517392212E0
1.353930817E1,5.242548065E0,-6.810836792E0,1.397044830E0,8.707671461E0
1.354924817E1,9.167985077E0,-8.989107056E0,-5.129233704E0,1.382624441E1
1.355918817E1,1.089195007E1,-1.083177521E1,-8.441845093E0,1.752788290E1
1.356912717E1,1.005593857E1,-1.246817230E1,-8.508456573E0,1.813755922E1
1.357906717E1,9.667047272E0,-1.471065903E1,-2.776576080E0,1.782034418E1
1.358900617E1,1.041234741E1,-1.613749191E1,8.283474426E0,2.091534299E1
1.359894617E1,1.122051682E1,-1.132514923E1,7.246430969E-1,1.595882547E1
1.360888517E1,1.067100952E1,-4.764292603E0,-1.507515106E0,1.178310358E1
1.361882517E1,9.747729492E0,-1.847757568E0,-1.863624573E-1,9.923062493E0
1.362876417E1,8.692274323E0,-1.938468933E-1,-4.775070190E-1,8.707538255E0
1.363870417E1,7.608977051E0,-7.304809570E-1,-3.307072906E0,8.328677290E0
1.364864317E1,7.433990936E0,-2.538271637E0,-5.085374908E0,9.357781901E0
1.365858317E1,7.955207062E0,-3.483106842E0,-5.304668884E0,1.017628934E1
1.366852317E1,9.202413483E0,-4.311783600E0,-5.464087372E0,1.153829028E1
1.367846217E1,1.009336075E1,-5.643863525E0,-5.026996307E0,1.260951302E1
1.368840217E1,9.672136688E0,-6.832391968E0,-3.697012024E0,1.240563203E1
1.369834117E1,8.499475250E0,-7.479496307E0,-2.808010712E0,1.166485614E1
1.370828117E1,7.546856232E0,-7.772437134E0,-2.395618286E0,1.109526047E1
1.371822088E1,7.024592285E0,-8.020920410E0,-2.100282440E0,1.086697968E1
1.372816088E1,7.124284973E0,-8.424930267E0,-1.838027802E0,1.118540266E1
1.373809988E1,7.382797394E0,-8.701255646E0,-1.666334839E0,1.153231195E1
1.374803988E1,7.068301392E0,-8.682843933E0,-1.516047363E0,1.129827699E1
1.375797888E1,6.381978607E0,-8.629854126E0,-1.479223938E0,1.083476519E1
1.376791888E1,5.436694336E0,-8.573870544E0,-1.517544250E0,1.026507876E1
1.377785888E1,4.559069366E0,-8.514593811E0,-1.393601990E0,9.758357841E0
1.378779788E1,4.062252502E0,-8.249794464E0,-1.098864899E0,9.261128881E0
1.379773788E1,3.525618439E0,-8.356672211E0,-5.718109131E-1,9.087954860E0
1.380767688E1,2.432741089E0,-8.621022491E0,2.273023224E0,9.241584960E0
1.381761688E1,1.186582489E0,-8.506061554E0,6.282136230E0,1.064078459E1
1.382755588E1,1.364861755E0,-8.186326447E0,4.365671539E0,9.377519730E0
1.383749588E1,2.126328278E0,-7.989485779E0,2.035018158E0,8.514367496E0
1.384743488E1,3.055595856E0,-7.763904877E0,6.062393188E-1,8.365549060E0
1.385737488E1,3.753294983E0,-7.635172577E0,-3.354524231E-1,8.514435497E0
1.386731388E1,4.138444061E0,-7.558382263E0,-8.092172241E-1,8.655096429E0
1.387725388E1,4.574936371E0,-7.549850006E0,-6.721023560E-1,8.853360915E0
1.388719388E1,5.152136078E0,-7.871980133E0,8.652008057E-2,9.408510143E0
1.389713288E1,4.978347473E0,-8.314909058E0,1.377734985E0,9.788759364E0
1.390707288E1,4.937332764E0,-8.660989380E0,2.484832764E0,1.027445306E1
1.391701188E1,5.215454407E0,-8.945098572E0,3.217409363E0,1.084285369E1
1.392695188E1,5.634133759E0,-9.344617767E0,3.291954346E0,1.139746936E1
1.393689088E1,5.396877136E0,-9.742490387E0,2.639610901E0,1.144595769E1
1.394683088E1,4.930297394E0,-9.964927826E0,1.795815582E0,1.126199683E1
1.395676988E1,4.359983368E0,-1.001207977E1,1.513652344E0,1.102462425E1
1.396670988E1,3.492836609E0,-1.002420456E1,1.706750793E0,1.075163164E1
1.397664888E1,2.863844604E0,-1.034049683E1,1.783840485E0,1.087702015E1
1.398658888E1,2.919528809E0,-1.106753494E1,1.395847321E0,1.153093092E1
1.399652888E1,3.248394928E0,-1.185280197E1,8.425978088E-1,1.231872377E1
1.400646788E1,3.575315094E0,-1.228944397E1,6.256988525E-1,1.281424247E1
1.401640788E1,3.904031525E0,-1.209200455E1,8.104147339E-1,1.273243135E1
1.402634688E1,4.243525543E0,-1.146480881E1,1.286724243E0,1.229247775E1
1.403628688E1,4.432283020E0,-1.073133408E1,1.832938385E0,1.175441734E1
1.404622588E1,4.543501740E0,-1.030921188E1,2.309696960E0,1.150034598E1
1.405616588E1,4.557422791E0,-1.039318726E1,2.609074402E0,1.164455723E1
1.406610488E1,4.454287262E0,-1.083866089E1,2.760559387E0,1.203901711E1
1.407604488E1,4.187092896E0,-1.169532944E1,2.743494873E0,1.272160531E1
1.408598388E1,3.829935608E0,-1.259570709E1,2.765199738E0,1.345238170E1
1.409592388E1,3.168610840E0,-1.293011169E1,2.888992310E0,1.362256069E1
1.410586388E1,2.483934631E0,-1.238255035E1,3.189567261E0,1.302577536E1
1.411580288E1,1.989213409E0,-1.176807816E1,3.137026520E0,1.234040392E1
1.412574288E1,1.806293793E0,-1.139879608E1,1.899549866E0,1.169630450E1
1.413568188E1,2.875071259E0,-1.083431992E1,1.629810791E0,1.132717114E1
1.414562188E1,4.805157623E0,-1.056248520E1,3.130290527E0,1.201891643E1
1.415556088E1,6.590494995E0,-1.113309860E1,3.939058685E0,1.352393035E1
1.416550088E1,7.761509857E0,-1.180924255E1,2.382595367E0,1.433094573E1
1.417543988E1,8.880882111E0,-1.284673508E1,2.236349487E-1,1.561917673E1
1.418537988E1,1.015293686E1,-1.419004166E1,-7.270381165E-1,1.746333283E1
1.419531888E1,1.162587387E1,-1.499401978E1,-8.011340332E-1,1.899008657E1
1.420525888E1,1.304986267E1,-1.490001526E1,-5.987548828E-4,1.980680112E1
1.421519888E1,1.415456543E1,-1.448462906E1,1.031504974E0,2.027856514E1
1.422513788E1,1.455752747E1,-1.369068008E1,6.448590088E-1,1.999430344E1
1.423507788E1,1.377285919E1,-1.219379288E1,-6.207591248E-1,1.840558548E1
1.424501688E1,1.241937378E1,-1.006252487E1,-1.744921417E0,1.607917916E1
1.425495688E1,1.068642746E1,-8.032745819E0,-2.533182220E0,1.360668032E1
1.426489588E1,8.852890320E0,-6.398743744E0,-2.936144257E0,1.131099163E1
1.427483588E1,7.251520386E0,-5.021308136E0,-2.576442261E0,9.188913865E0
1.428477488E1,5.779182129E0,-4.077371063E0,-1.097368011E0,7.157382023E0
1.429471488E1,4.647685089E0,-3.647465057E0,5.725593567E-1,5.935722555E0
1.430465388E1,4.062851257E0,-3.683839417E0,1.926942902E0,5.812963283E0
1.431459388E1,3.522325287E0,-4.281546478E0,2.064207458E0,5.916026378E0
1.432453388E1,3.449726257E0,-4.676874390E0,1.179397430E0,5.929986813E0
1.433447288E1,3.774850159E0,-4.850513306E0,6.292913818E-1,6.178428659E0
1.434441288E1,4.000431061E0,-4.961282959E0,4.538562012E-1,6.389347598E0
1.435435188E1,3.765270081E0,-5.097948761E0,1.588197327E-1,6.339681700E0
1.436429188E1,3.400328979E0,-5.142256622E0,-1.133143616E-1,6.165864131E0
1.437423088E1,2.874472504E0,-5.021158447E0,-1.302291870E-1,5.787191371E0
1.438417088E1,2.641107788E0,-4.865781555E0,-1.212478638E-2,5.536373136E0
1.439410988E1,2.984643402E0,-4.622537384E0,-2.918930054E-1,5.510095247E0
1.440404988E1,3.674858093E0,-4.199217682E0,-8.057743835E-1,5.638021240E0
1.441398888E1,4.354893951E0,-3.652404785E0,-1.158441010E0,5.800616141E0
1.442392888E1,5.089865570E0,-3.001707916E0,-1.272204437E0,6.044459121E0
1.443386788E1,5.827082520E0,-2.207010498E0,-1.293160858E0,6.363807904E0
1.444380788E1,6.153703308E0,-1.435963898E0,-1.400637360E0,6.472390728E0
1.445374787E1,5.917195129E0,-7.975415039E-1,-1.662143555E0,6.197740866E0
1.446368688E1,5.649252319E0,-3.511697388E-1,-1.933080139E0,5.981151292E0
1.447362687E1,5.577701111E0,-1.660047913E-1,-1.763931885E0,5.852329704E0
1.448356588E1,6.457122345E0,-2.612068176E-1,-5.017565918E-1,6.481852949E0
1.449350587E1,7.277865601E0,-7.408094788E-1,1.665137329E0,7.502586801E0
1.450344488E1,6.259533234E0,-2.543510742E0,4.794829102E0,8.285021986E0
1.451338488E1,3.276686096E0,-5.846242676E0,9.618099060E0,1.172275798E1
1.452332388E1,3.484753418E-1,-1.049302963E1,1.666903656E1,1.969979405E1
1.453326388E1,-1.617985382E0,-1.636337219E1,1.959350510E1,2.557896144E1
1.454320388E1,-1.047222290E0,-2.105880798E1,1.501362900E1,2.588395495E1
1.455314288E1,1.036893768E0,-2.473621078E1,1.409064835E1,2.848686791E1
1.456308288E1,3.356769562E0,-2.567760315E1,1.234857101E1,2.868962202E1
1.457302188E1,5.815556488E0,-2.055211166E1,8.248297577E0,2.289638408E1
1.458296188E1,4.236041107E0,-1.348440903E1,5.671406250E0,1.522951673E1
1.459290088E1,1.965562592E0,-8.671317902E0,4.800666962E0,1.010453333E1
1.460284088E1,9.439370728E-1,-5.507048035E0,5.879772949E0,8.111123547E0
1.461277988E1,4.113446045E-1,-3.596570892E0,6.458020477E0,7.403415094E0
1.462271988E1,1.605261841E0,-3.331023102E0,2.371817780E0,4.392960285E0
1.463265888E1,5.613177338E0,-4.106560364E0,-3.769161987E0,7.910637138E0
1.464259888E1,9.411229248E0,-5.332061920E0,-7.138355713E0,1.295987047E1
1.465253788E1,1.011237122E1,-6.824159088E0,-7.016359406E0,1.407332577E1
1.466247788E1,8.216713257E0,-9.210197296E0,-3.035687256E0,1.271052745E1
1.467241788E1,6.363267517E0,-1.554068298E1,6.223458252E0,1.790908802E1
1.468235688E1,1.006207581E1,-1.916494629E1,4.800217896E0,2.217166272E1
1.469229688E1,1.489253082E1,-1.600456833E1,-1.209335175E0,2.189511757E1
1.470223588E1,1.384770355E1,-9.154363403E0,-5.427713013E-1,1.660890917E1
1.471217488E1,1.053015244E1,-3.916006622E0,3.761677551E-1,1.124102844E1
1.472211388E1,8.453820190E0,-4.016148376E-1,1.253343658E0,8.555655476E0
1.473205388E1,7.040010223E0,7.104226685E-1,-1.604663086E-1,7.077583892E0
1.474199288E1,6.329138489E0,-1.760638733E0,-3.893553314E0,7.636596111E0
1.475193288E1,6.806046753E0,-3.630550232E0,-5.212161255E0,9.309661236E0
1.476187288E1,8.174501038E0,-4.484823761E0,-5.477259979E0,1.081371760E1
1.477181188E1,9.236542511E0,-5.747897186E0,-4.592000885E0,1.180840852E1
1.478175188E1,8.877738647E0,-6.680308228E0,-3.653153229E0,1.169556711E1
1.479169088E1,7.585026855E0,-7.210954742E0,-3.185226288E0,1.093966029E1
1.480163088E1,6.652017059E0,-7.600444794E0,-2.731070709E0,1.046302247E1
1.481156988E1,6.411616974E0,-7.932304688E0,-2.421664124E0,1.048306954E1
1.482150988E1,6.717281342E0,-8.303383026E0,-2.188898163E0,1.090226185E1
1.483144888E1,6.959926758E0,-8.607550507E0,-2.041155396E0,1.125596826E1
1.484138888E1,6.640491028E0,-8.687334595E0,-2.009720764E0,1.111777320E1
1.485132788E1,5.987997894E0,-8.644074554E0,-2.072889404E0,1.071788291E1
1.486126788E1,5.265749817E0,-8.675658875E0,-2.132315826E0,1.037024343E1
1.487120688E1,4.655917969E0,-8.606502686E0,-2.057920532E0,9.999224846E0
1.488114688E1,4.282893677E0,-8.396339722E0,-1.858385468E0,9.607044057E0
1.489108688E1,3.970193939E0,-8.328381042E0,-1.814376984E0,9.402996041E0
1.490102588E1,3.308420105E0,-8.440797272E0,-6.423143005E-1,9.088744129E0
1.491096588E1,2.315983887E0,-8.341853027E0,5.330265656E0,1.016671162E1
1.492090488E1,2.467917938E0,-8.081993408E0,5.915997620E0,1.031543815E1
1.493084488E1,3.028951263E0,-7.923622742E0,3.236120453E0,9.079141958E0
1.494078388E1,4.110901337E0,-7.838599548E0,1.293909302E0,8.945241973E0
1.495072388E1,4.941823425E0,-7.810757446E0,1.884580994E-1,9.244731857E0
1.496066288E1,5.047653351E0,-7.802524567E0,-1.020877075E-1,9.293471680E0
1.497060288E1,4.980742493E0,-7.550448761E0,1.396595764E-1,9.046357116E0
1.498054188E1,4.658163300E0,-7.416627045E0,8.907975769E-1,8.803315419E0
1.499048188E1,4.596790924E0,-7.260950775E0,1.595681763E0,8.740600280E0
1.500042188E1,4.635111237E0,-7.542066193E0,2.160756683E0,9.112402980E0
1.501036088E1,5.156477051E0,-8.459358673E0,2.549049225E0,1.022974373E1
1.502030088E1,5.694608002E0,-9.541458435E0,2.573149109E0,1.140566025E1
1.503023988E1,5.895190887E0,-1.041085052E1,2.231559448E0,1.217041256E1
1.504017988E1,5.684728546E0,-1.081066910E1,1.789977722E0,1.234466384E1
1.505011888E1,4.886887665E0,-1.060978683E1,1.747915192E0,1.181120042E1
1.506005888E1,3.781586151E0,-1.019155655E1,2.096689911E0,1.107087744E1
1.506999788E1,3.012186127E0,-1.004665787E1,2.196831665E0,1.071609392E1
1.507993788E1,2.764151917E0,-1.040441391E1,1.650318146E0,1.089109336E1
1.508987688E1,2.953957214E0,-1.112770981E1,8.749305725E-1,1.154631077E1
1.509981688E1,3.322939911E0,-1.176283905E1,4.111949158E-1,1.223010194E1
1.510975688E1,3.561244354E0,-1.200413727E1,3.929328918E-1,1.252741670E1
1.511969588E1,3.705843658E0,-1.183708466E1,7.420069885E-1,1.242579674E1
1.512963588E1,3.790118408E0,-1.167616928E1,1.252744904E0,1.233966355E1
1.513957488E1,3.780388641E0,-1.175834839E1,1.656754761E0,1.246173870E1
1.514951488E1,3.590283966E0,-1.215457443E1,1.998045044E0,1.283027679E1
1.515945388E1,3.142115936E0,-1.294807434E1,2.290836182E0,1.351937321E1
1.516939388E1,2.307451630E0,-1.389036484E1,2.467618561E0,1.429530376E1
1.517933288E1,1.371747437E0,-1.429901505E1,2.748733978E0,1.462528840E1
1.518927288E1,5.927673340E-1,-1.364876724E1,2.860252075E0,1.395783874E1
1.519921188E1,1.177301788E0,-1.238734039E1,2.568359070E0,1.270545984E1
1.520915188E1,2.632575531E0,-1.157947037E1,2.493514709E0,1.213392779E1
1.521909188E1,3.559747467E0,-1.118084930E1,2.458337860E0,1.198860368E1
1.522903088E1,4.154161377E0,-1.090257797E1,2.456840973E0,1.192305878E1
1.523897088E1,5.303621063E0,-1.067894302E1,2.999911652E0,1.229502706E1
1.524890988E1,6.964417419E0,-1.061487625E1,3.775897980E0,1.324522983E1
1.525884988E1,8.873098297E0,-1.108998825E1,3.808380432E0,1.470453924E1
1.526878888E1,1.081306412E1,-1.206056992E1,2.301763458E0,1.636086236E1
1.527872888E1,1.219813385E1,-1.328202988E1,2.670446777E-1,1.803546783E1
1.528866788E1,1.321541840E1,-1.438987610E1,-6.843768311E-1,1.954953169E1
1.529860788E1,1.383438126E1,-1.442250824E1,-9.931846619E-1,2.000962929E1
1.530854688E1,1.436637497E1,-1.362526611E1,-1.303639069E0,1.984288490E1
1.531848688E1,1.455094116E1,-1.248299149E1,-1.251996460E0,1.921255996E1
1.532842687E1,1.390787842E1,-1.108025848E1,-3.914360046E-1,1.778635523E1
1.533836588E1,1.310854065E1,-9.250164185E0,-3.809577942E-1,1.604819318E1
1.534830587E1,1.213301926E1,-7.312743073E0,-1.246907043E0,1.422115131E1
1.535824488E1,1.046503784E1,-5.812113647E0,-2.192341003E0,1.216980037E1
1.536818487E1,8.127798157E0,-4.902155914E0,-2.713407440E0,9.871920554E0
1.537812388E1,6.834637299E0,-4.284989319E0,-2.306852875E0,8.390171074E0
1.538806387E1,5.833818512E0,-4.139641571E0,-1.385369110E0,7.286241716E0
1.539800288E1,4.516108704E0,-4.250411224E0,-5.533992004E-1,6.226353995E0
1.540794288E1,3.027753754E0,-4.608616333E0,8.086184692E-1,5.573194876E0
1.541788188E1,2.071093140E0,-4.916526031E0,1.418300629E0,5.520256487E0
1.542782188E1,1.765728149E0,-5.034031677E0,1.114282837E0,5.449852940E0
1.543776088E1,1.999841309E0,-5.093009033E0,6.631210327E-1,5.511609182E0
1.544770088E1,2.046394501E0,-5.138664093E0,2.999761963E-1,5.539276562E0
1.545764088E1,1.755998383E0,-5.161267090E0,3.600013733E-1,5.463680928E0
1.546757988E1,1.540147247E0,-5.155279541E0,6.165678406E-1,5.415636305E0
1.547751988E1,1.889820099E0,-4.944966888E0,5.056484985E-1,5.317875322E0
1.548745888E1,2.614163818E0,-4.542004852E0,1.757345581E-1,5.243523928E0
1.549739888E1,3.267854462E0,-4.174069977E0,-3.499722290E-1,5.312646564E0
1.550733788E1,3.912114716E0,-3.801345062E0,-9.346563721E-1,5.534297459E0
1.551727788E1,4.596042480E0,-3.265908508E0,-1.466799774E0,5.825913357E0
1.552721688E1,5.175487518E0,-2.532733154E0,-1.998793488E0,6.098818221E0
1.553715688E1,5.511838074E0,-1.685494995E0,-2.476599884E0,6.273340363E0
1.554709688E1,5.599855042E0,-7.656578064E-1,-2.874921570E0,6.341118387E0
1.555703588E1,5.298831024E0,2.275268555E-2,-3.046015778E0,6.111983314E0
1.556697588E1,5.115612030E0,6.024971008E-1,-2.644251251E0,5.790039195E0
1.557691488E1,5.828280029E0,8.701405334E-1,-1.683848419E0,6.128730549E0
1.558685488E1,7.182064819E0,7.438032532E-1,-5.493576050E-2,7.220686691E0
1.559679388E1,8.375982056E0,-2.448907471E-1,2.540516968E0,8.756213413E0
1.560673387E1,7.276518402E0,-3.531156921E0,7.550598450E0,1.106473344E1
1.561667288E1,3.038830719E0,-9.205257568E0,1.587389008E1,1.859977541E1
1.562661287E1,-4.779560852E-1,-1.647773438E1,2.440494965E1,2.945073411E1
1.563655188E1,2.130070496E-1,-2.261182846E1,2.137495056E1,3.111637302E1
1.564649187E1,3.243155823E0,-2.711850677E1,1.698712509E1,3.216354906E1
1.565643088E1,4.044738922E0,-2.838187958E1,1.280377441E1,3.139789229E1
1.566637087E1,3.217858429E0,-2.344050522E1,8.377478943E0,2.509968229E1
1.567631088E1,8.086184692E-1,-1.541763885E1,5.079986115E0,1.625311387E1
1.568624987E1,-1.057999878E0,-9.183403015E0,4.009861450E0,1.007637055E1
1.569618988E1,-1.204994202E0,-4.808151398E0,4.427043915E0,6.645979891E0
1.570612888E1,-4.204756165E-1,-2.116598511E0,3.334465942E0,3.971832338E0
1.571606892E1,1.979184265E0,-1.466201019E0,-3.059637451E-1,2.482041417E0
1.572600792E1,6.100563812E0,-3.194506989E0,-6.721023560E0,9.622573014E0
1.573594792E1,8.984616394E0,-6.822063446E0,-1.067804489E1,1.553333590E1
1.574588692E1,9.813891907E0,-1.157782379E1,-1.000519409E1,1.817862445E1
1.575582692E1,1.164174088E1,-1.593945374E1,-8.707991638E0,2.157372092E1
1.576576592E1,1.581386490E1,-2.020438477E1,5.003195801E0,2.614053280E1
1.577570592E1,1.762958908E1,-2.081930603E1,1.514191223E1,3.120133684E1
1.578564592E1,1.304731796E1,-1.090452393E1,-2.998564453E0,1.726651490E1
1.579558492E1,1.065514252E1,-4.311933289E0,-3.291954346E0,1.195666317E1
1.580552492E1,9.903555450E0,3.610491943E-1,3.288661194E0,1.044155446E1
1.581546392E1,8.617579651E0,3.912414093E0,5.054389343E0,1.072923645E1
1.582540392E1,6.855144653E0,6.655160522E-1,-2.032174072E0,7.180922733E0
1.583534292E1,6.535858612E0,-2.461032257E0,-5.343587952E0,8.793637459E0
1.584528292E1,6.777156830E0,-3.085683289E0,-5.032385101E0,8.987557836E0
1.585522192E1,7.512278137E0,-3.862867126E0,-4.839735718E0,9.735456182E0
1.586516192E1,7.837701416E0,-5.056784363E0,-4.643942871E0,1.041954111E1
1.587510092E1,7.745193787E0,-6.004912720E0,-4.161645813E0,1.064736115E1
1.588504092E1,7.338788910E0,-6.920259247E0,-3.280578003E0,1.060707324E1
1.589498092E1,6.940616913E0,-7.620054016E0,-2.725532227E0,1.066142168E1
1.590491992E1,6.686595154E0,-8.056097260E0,-2.554887085E0,1.077676695E1
1.591485992E1,6.615642700E0,-8.277935944E0,-2.604284363E0,1.091206895E1
1.592479892E1,6.578968964E0,-8.409362640E0,-2.615810394E0,1.099284661E1
1.593473892E1,6.158493347E0,-8.420439606E0,-2.708617401E0,1.077810056E1
1.594467792E1,5.667514343E0,-8.393495636E0,-2.814896393E0,1.051166635E1
1.595461792E1,4.980592804E0,-8.245004425E0,-2.718347168E0,1.000878684E1
1.596455692E1,4.552483063E0,-8.022417297E0,-2.563569031E0,9.573722761E0
1.597449692E1,4.310436401E0,-7.932753754E0,-2.308948517E0,9.318781430E0
1.598443592E1,3.870650940E0,-7.913294220E0,-1.863025818E0,9.004056270E0
1.599437592E1,3.568279724E0,-8.002658386E0,-1.959874420E0,8.978656313E0
1.600431592E1,3.274740143E0,-8.356672211E0,-1.539099426E0,9.106410955E0
1.601425492E1,2.500550079E0,-8.909322968E0,5.096900940E0,1.056443021E1
1.602419492E1,2.345622253E0,-9.078620911E0,7.232659607E0,1.184207188E1
1.603413392E1,2.813399506E0,-8.941356354E0,4.914879456E0,1.058390808E1
1.604407392E1,3.896696777E0,-8.674311676E0,2.488874359E0,9.829670615E0
1.605401292E1,5.035977631E0,-8.461753693E0,9.035211182E-1,9.888311113E0
1.606395292E1,5.552403717E0,-8.485703888E0,5.084925842E-1,1.015356697E1
1.607389192E1,5.189558258E0,-8.903634796E0,5.275030518E-1,1.031913208E1
1.608383192E1,4.100722504E0,-9.053622894E0,1.868115234E0,1.011305429E1
1.609377092E1,3.892804871E0,-9.280251617E0,3.579656067E0,1.068133594E1
1.610371092E1,4.474345551E0,-9.714348907E0,4.346661072E0,1.154477394E1
1.611364992E1,4.983137512E0,-1.017883301E1,3.670517120E0,1.191272416E1
1.612358992E1,4.882546692E0,-1.018467087E1,2.581082611E0,1.158571406E1
1.613352992E1,4.229903870E0,-9.652228088E0,2.022893372E0,1.073078242E1
1.614346892E1,3.547023926E0,-8.888366547E0,2.239043884E0,9.828415748E0
1.615340892E1,3.094664612E0,-8.461903381E0,2.628084869E0,9.385498813E0
1.616334792E1,3.314108276E0,-8.632249146E0,2.400857391E0,9.553175137E0
1.617328792E1,3.874692535E0,-9.624535675E0,1.479822693E0,1.048021013E1
1.618322692E1,4.372108154E0,-1.112486572E1,4.061054993E-1,1.196005388E1
1.619316692E1,4.659211121E0,-1.228839615E1,-1.612147522E-1,1.314301786E1
1.620310592E1,4.675078125E0,-1.254062164E1,-1.187031555E-1,1.338423091E1
1.621304592E1,4.366120605E0,-1.209410019E1,5.565426636E-1,1.287012076E1
1.622298492E1,3.906725922E0,-1.148247208E1,1.487905884E0,1.221980099E1
1.623292492E1,3.556454315E0,-1.116183884E1,2.126178589E0,1.190611813E1
1.624286492E1,3.229085083E0,-1.130374374E1,2.480342102E0,1.201472888E1
1.625280392E1,2.645598450E0,-1.184741318E1,2.598446503E0,1.241419810E1
1.626274392E1,1.972448273E0,-1.257026001E1,2.700983276E0,1.300758623E1
1.627268292E1,1.230291595E0,-1.282847305E1,3.009042664E0,1.323395920E1
1.628262292E1,8.219407654E-1,-1.235860016E1,3.232527924E0,1.280077425E1
1.629256192E1,1.068478088E0,-1.195578781E1,3.218457184E0,1.242742830E1
1.630250192E1,1.179846497E0,-1.202329742E1,2.385738831E0,1.231436025E1
1.631244092E1,2.111359406E0,-1.194171707E1,1.761237488E0,1.225415859E1
1.632238092E1,4.509821777E0,-1.168170776E1,1.967508545E0,1.267564115E1
1.633231992E1,7.030579834E0,-1.181822388E1,2.772085419E0,1.402796942E1
1.634225992E1,9.343420258E0,-1.259121643E1,3.366349640E0,1.603653776E1
1.635219892E1,1.161823975E1,-1.375729156E1,2.366878052E0,1.816173664E1
1.636213892E1,1.353889572E1,-1.513457748E1,1.040336609E0,2.033321011E1
1.637207892E1,1.488833954E1,-1.626652359E1,3.484753418E-1,2.205411252E1
1.638201792E1,1.643297745E1,-1.630289795E1,3.957769775E-1,2.315132542E1
1.639195792E1,1.761776367E1,-1.542302765E1,4.679269409E-1,2.341952891E1
1.640189692E1,1.736987915E1,-1.388303009E1,-5.583389282E-2,2.223632936E1
1.641183692E1,1.618239853E1,-1.159354111E1,-4.531077576E-1,1.991194426E1
1.642177592E1,1.416833679E1,-9.058862000E0,-7.676037598E-1,1.683430912E1
1.643171592E1,1.164518372E1,-6.724915466E0,-1.668131104E0,1.355055177E1
1.644165492E1,8.768765259E0,-5.024301910E0,-2.768941956E0,1.047863986E1
1.645159492E1,6.899003448E0,-3.832180939E0,-2.513722687E0,8.282551604E0
1.646153392E1,5.630092163E0,-3.134182434E0,-1.872456207E0,6.710225745E0
1.647147392E1,4.467160492E0,-2.992427216E0,-6.153703308E-1,5.411915016E0
1.648141392E1,3.122506714E0,-3.161276093E0,9.616003418E-1,4.546250095E0
1.649135292E1,1.991009674E0,-3.505859528E0,1.594184875E0,4.335504119E0
1.650129292E1,1.740281067E0,-3.795207825E0,1.361718292E0,4.391634927E0
1.651123192E1,2.205363922E0,-3.955075378E0,9.749226379E-1,4.632140480E0
1.652117192E1,2.294578400E0,-4.137396240E0,6.647676086E-1,4.777557289E0
1.653111092E1,1.820963287E0,-4.383933563E0,6.005511475E-1,4.784918229E0
1.654105092E1,1.553319855E0,-4.572391663E0,4.556524658E-1,4.850483198E0
1.655098992E1,1.484463043E0,-4.657564545E0,4.866380310E-1,4.912571077E0
1.656092992E1,2.176174622E0,-4.534819794E0,4.441264343E-1,5.049512336E0
1.657086892E1,2.819237366E0,-4.317920837E0,-1.166075134E-1,5.158113705E0
