Time (s),Acceleration x (m/s^2),Acceleration y (m/s^2),Acceleration z (m/s^2),Absolute acceleration (m/s^2)
14.91559454,31.60572556,-27.14455261,9.502389679,42.73223647
14.92553354,30.52856552,-23.13723587,6.478827209,38.84971298
14.93547354,27.74794785,-17.79289948,1.690883789,33.00598384
14.94541354,23.7871843,-14.26368851,0.5554948425,27.7415126
14.95535254,20.03059616,-11.90040298,1.101259918,23.32503263
14.96529254,17.23605743,-11.63246017,0.9285191345,20.81484935
14.97523154,15.27827866,-12.00533478,0.6975494385,19.443262
14.98517154,14.10995819,-12.00743042,0.5990542603,18.53721045
14.99511054,13.01618271,-11.7701738,0.5363346863,17.55692622
15.00505054,11.8072966,-11.14222961,0.9090596008,16.26000994
15.01498954,10.49377808,-10.20068756,1.556912384,14.71724775
15.02492954,9.246571655,-9.023984528,2.248623962,13.11440787
15.03486954,8.24320816,-7.545658722,2.847378845,11.53234636
15.04480854,7.630831604,-5.81061676,3.202889557,10.11194144
15.05474854,7.153623962,-4.15146698,3.267405396,8.892972051
15.06468754,6.309529266,-2.799478455,3.054548035,7.54834438
15.07462754,5.012775879,-1.722917175,2.580334167,5.895293888
15.08456654,3.525019684,-0.8666976929,2.107168121,4.197271275
15.09450654,1.721420288,-0.2694396973,1.560055847,2.338730383
15.10444554,-0.2959346008,0.3134481812,1.073118439,1.156464541
15.11438554,-2.253863068,0.6845265198,0.8511300659,2.504575348
15.12432554,-3.434907074,0.9340576172,0.8809181213,3.667024267
15.13426454,-4.002975769,1.080453186,0.9704319763,4.258278093
15.14420454,-4.406386871,1.0086026,1.002315674,4.630136194
15.15414354,-4.77507019,0.6062393188,1.416055298,5.017373221
15.16408354,-4.902305603,-0.2011816406,2.354453888,5.442106889
15.17402254,-4.200115814,-1.635049896,3.122506714,5.483102151
15.18396254,-2.899171143,-2.820434875,3.424728241,5.299887709
15.19390154,-1.689686279,-3.409310303,2.998115387,4.844288631
15.20384154,-0.9383985901,-3.470832367,1.813329163,4.026838945
15.21378154,-0.780327301,-3.126548309,0.2941383362,3.235851107
15.22372054,-0.7255412292,-2.582130432,-1.075663147,2.88978526
15.23366054,-0.6246510315,-2.080074463,-1.947150879,2.91689822
15.24359954,-0.5400769043,-1.722168732,-2.286944275,2.913359284
15.25353954,-0.2966830444,-1.299148407,-2.19862793,2.570947721
15.26347854,-0.1592687988,-0.7800279236,-1.906884613,2.066402439
15.27341854,-0.1887574768,-0.2878514099,-1.564247131,1.601673159
15.28335754,-0.1898052979,0.07828720093,-1.244212646,1.261039272
15.29329754,-0.1583706665,0.2639012146,-0.9792636108,1.026490301
15.30323754,-0.01197509766,0.3014730835,-0.616867218,0.6866983236
15.31317654,0.3694317627,-0.0592767334,-0.07364685059,0.3813363568
15.32311654,1.142574005,-1.262624359,1.976040802,2.60853079
15.33305554,2.272574158,-3.05394928,6.437363434,7.4786929
15.34299554,3.555556183,-5.048701172,7.035519562,9.361084275
15.35293454,6.588549042,-7.401508484,5.461093597,11.31436475
15.36287454,8.267757111,-8.986562347,6.461463318,13.81537617
15.37281354,9.948462067,-11.2274025,5.902076569,16.12020385
15.38275354,12.6964476,-13.02621185,1.743274841,18.27350498
15.39269354,17.62659531,-16.01564529,1.578916626,23.86819503
15.40263254,20.23626846,-18.10365326,-0.05643264771,27.15238493
15.41257254,22.33460495,-21.46311722,1.763632507,31.02596298
15.42251154,25.40472061,-26.15436172,5.68188446,36.90168394
15.43245154,27.27448242,-27.71756104,7.766599274,39.65451608
15.44239054,28.34984619,-25.40981003,6.490353241,38.61990303
15.45233054,26.348508,-20.67889801,4.992268524,33.86419114
15.46226954,23.71982437,-15.23756332,3.736380157,28.43895112
15.47220954,22.49686752,-11.49983597,1.490001526,25.30959068
15.48214954,21.40384048,-10.07764343,0.7003935242,23.6679918
15.49208854,19.89108627,-10.58838135,0.1413061523,22.53417627
15.50202854,18.37608673,-11.53336624,-0.6584806824,21.70559138
15.51196754,17.04340805,-11.36032608,-1.16068634,20.51540785
15.52190754,15.48125656,-10.34229309,-1.156195679,18.6539304
15.53184654,13.41959381,-9.164392548,-0.9102571106,16.27575365
15.54178654,11.07501938,-7.869734802,-0.5457650757,13.59730266
15.55172554,9.003477173,-6.696624298,0.4399351501,11.22946664
15.56166467,7.233557739,-5.478607178,2.22661972,9.343303996
15.57160467,5.495971069,-4.270319824,3.794160004,7.926977957
15.58154367,3.855233002,-3.29030777,4.248914337,6.613790121
15.59148367,2.3436763,-2.585423584,3.69746109,5.084137313
15.60142267,0.9788145447,-2.079625397,2.736010437,3.573327975
15.61136267,-0.2323168945,-1.753753052,1.773212585,2.504776193
15.62130167,-1.479822693,-1.450034637,1.074765015,2.334008459
15.63124167,-2.745291138,-0.8843609619,0.9300160217,3.030453356
15.64118067,-4.314477997,-0.3761677551,1.28358078,4.517056805
15.65112067,-5.723647614,-0.186512146,1.736838226,5.984274042
15.66105967,-6.369704132,-0.3900888062,2.238744507,6.762934051
15.67099967,-6.668782196,-1.082548828,2.880460052,7.344495766
15.68093967,-6.013744354,-2.391726379,3.526067505,7.37011725
15.69087867,-4.119583282,-3.916455688,4.368815002,7.169109855
15.70081867,-2.442171478,-4.885690155,4.384382629,7.004068879
15.71075767,-0.9422904968,-4.801116028,2.656974792,5.567597466
15.72069767,0.4454736328,-3.656596069,0.1881587219,3.688433987
15.73063667,1.359922028,-2.297123108,-1.506766663,3.065372452
15.74057667,1.132993927,-1.482367401,-1.796264648,2.589914099
15.75051567,0.6018983459,-0.7104226685,-1.716929626,1.953158808
15.76045567,0.3186872864,-0.1600172424,-1.634151764,1.672608469
15.77039567,0.3215313721,0.2389031982,-1.648072815,1.696054588
15.78033467,0.3544628906,0.5634283447,-1.644779663,1.774371883
15.79027467,0.4710704041,0.8086184692,-1.580413513,1.836703032
15.80021367,0.5923182678,0.9481283569,-1.441203003,1.823966668
15.81015367,0.6435118103,0.9017248535,-1.11982132,1.575187274
15.82009267,0.6378236389,0.4032614136,-0.6132746887,0.9723911794
15.83003267,0.748742981,-0.4474195862,-0.1901046753,0.8927150302
15.83997167,1.920206909,-1.500479736,2.804118805,3.715066121
15.84991167,3.873045959,-2.692301331,7.289241943,8.682281933
15.85985167,3.730542297,-3.204985199,0.2745291138,4.925874764
15.86979067,6.815926208,-5.137915649,3.34763855,9.168517392
15.87973067,13.93572052,-10.06716522,14.62937805,22.57367547
15.88966967,13.75714188,-11.31062943,5.059778137,18.51460627
15.89960967,15.35476959,-12.34931946,-4.067940674,20.12020829
15.90954867,21.75066925,-16.44016251,-3.377127228,27.47317864
15.91948867,30.80848343,-23.3120723,-1.154698792,38.6516325
15.92942767,36.19069107,-28.63934418,1.187031555,46.16694921
15.93936767,36.36118652,-31.28284698,4.77507019,48.203254
15.94930767,32.20433075,-29.8135025,5.517675934,44.2313079
15.95924667,26.24028305,-24.69339981,5.868845673,36.50698287
15.96918667,23.2098349,-17.99991898,3.622167664,29.59414837
15.97912567,21.72058182,-14.07852356,3.504212952,26.1202605
15.98906567,19.14204391,-12.08706482,2.939886475,22.82888332
15.99900467,16.54150177,-11.17635864,1.727707214,20.03789524
16.00894467,15.23576706,-10.45620621,1.284329224,18.52323805
16.01888367,14.43553116,-9.486971741,1.465302887,17.33592528
16.02882367,13.113181,-8.339308319,1.379980316,15.60140778
16.03876367,11.44040955,-7.212152252,1.137484589,13.57173467
16.04870267,9.648785248,-6.057303772,1.002914429,11.43660015
16.05864267,7.819589081,-4.922363892,1.106349335,9.305893215
16.06858167,5.73337738,-3.81212265,1.329684906,7.012271903
16.07852167,3.58040451,-2.917882233,1.320553894,4.803872997
16.08846067,1.652264099,-2.171085205,1.040785675,2.920072335
16.09840067,-0.1692979431,-1.597478027,0.53004776,1.691611205
16.10833967,-1.758543091,-1.189725952,-0.1037342834,2.125719277
16.11827967,-2.959944763,-0.8195457458,-0.4698728943,3.107041803
16.12821967,-3.838318176,-0.4140390015,-0.4641847229,3.888390692
16.13815867,-4.491110687,-0.01032852173,-0.1381626892,4.493247246
16.14809867,-4.988226929,0.1826202393,0.6366261292,5.03200267
16.15803767,-5.469775543,0.01107696533,1.801653442,5.758864673
16.16797767,-5.811215515,-0.8681945801,3.019221497,6.606034063
16.17791667,-5.108726349,-2.613565063,4.055217133,7.026705718
16.18785667,-3.996688843,-4.239783325,4.430636444,7.319824018
16.19779567,-3.093317413,-4.960384827,3.486399994,6.806542086
16.20773567,-1.972148895,-4.642445984,1.759890289,5.342180249
16.21767467,-0.9324110413,-3.663930817,0.2052232361,3.786277322
16.22761467,-0.3841012573,-2.778222656,-0.6598278809,2.881219835
16.23755467,-0.2628533936,-2.061063995,-0.803379364,2.227665842
16.24749367,-0.2495310974,-1.18763031,-0.682281189,1.392206573
16.25743367,-0.09624984741,-0.3598516846,-0.5932164001,0.7004733867
16.26737267,0.2052232361,0.2757266235,-0.6950047302,0.7753536758
16.27731267,0.3909869385,0.6014492798,-1.007854156,1.237086102
16.28725167,0.4263134766,0.6511459351,-1.376687164,1.581455582
16.29719167,0.4799020386,0.6879693604,-1.512005768,1.729094922
16.30713067,0.2915936279,0.8051756287,-1.435963898,1.67192313
16.31707067,0.1561253357,0.7458988953,-1.2753479,1.48568252
16.32701067,0.3760180664,0.1306782532,-0.9795629883,1.057359939
16.33694967,0.6471043396,-0.7337741089,-0.7095245361,1.20855018
16.34688967,1.005908203,-1.852397919,0.5963598633,2.190633344
16.35682867,2.158062286,-3.923041992,6.214476929,7.659452644
16.36676867,4.311334534,-4.450844421,4.422702942,7.613010104
16.37670767,8.687633972,-5.633834381,6.226901093,12.08260614
16.38664767,14.11355072,-8.231682129,13.31286575,21.075704
16.39658667,14.4814856,-9.711055756,7.708070984,19.06390273
16.40652667,13.42797638,-9.930649109,-4.248016205,17.23293309
16.41646667,16.76124481,-12.17972214,-4.370611267,21.1751553
16.42640567,22.56781998,-16.55811722,0.1145118713,27.99090669
16.43634567,28.01604034,-22.22727814,3.984863434,35.98374003
16.44628467,28.35433685,-23.94166306,0.6578819275,37.11609431
16.45622467,28.43037872,-26.00721771,1.54568573,38.56229962
16.46616367,28.3458046,-27.6476564,4.816833344,39.88833697
16.47610367,27.36848694,-25.62970276,5.017715607,37.82979263
16.48604267,25.61398544,-20.27653473,2.873424683,32.79436964
16.49598267,22.65074753,-15.39368866,2.196382599,27.47446288
16.50592167,20.05035507,-12.87727158,2.63736557,23.9749152
16.51586167,18.55810822,-11.61689255,2.915786591,22.08749385
16.52580167,17.96204773,-10.63134201,3.364253998,21.14187306
16.53574067,17.45580048,-9.602830811,3.817062378,20.28519892
16.54568067,16.08704681,-8.354127502,3.381468201,18.43960002
16.55562054,13.79037277,-6.942263489,2.327659607,15.6136928
16.56556054,11.10765152,-5.603447571,1.287322998,12.50742769
16.57549954,8.771908722,-4.611610107,0.6035449219,9.928625125
16.58543954,6.764433289,-3.807781677,0.2303709412,7.765940367
16.59537854,4.756808167,-3.125201111,0.09610015869,5.692393271
16.60531854,2.92057663,-2.635868683,0.04355941772,3.934395632
16.61525854,1.350641327,-2.290087738,-0.0505947876,2.659190417
16.62519754,0.1148112488,-2.006876678,-0.2841091919,2.030136364
16.63513754,-1.137783966,-1.786834259,-0.6030958557,2.202510757
16.64507654,-2.394720154,-1.542841644,-0.7179071045,2.937760297
16.65501654,-3.702550507,-1.346150665,-0.482895813,3.969154851
16.66495554,-4.769681396,-1.241967316,0.08232879639,4.929413907
16.67489554,-5.280868378,-1.242266693,0.8448431396,5.490405931
16.68483454,-5.48190033,-1.55391861,1.467548218,5.883841606
16.69477454,-4.907095642,-2.468816071,2.257904663,5.939088642
16.70471454,-3.741619263,-3.603306885,3.262016602,6.133863996
16.71465354,-2.95216095,-4.617897034,4.273014221,6.949739407
16.72459354,-2.842439117,-5.233866119,5.108277283,7.846484021
16.73453254,-3.00709671,-5.093907166,5.122797089,7.825188231
16.74447254,-2.96144165,-4.206103363,3.654051361,6.309796629
16.75441154,-2.393223267,-2.9966185,1.508862305,4.121153418
16.76435154,-1.249451752,-1.960173798,-0.4372407532,2.365288666
16.77429054,-0.2736309814,-1.62636795,-1.584455109,2.287016532
16.78423054,0.2785707092,-1.248553619,-1.832639008,2.234961636
16.79417054,0.6965016174,-0.399818573,-1.697470093,1.877864242
16.80410954,0.8906478882,0.4267625427,-1.349443817,1.672237586
16.81404954,1.084794159,0.9648934937,-1.073118439,1.805375586
16.82398854,1.274599457,1.271006927,-0.9177415466,2.020473195
16.83392854,1.297052765,1.451830902,-0.7933502197,2.10227577
16.84386754,1.169967041,1.51874176,-0.5912704468,2.006240303
16.85380754,1.272204437,1.234782257,-0.1974394226,1.783864815
16.86374654,2.337389374,0.6292913818,2.282902679,3.327317444
16.87368654,3.434757385,-0.6215075684,4.691543884,5.847598992
16.88362554,3.281925201,-2.067949677,0.5110372925,3.912621628
16.89356554,4.603826294,-3.301534424,-1.114432526,5.77384672
16.90350554,8.819360046,-5.795049133,3.829187164,11.22614718
16.91344454,14.50259171,-9.968520355,13.67331619,22.28578336
16.92338454,14.22476944,-11.18099899,6.390361176,19.18842151
16.93332354,15.08682678,-11.30823441,-4.261039124,19.32989814
16.94326354,19.50249435,-13.89695114,-3.681743774,24.22865606
16.95320254,23.89720551,-17.26135483,-3.502716064,29.68669435
16.96314254,26.66854248,-22.23506195,-1.588796082,34.75821358
16.97308154,25.94449814,-29.71695328,5.865552521,39.88256514
16.98302154,25.51893311,-30.64666992,5.101690979,40.20524313
16.99296154,25.53749451,-31.36128387,6.991960144,41.04365065
17.00290054,26.67722443,-30.18697586,9.738448792,41.44593104
17.01284054,25.58434708,-22.4055574,8.965605927,35.17029866
17.02277954,22.04256226,-15.67076248,8.080346832,28.22657175
17.03271954,18.81437531,-11.99635345,7.525001678,23.54822423
17.04265854,16.38013733,-10.21625519,6.376589813,20.33080585
17.05259854,15.151642,-9.430988159,5.011129303,18.53718452
17.06253754,15.06242752,-8.815019073,2.828368378,17.67995904
17.07247754,14.82996094,-7.97302002,0.5072950745,16.84500335
17.08241654,13.34684509,-6.909182281,-0.8619076538,15.05383534
17.09235654,10.9154512,-6.053561554,-1.416055298,12.56176321
17.10229654,8.146060181,-5.467380524,-2.00552948,10.01362545
17.11223554,5.595663757,-4.606969757,-2.090402985,7.543567317
17.12217554,3.677103424,-3.698808289,-1.491498413,5.424651128
17.13211454,2.183808746,-2.884202271,-0.9870474243,3.749920799
17.14205454,0.6276448059,-2.124382324,-1.065484314,2.458087689
17.15199354,-0.7529342651,-1.544338531,-1.20873642,2.10069875
17.16193354,-1.905238037,-0.9509724426,-1.248403931,2.468358349
17.17187254,-2.809657288,-0.3273692322,-1.021625519,3.007501187
17.18181254,-3.535647583,0.2823129272,-0.5237608337,3.585363277
17.19175254,-3.996389465,0.7066804504,0.2393522644,4.065441615
17.20169154,-4.194577332,1.147513733,1.475032654,4.592057065
17.21163154,-4.072131958,1.563947754,3.294049988,5.466164705
17.22157054,-4.179159393,1.614841919,5.102589111,6.790397875
17.23151054,-3.762276306,0.6526428223,5.854176178,6.989423752
17.24144954,-2.884052582,-0.8014334106,5.185965729,5.987845635
17.25138954,-2.036964111,-1.615590363,3.682791595,4.508027168
17.26132854,-1.363364868,-1.634151764,2.208657074,3.067145549
17.27126854,-0.8042774963,-1.248553619,1.271156616,1.954888123
17.28120754,-0.3879931641,-0.9241781616,0.9500743103,1.381044954
17.29114754,0.00628692627,-0.6271957397,0.8126600647,1.02656242
17.30108754,0.5715115356,-0.3748205566,0.4287084961,0.8067879893
17.31102654,0.9478289795,-0.3981719971,-0.1326242065,1.036585691
17.32096654,1.038839722,-0.5093907166,-0.7451504517,1.376196231
17.33090554,1.052461395,-0.5513035583,-1.241368561,1.718315019
17.34084554,1.091230774,-0.4417314148,-1.461111603,1.876368397
17.35078454,0.9815089417,-0.3240760803,-1.609602814,1.912905206
17.36072454,0.7719447327,-0.3800596619,-1.754052429,1.953725657
17.37066354,0.7144642639,-0.5893244934,-1.637594604,1.881350215
17.38060354,0.7002438354,-0.966839447,-1.519639893,1.932466131
17.39054354,0.7351213074,-1.649120636,-1.326541443,2.240471916
17.40048254,1.011596375,-2.523003387,-1.091081085,2.929049548
17.41042254,1.853595428,-3.554358673,-0.8696914673,4.101907463
17.42036154,3.640729065,-4.451443176,0.0687071228,5.751084693
17.43030154,8.484506378,-6.508615265,11.70056854,15.85093768
17.44024054,13.25059525,-9.131011963,14.9233667,21.94676576
17.45018054,13.58260483,-10.96260315,2.303260345,17.60598847
17.46011954,14.05187897,-11.59548706,-2.486629028,18.38733114
17.47005954,19.20491318,-15.01422775,-0.7105723572,24.3877149
17.47999854,24.7200444,-19.03830963,-0.08906478882,31.20169485
17.48993854,30.94440079,-25.44408875,2.081122284,40.11594025
17.49987854,31.72113556,-29.67773483,7.755971375,44.12656205
17.50981754,30.88362717,-29.65079086,8.225095825,43.59610105
17.51975754,30.66867416,-28.85624313,10.3514241,43.36360598
17.52969654,29.15846466,-24.26259567,11.67107986,39.68757633
17.53963654,25.27793427,-16.88324112,8.096363525,31.45741397
17.54957554,21.02378082,-12.66022293,5.70538559,25.19587326
17.55951504,17.64410889,-10.76501404,4.081712036,21.06799655
17.56945404,15.5019136,-9.863887939,3.028053131,18.6218881
17.57939404,14.24737244,-9.901609497,2.301314392,17.50215815
17.58933404,13.48710342,-10.21296204,1.981130219,17.03324482
17.59927304,12.31653763,-9.674980774,1.598525848,15.74349507
17.60921304,10.85018692,-8.392597504,1.157842255,13.76600333
17.61915204,9.214987335,-6.823111267,0.6710545349,11.48569341
17.62909204,7.382647705,-5.163063354,0.4502636719,9.02016894
17.63903104,5.377567291,-3.524420929,0.4020639038,6.442160215
17.64897104,3.299438782,-2.316582642,0.4882846069,4.060944874
17.65891004,1.470092926,-1.676813049,0.6661148071,2.327355613
17.66885004,-0.07813751221,-1.365610199,0.682281189,1.528562824
17.67878904,-1.520538025,-1.304986267,0.7003935242,2.122634243
17.68872904,-2.81519577,-1.116528168,0.6144721985,3.090232751
17.69866904,-3.926634521,-0.7605683899,0.4596940613,4.025946047
17.70860804,-4.76923233,-0.370329895,0.3758683777,4.798332866
17.71854804,-5.362299042,-0.07140151978,0.3363505554,5.37331191
17.72848704,-5.112318878,0.2113604736,0.5776487732,5.149189807
17.73842704,-3.830534363,0.3085084534,1.393152924,4.087670001
17.74836604,-1.608704681,0.02409988403,2.532134399,3.000036029
17.75830604,0.3854484558,-1.005758514,3.45406723,3.618107396
17.76824504,1.187330933,-2.483784943,4.01929184,4.871719335
17.77818504,0.6774911499,-3.251987457,4.024231567,5.218127671
17.78812504,-0.6818321228,-3.296594696,3.069666595,4.555796817
17.79806404,-1.566492462,-2.703677673,1.420545959,3.432451372
17.80800404,-1.383273468,-1.745370483,-0.1353186035,2.231159953
17.81794304,-0.7831713867,-0.8931925964,-1.183289337,1.676700358
17.82788304,-0.2767744446,-0.3930825806,-1.649719391,1.718339919
17.83782204,-0.2847079468,0.02649490356,-1.48595993,1.513220906
17.84776204,-0.3650907898,0.550405426,-1.013093262,1.209378094
17.85770104,-0.3981719971,1.022074585,-0.2381547546,1.122450482
17.86764104,-0.199385376,1.493594055,0.7711962891,1.69272604
17.87758104,0.1739382935,1.937570801,1.602417755,2.520352713
17.88752004,0.4715194702,2.212848358,2.185455322,3.145670586
17.89746004,0.7432044983,2.270328827,3.14870224,3.95235015
17.90739904,1.470991058,2.205812988,6.984176331,7.470484901
17.91733904,1.892963562,0.0860710144,7.344477081,7.584989312
17.92727804,0.7020401001,-2.215393066,0.2487826538,2.337246147
17.93721804,0.7574249268,-3.623664551,-2.376607819,4.399193337
17.94715704,2.980452118,-5.03492981,-1.875449982,6.144178191
17.95709704,5.599705353,-6.877448273,-1.666783905,9.024087952
17.96703604,10.16805542,-12.74928772,9.331744537,18.78869725
17.97697604,17.26240265,-17.47825378,5.6760466,25.21304039
17.98691604,20.99548965,-18.53116425,-1.56439682,28.04749492
17.99685504,27.62220932,-22.57201126,0.6911128235,35.67856187
18.00679504,35.22729446,-26.14882324,3.455863495,44.00757008
18.01673404,37.40122375,-27.00953339,5.73921524,46.48983785
18.02667404,35.18044189,-25.26012131,9.755213928,44.3948355
18.03661304,33.19182724,-21.51969955,12.36623428,41.44536904
18.04655304,30.26241898,-16.97514999,8.314160614,35.68045664
18.05649204,26.4718515,-14.81963242,4.429438934,30.65942524
18.06643204,22.32053421,-13.5683844,3.555556183,26.36189072
18.07637104,18.06293793,-12.46143631,3.046315155,22.15484501
18.08631104,14.9883316,-12.03182968,2.054178314,19.32963161
18.09625104,12.93879364,-12.27297821,1.312919769,17.88189401
18.10619004,10.89614136,-12.81335449,1.16188385,16.85995029
18.11613004,8.570577393,-13.48650467,0.795894928,15.99918916
18.12606904,6.405629425,-13.11258224,0.05089416504,14.59364559
18.13600904,5.000800781,-11.6932338,-0.2767744446,12.72070474
18.14594804,4.274660797,-9.263037415,0.6301895142,10.22123896
18.15588804,3.589236145,-6.571634216,1.48595993,7.633941924
18.16582704,3.081192627,-4.204007721,1.736987915,5.494047319
18.17576704,2.40804245,-2.422861633,1.983076172,3.949875699
18.18570604,1.365310822,-1.067430267,2.150428162,2.761851244
18.19564604,0.3764671326,0.1333726501,2.157313843,2.193973287
18.20558604,-0.6668632507,1.129850464,1.812880096,2.237812081
18.21552504,-1.836830292,1.741478577,1.215472412,2.807857963
18.22546504,-2.749183044,1.955383759,0.3927832031,3.396441034
18.23540404,-2.953358459,1.839824066,0.1679507446,3.48360248
18.24534404,-2.519261169,1.682201843,0.7885601807,3.130224759
18.25528304,-1.664089508,1.744771729,2.520458679,3.487998599
18.26522304,-0.4420307922,1.350491638,4.8850914,5.087566891
18.27516204,0.5974076843,-0.6593788147,6.455625458,6.516653774
18.28510204,0.6692582703,-2.618205414,6.462511139,7.00478097
18.29504204,0.01047821045,-3.619323578,4.965623932,6.144675255
18.30498104,-0.7435038757,-3.81212265,2.88899231,4.840594352
18.31492104,-1.04018692,-3.240760803,0.9457333374,3.532553037
18.32486004,-1.128503265,-2.581381989,-0.4122427368,2.847278818
18.33480004,-1.131646729,-2.131118317,-1.13613739,2.667039139
18.34473904,-1.092577972,-1.807191925,-1.487007751,2.582801063
18.35467904,-0.996328125,-1.560953979,-1.770218811,2.561819997
18.36461804,-0.8978329468,-1.370549927,-2.08740921,2.653636809
18.37455804,-0.8372090149,-1.11862381,-2.359692993,2.7423328
18.38449804,-0.8048762512,-0.8081694031,-2.408790894,2.665189887
18.39443704,-0.8692424011,-0.5658233643,-2.329156494,2.549648683
18.40437704,-0.8331674194,-0.4059558105,-2.096989288,2.292669218
18.41431604,-0.5635780334,-0.4819976807,-1.855691071,1.998382174
18.42425604,-0.2730322266,-0.7388635254,-1.68729126,1.862100347
18.43419504,-0.08771759033,-1.113684082,-1.582209778,1.936846507
18.44413504,0.1487905884,-1.84985321,-1.426234131,2.340563893
18.45407404,0.7502398682,-3.047512665,-1.153201904,3.343660858
18.46401404,2.08740921,-5.122198334,1.481169891,5.726085681
18.47395304,6.044280853,-7.850724335,12.01222046,15.57114781
18.48389304,11.54504196,-8.720116425,12.52146149,19.13414284
18.49383304,13.41210938,-10.07000931,1.178648987,16.81305977
18.50377204,13.77690079,-10.98400864,-3.835773468,18.03232096
18.51371204,18.97259628,-13.97119675,-2.756368103,23.72238001
18.52365104,25.42642548,-18.5795137,3.135679321,31.64702082
18.53359104,32.95771408,-25.25578033,11.6692836,43.1304711
18.54353004,36.59365311,-30.00480469,10.47282166,48.46714088
18.55347004,33.09752335,-29.88430527,5.130281525,44.88694177
18.56340883,32.39518387,-28.29101852,6.869664459,43.55481554
18.57334883,28.77151932,-21.75426178,6.616690521,36.67190782
18.58328883,24.12218765,-15.94334564,0.2366578674,28.91584711
18.59322783,20.41739182,-12.67863464,0.1142124939,24.0339491
18.60316783,16.79642166,-9.902507629,3.086431732,19.74095993
18.61310683,14.51531525,-9.661957855,3.119812317,17.71386562
18.62304683,13.49069595,-10.37776932,1.885479126,17.12460233
18.63298583,13.36869965,-10.28720764,1.875449982,16.97250965
18.64292583,13.25209213,-9.246122589,1.715582428,16.24967544
18.65286483,12.80212784,-7.923023987,1.403780823,15.12082626
18.66280483,11.57991943,-6.323899384,1.147214355,13.24395478
18.67274383,9.960287476,-4.654720459,1.059646454,11.04520709
18.68268383,8.249046021,-3.214565277,1.10694809,8.922192793
18.69262383,6.425837402,-2.031575317,1.017284546,6.815684297
18.70256283,4.428989868,-1.250948639,0.4894821167,4.628219581
18.71250283,2.239942017,-0.8120613098,-0.1305285645,2.386172985
18.72244183,0.3074606323,-0.5020559692,-0.3791615295,0.7002540269
18.73238183,-1.401086426,-0.2008822632,-0.5932164001,1.534699499
18.74232083,-2.926863556,0.1160087585,-0.8289761353,3.044205929
18.75226083,-4.202211456,0.4258644104,-0.8975335693,4.31804448
18.76219983,-5.098996582,0.4457730103,-0.550405426,5.14795356
18.77213983,-5.488037567,0.1971400452,0.1079255676,5.49263766
18.78207883,-5.60823761,-0.2362088013,0.7646099854,5.665046524
18.79201883,-5.412444763,-0.926124115,1.285526733,5.63957828
18.80195883,-4.74932373,-1.798659668,1.625918884,5.332435158
18.81189783,-3.982318726,-2.573598175,1.853894806,5.091089859
18.82183783,-3.305426331,-3.006647644,2.037413177,4.910888488
18.83177683,-2.519111481,-2.961591339,1.916165314,4.334585957
18.84171683,-1.500779114,-2.517464905,1.426533508,3.259595887
18.85165583,-0.7337741089,-2.06286026,0.9180409241,2.374155857
18.86159583,-0.4489164734,-1.688638458,0.6876699829,1.877742221
18.87153483,-0.5284011841,-1.282233582,0.7458988953,1.57470503
18.88147483,-0.6867718506,-0.7887098694,0.9333091736,1.401707832
18.89141383,-0.5158273315,-0.1437011719,1.024170227,1.155704338
18.90135383,-0.2228865051,0.442180481,0.8541238403,0.9872839037
18.91129383,0.02634521484,0.9448352051,0.5962101746,1.117530406
18.92123283,0.3447331238,1.383273468,0.6709048462,1.575563305
18.93117283,0.715512085,1.616039429,1.016087036,2.038620574
18.94111183,1.018781433,1.427581329,1.469793549,2.288273833
18.95105183,1.480571136,0.5848338318,3.082090759,3.468919853
18.96099083,2.369871826,-0.7378157043,6.088888092,6.575349624
18.97093083,2.471809845,-2.382894745,4.075275421,5.328780445
18.98086983,2.561473389,-3.401376801,-0.4788542175,4.284835052
18.99080983,4.876858521,-4.727918243,-0.9500743103,6.858542202
19.00074883,9.498348083,-8.541088715,4.685256958,13.60589745
19.01068883,15.96070953,-14.57863358,12.04320602,24.74509279
19.02062883,19.01271286,-17.44053223,3.195105743,25.9973867
19.03056783,24.20556427,-21.46311722,-2.834505615,32.47474656
19.04050783,32.80248688,-29.37461517,-2.180814972,44.08658658
19.05044683,38.70905411,-34.074841,-1.528621216,51.59285166
19.06038683,36.22511948,-34.30266724,0.7964936829,49.89555755
19.07032583,31.12896698,-32.11436783,6.015989685,45.12801057
19.08026583,27.63014282,-23.82206177,9.412875824,37.67648671
19.09020483,26.05481873,-16.4442041,9.888287201,32.35805388
19.10014483,23.11283661,-11.748918,10.44183609,27.9512474
19.11008483,20.08942383,-8.89270752,9.07981842,23.77200663
19.12002383,17.36808289,-7.891888733,6.135291595,20.03931171
19.12996383,15.22663605,-7.363188171,3.883075104,17.35353732
19.13990283,13.84650604,-7.033723297,2.083816681,15.66975702
19.14984283,12.44661713,-7.05557785,0.6354286194,14.32142543
19.15978183,10.79929276,-7.117099915,-0.4430786133,12.94118054
19.16972183,8.832532654,-6.780150604,-1.326691132,11.21357145
19.17966083,6.897805939,-6.022126923,-1.33627121,9.253721424
19.18960083,4.846920776,-4.993166656,-0.8919950867,7.015697364
19.19953983,2.652334442,-3.901935883,-0.6984475708,4.769466494
19.20947983,0.8657995605,-2.778522034,-0.8072712708,3.020178881
19.21941983,-0.2972817993,-1.900897064,-0.5155279541,1.991872282
19.22935883,-1.328637085,-1.149759064,0.03173400879,1.757335897
19.23929883,-2.557282104,-0.4403842163,-0.1140628052,2.597429565
19.24923783,-3.66707428,0.2221380615,-0.1737886047,3.677904508
19.25917783,-4.644391937,0.7458988953,0.1257385254,4.705587297
19.26911683,-5.021308136,1.182540894,0.6277944946,5.196735926
19.27905683,-4.726121979,1.399739227,1.090182953,5.04816776
19.28899583,-4.677622833,1.319356384,1.683249664,5.143363303
19.29893583,-4.863985291,0.7604187012,2.6210495,5.577319247
19.30887483,-4.006268921,-0.4373904419,2.785108337,4.89880899
19.31881483,-2.600093079,-1.518143005,1.852547607,3.535134345
19.32875483,-1.434317322,-1.938019867,0.9093589783,2.576843211
19.33869383,-0.3013233948,-1.985171814,0.3670367432,2.041180759
19.34863383,0.5960604858,-1.802551575,0.133971405,1.903267879
19.35857283,1.128054199,-1.444945221,0.2881507874,1.855641087
19.36851283,1.348395996,-0.7129673767,0.5917195129,1.636039799
19.37845183,1.464704132,-0.01721420288,0.5613327026,1.568677445
19.38839183,1.435514832,0.287252655,0.05284011841,1.464926277
19.39833083,1.22160965,0.3873944092,-0.6529421997,1.438310843
19.40827083,0.8378077698,0.4152365112,-1.099313965,1.443202831
19.41820983,0.5574407959,0.4242178345,-1.127305756,1.327222392
19.42814983,0.4334985352,0.3222798157,-0.8689430237,1.02315553
19.43808983,0.3580554199,0.1392105103,-0.5727090454,0.6896222884
19.44802883,0.5089416504,-0.1910028076,-0.4730163574,0.7205887526
19.45796883,0.8731343079,-0.8114625549,-0.4516108704,1.274671478
19.46790783,0.9439370728,-1.64867157,-0.2983296204,1.923053745
19.47784783,1.313817902,-2.750679932,0.01077758789,3.048355905
19.48778683,2.340532837,-4.4006987,1.221160583,5.131810224
19.49772683,4.800367584,-5.583089905,1.382075958,7.491632384
19.50766583,9.561666412,-8.085885315,6.698570251,14.20133266
19.51760583,14.97920059,-11.34086655,11.7568515,22.16337658
19.52754583,15.18367538,-11.56749527,2.049238586,19.19766454
19.53748483,15.82434311,-12.02569244,-4.054019623,20.28453077
19.54742483,20.92648315,-15.39099426,-3.163222046,26.16880539
19.55736442,29.92217651,-20.79879868,6.799759827,37.06971011
19.56730442,34.96578827,-24.67543716,6.986122284,43.36230452
19.57724342,33.55437332,-25.40247528,1.696122894,42.11957445
19.58718342,32.1293367,-26.02428223,6.874005432,41.91431131
19.59712242,28.61928589,-21.91742249,8.517288208,37.04026365
19.60706242,24.80880981,-16.33029099,3.05978714,29.85829442
19.61700142,22.33206024,-13.33277435,3.451073456,26.23725776
19.62694142,19.9053067,-11.59339142,5.888155518,23.77600334
19.63688042,18.20139999,-12.03467377,4.556524658,22.2909455
19.64682042,17.39502686,-12.9512178,1.539548492,21.74146296
19.65676042,16.53925644,-12.62444733,-0.1429527283,20.80730904
19.66669942,14.90241028,-11.71478897,-0.93256073,18.97861381
19.67663942,12.76665161,-10.50260971,-1.119971008,16.56944595
19.68657842,10.38615189,-8.84705246,-0.8734336853,13.67133405
19.69651842,8.365952911,-7.077432404,-0.7583230591,10.98427382
19.70645742,7.02519104,-5.330714722,-0.2535726929,8.822365199
19.71639742,5.695655823,-3.81451767,0.3052153015,6.861792527
19.72633642,4.190984802,-2.554138641,0.5815406799,4.942283619
19.73627642,2.49111969,-1.461710358,0.4676275635,2.925910118
19.74621642,0.850531311,-0.366587677,0.1776805115,0.943059065
19.75615542,-0.9222322083,0.6086343384,0.02125579834,1.105169586
19.76609542,-2.738255768,1.428030396,0.4278103638,3.117745526
19.77603442,-4.204456787,2.189347229,1.50706604,4.974127684
19.78597442,-4.971611481,2.813848572,2.722538452,6.328260434
19.79591342,-4.70845871,3.200344849,3.417992249,6.640366073
19.80585342,-4.219874725,3.094365234,3.621718597,6.363904815
19.81579242,-3.646716614,2.077829132,4.010160828,5.804938055
19.82573242,-2.282902679,-0.4424798584,4.161346436,4.766994569
19.83567142,-1.703457642,-2.389481049,3.56528595,4.617645669
19.84561142,-1.422940979,-3.048410797,2.354004822,4.105960073
19.85555142,-1.100661163,-3.359463959,1.171912994,3.724356744
19.86549042,-0.7851173401,-3.451672211,0.4415817261,3.567274129
19.87543042,-0.5331912231,-3.210224304,0.07095245361,3.254975762
