Time (s),Acceleration x (m/s^2),Acceleration y (m/s^2),Acceleration z (m/s^2),Absolute acceleration (m/s^2)
9.945814792,-2.581831055,-1.31396759,-0.1508862305,2.900884189
9.955753792,-4.0941362,-0.7400610352,0.2671943665,4.169056774
9.965693792,-5.567821655,-0.4086502075,0.959355011,5.664626644
9.975633792,-6.664740601,-0.4927752686,1.789528656,6.918381859
9.985572792,-7.533983002,-1.22625,2.472857666,8.023690795
9.995512792,-8.651109924,-2.609673157,3.46349762,9.677185162
10.00545179,-8.724607086,-4.11284729,4.220024414,10.52819489
10.01539179,-6.722670135,-5.028942261,3.984713745,9.293142506
10.02533079,-4.12452301,-4.751419373,2.748284912,6.865911889
10.03527079,-1.958227844,-3.635639648,1.088237,4.270455679
10.04520979,-0.5153782654,-2.341730347,-0.3697311401,2.426111475
10.05514979,0.04026626587,-1.738185425,-0.9717791748,1.991799364
10.06508979,0.31943573,-1.249002686,-1.112336884,1.702744912
10.07502879,0.495769043,-0.8717871094,-1.175206146,1.544962522
10.08496879,0.5818400574,-0.5231620789,-1.224902802,1.453486597
10.09490779,0.7179071045,-0.0679586792,-1.233734436,1.429024021
10.10484779,0.8952882385,0.4123924255,-1.046623535,1.43771672
10.11478679,0.9240284729,0.7990383911,-1.085542603,1.634225722
10.12472679,0.6810836792,0.966839447,-1.329984283,1.779750457
10.13466679,0.526305542,0.9865983582,-1.514251099,1.882373564
10.14460579,0.6340814209,0.6915618896,-1.363065491,1.654770264
10.15454579,0.8488847351,0.05987548828,-0.8872050476,1.229358843
10.16448479,0.9885443115,-0.7206015015,0.3520678711,1.272964322
10.17442479,1.401236115,-2.139800262,4.523892517,5.196904013
10.18436379,2.330952759,-3.063679047,5.298531647,6.549344065
10.19430379,4.138294373,-3.640579376,2.337239685,5.98681784
10.20424279,8.304879913,-5.65389267,7.025939484,12.25974544
10.21418279,12.20127731,-7.489076385,15.90128311,21.39645386
10.22412279,12.87742126,-8.605155487,8.197553101,17.52359998
10.23406179,11.84067719,-8.756191406,-4.104315033,15.28783588
10.24400179,15.97642685,-11.5856076,-3.315455475,20.01161571
10.25394079,22.89144699,-16.60946045,-1.417402496,28.3178663
10.26388079,27.90527069,-21.30354904,-0.4445755005,35.11043978
10.27381979,33.27969452,-27.1048851,0.4079017639,42.92294547
10.28375979,37.06502289,-31.26443527,0.5046006775,48.49263301
10.29369879,35.03060349,-31.96408035,2.536325684,47.48977323
10.30363879,28.82106628,-29.80541931,6.831643524,42.02009323
10.31357879,22.63532959,-22.65748352,7.781867523,32.95871914
10.32351779,20.647164,-16.61260391,6.229745178,27.22303648
10.33345779,18.01892944,-13.04043228,6.549779663,23.18694258
10.34339679,14.71574844,-10.86575455,6.383774872,19.3744795
10.35333679,12.80721725,-10.06761429,5.438191223,17.17427131
10.36327579,12.47670456,-9.1079599,4.325704651,16.04165861
10.37321579,12.39901611,-7.832911377,3.097359009,14.98945409
10.38315579,11.80669785,-6.518794098,1.975891113,13.63073498
10.39309479,10.43854294,-5.278024292,1.099763031,11.74862536
10.40303479,8.303981781,-4.202061768,0.5234614563,9.321343702
10.41297379,6.044280853,-3.259621582,0.2318678284,6.871115381
10.42291379,4.110901337,-2.33783844,0.1555265808,4.731721345
10.43285279,2.34487381,-1.625020752,0.06586303711,2.853675449
10.44279279,0.7372169495,-1.203197937,-0.21061203,1.426720552
10.45273179,-0.8711883545,-0.8473878479,-0.490380249,1.310537333
10.46267179,-2.248174896,-0.3778143311,-0.6480024719,2.3700087
10.47261179,-3.389551392,-0.03622467041,-0.5608836365,3.435834879
10.48255079,-4.410129089,0.08816665649,0.04206253052,4.411210854
10.49249079,-5.323379974,-0.04490661621,1.051263885,5.426375099
10.50242979,-6.063740387,-0.5649252319,2.201921082,6.475843146
10.51236979,-6.843019867,-1.679956512,3.091521149,7.694587565
10.52230879,-6.811435547,-3.042722626,3.585942993,8.27724606
10.53224879,-5.595813446,-3.872746582,3.229534149,7.532674494
10.54218879,-4.023333435,-3.760180664,1.833686829,5.804186243
10.55212796,-2.137854309,-2.893033905,0.347277832,3.613954637
10.56206796,-0.7815248108,-2.214494934,-0.627046051,2.430628642
10.57200696,-0.186512146,-1.844464417,-0.9280700684,2.073197968
10.58194696,0.09789642334,-1.31756012,-0.8662486267,1.579852861
10.59188596,0.2532733154,-0.7020401001,-0.7526348877,1.059937238
10.60182596,0.3418890381,-0.09669891357,-0.67045578,0.758781752
10.61176496,0.5114863586,0.4355941772,-0.5764512634,0.8852438316
10.62170496,0.5870791626,0.8652008057,-0.6625222778,1.237808606
10.63164496,0.5755531311,1.079555054,-0.9080117798,1.523543866
10.64158396,0.5740562439,1.180744629,-1.094972992,1.709580154
10.65152396,0.5038522339,1.178499298,-1.006207581,1.629472726
10.66146296,0.4302053833,0.8228388977,-0.5598358154,1.084230909
10.67140296,0.4794529724,0.01960922241,0.3381468201,0.5870289143
10.68134196,1.555265808,-1.395547943,7.160659332,7.459319531
10.69128196,2.504142609,-3.139720917,9.392518158,10.21508566
10.70122196,3.378624115,-3.797902222,1.535806274,5.310166015
10.71116096,4.12811554,-3.476520538,-1.220711517,5.533323556
10.72110096,5.865851898,-4.539609833,-0.2085163879,7.420226075
10.73103996,11.21258331,-8.297395477,9.837542725,17.0688618
10.74097996,15.52152283,-12.07958038,8.53929245,21.44186206
10.75091896,17.24039841,-13.87135437,-1.727108459,22.19524077
10.76085896,23.44559464,-19.58691879,1.193917236,30.57398786
10.77079796,28.93258438,-23.51265518,-0.8190966797,37.29088779
10.78073796,33.97694458,-27.87772797,-0.9794132996,43.96088864
10.79067796,36.65068451,-32.54187881,3.069816284,49.10876015
10.80061696,33.10770218,-32.38994476,6.789580994,46.81161048
10.81055696,27.56682449,-26.75087128,7.973618774,39.23158833
10.82049596,24.64594849,-18.39360031,7.391179962,31.62873457
10.83043596,22.40361145,-13.8735997,5.459447021,26.91104116
10.84037496,18.75554764,-11.36751114,4.632865906,22.41549293
10.85031496,15.60519882,-9.939630432,3.758683777,18.8797825
10.86025396,13.72944946,-9.342821503,2.968926086,16.8701102
10.87019396,13.01019516,-9.289532318,2.177821198,16.1339237
10.88013396,12.23510696,-9.065747681,1.53041748,15.30450264
10.89007296,10.737621,-8.312813416,0.9211843872,13.61058237
10.90001296,8.888366547,-7.233408051,0.4704716492,11.46937642
10.90995196,6.95618454,-6.03993988,0.3480262756,9.2190292
10.91989196,5.049748993,-4.755460968,0.5363346863,6.957156661
10.92983096,3.456911316,-3.46813797,0.9586065674,4.989703736
10.93977096,2.000589752,-2.430495758,1.221310272,3.376576338
10.94971096,0.5769003296,-1.638193359,1.058299255,2.033835978
10.95964996,-0.9659413147,-1.018781433,0.5438191223,1.505555535
10.96958996,-2.35774704,-0.2402503967,0.04715194702,2.370424996
10.97952896,-3.444337463,0.3418890381,-0.08622070312,3.462337749
10.98946896,-4.166435852,0.7219487,0.3570075989,4.24356596
10.99940796,-4.738695831,0.8711883545,1.142274628,4.95166625
11.00934796,-4.99511261,0.5812413025,1.981429596,5.405095252
11.01928696,-5.160967712,-0.5426216125,2.830164642,5.910994658
11.02922696,-4.902006226,-2.264341278,3.531755676,6.452147287
11.03916696,-4.000730438,-3.653602295,3.821403351,6.630066164
11.04910596,-3.199596405,-4.172124023,3.203787689,6.156970974
11.05904596,-2.165097656,-3.868106232,1.796414337,4.782990503
11.06898496,-0.9448352051,-2.981050873,0.2186952209,3.134837391
11.07892496,-0.2118095398,-2.166295166,-0.9259744263,2.365402009
11.08886396,0.0260458374,-1.690285034,-1.43805954,2.219404677
11.09880396,0.07918533325,-1.169068909,-1.557810516,1.949298857
11.10874296,0.0904119873,-0.6625222778,-1.384470978,1.537488206
11.11868296,0.1453477478,-0.1683998108,-1.102607117,1.124823061
11.12862296,0.2429447937,0.2896476746,-0.7887098694,0.8746320405
11.13856196,0.4189787292,0.5930667114,-0.6348298645,0.9645103714
11.14850196,0.5833369446,0.7685018921,-0.7295828247,1.209614917
11.15844096,0.6966513062,0.8442443848,-0.8072712708,1.360058281
11.16838096,0.9755213928,0.7439529419,-0.423918457,1.29800417
11.17831996,1.495989075,0.09265731812,3.265908508,3.593428318
11.18825996,1.715432739,-1.764231262,9.067843323,9.395797143
11.19819896,2.324067078,-3.678600311,6.882837067,8.142900842
11.20813896,3.574866028,-4.202660522,0.6408174133,5.55451794
11.21807896,3.708837433,-3.747906189,-0.9304650879,5.354254494
11.22801796,5.854325867,-5.622458038,1.16068634,8.199534043
11.23795796,10.28870453,-10.16386414,10.0740509,17.62521139
11.24789696,13.76642258,-13.00076477,3.32772995,19.22519341
11.25783696,17.4328981,-15.50984711,0.9868977356,23.35455546
11.26777596,22.01232513,-19.42151276,1.589694214,29.39837994
11.27771596,29.96184402,-26.93304245,4.251758423,40.51145915
11.28765496,36.36717407,-32.37078461,6.268813934,49.08907286
11.29759496,37.57471298,-32.99214249,5.281467133,50.28155145
11.30753496,31.49181244,-28.73634247,4.371060333,42.85577905
11.31747396,24.58442642,-20.76122681,2.321372681,32.26160771
11.32741396,21.88179657,-15.24010803,-0.116308136,26.66622286
11.33735296,19.8641423,-12.62759079,-0.1224453735,23.53837699
11.34729296,16.99610641,-11.04448288,0.5539979553,20.27696104
11.35723196,14.04978333,-10.17284546,1.016685791,17.37575455
11.36717196,12.0620668,-9.078471222,1.542691956,15.17537458
11.37711196,11.6692836,-8.201594696,1.881287842,14.38671537
11.38705096,11.84426971,-7.762108612,1.703906708,14.26325185
11.39699096,11.52887558,-7.627987518,1.404678955,13.89511744
11.40692996,10.45381119,-7.28265564,1.309476929,12.80757476
11.41686996,9.046138458,-6.445446625,1.404828644,11.19597904
11.42680896,7.138954468,-5.186414795,1.588197327,8.965820658
11.43674896,4.933740234,-3.982019348,1.65450943,6.552531743
11.44668796,3.101999359,-2.89363266,1.503323822,4.500610237
11.45662796,1.525926819,-1.920655975,1.19346817,2.727954968
11.46656796,-0.02679428101,-1.30468689,0.7244934082,1.492587187
11.47650696,-1.490749969,-0.841999054,0.5700146484,1.804498428
11.48644696,-2.761906586,-0.3162922668,0.8572673035,2.909136644
11.49638596,-3.90343277,0.09116043091,1.523382111,4.191156245
11.50632596,-4.639302521,0.3766168213,2.414778442,5.243674574
11.51626496,-5.269641724,0.359103241,3.689826965,6.44305068
11.52620496,-5.792953491,-0.3531156921,4.850213928,7.563568998
11.53614496,-5.30751297,-1.579964447,4.508923645,7.141174554
11.54608396,-4.190984802,-2.342029724,2.998115387,5.6602255
11.55602408,-3.475772095,-2.592009888,1.387165375,4.552332884
11.56596308,-2.46073288,-2.493963776,0.02185455322,3.503646563
11.57590308,-1.657503204,-2.235900421,-0.6828799438,2.865814471
11.58584208,-1.32684082,-2.013013916,-0.7586224365,2.527496704
11.59578208,-1.027613068,-1.643282776,-0.6647676086,2.048971174
11.60572108,-0.5766009521,-1.166224823,-0.6068380737,1.435549178
11.61566108,-0.1260379028,-0.7283853149,-0.7360194397,1.043146843
11.62560108,0.203127594,-0.4857398987,-1.101259918,1.220646335
11.63554008,0.4540058899,-0.3381468201,-1.439556427,1.546863707
11.64548008,0.6234535217,-0.1044827271,-1.667232971,1.783052639
11.65541908,0.7882608032,0.1344204712,-1.855990448,2.020921696
11.66535908,1.061143341,0.2371069336,-1.979633331,2.258582081
11.67529808,1.284628601,0.1484912109,-1.899250488,2.297710317
11.68523808,1.31756012,-0.279768219,-1.505269775,2.019918816
11.69517708,1.246008911,-1.034498749,-1.08120163,1.947234663
11.70511708,1.782493286,-2.405048676,2.725831604,4.048666371
11.71505708,3.560046844,-4.528532867,10.78058167,12.2230309
11.72499608,5.448819122,-5.171296234,7.270680542,10.45441199
11.73493608,9.672885132,-6.976991272,7.369924164,14.01994637
11.74487508,10.19784348,-8.301437073,6.531517639,14.68232242
11.75481508,11.59339142,-9.449250183,0.4710704041,14.96385515
11.76475408,14.70901245,-11.22006775,-3.358715515,18.80228543
11.77469408,23.31880829,-18.35902222,2.109862518,29.75352142
11.78463408,30.91461273,-26.04419083,6.87655014,41.00365957
11.79457308,34.09310303,-29.39691879,5.959557037,45.40963365
11.80451308,36.5698526,-31.48821991,6.111790466,48.64376728
11.81445208,33.06309494,-29.73970596,8.551566925,45.2851814
11.82439208,26.79293381,-22.14794312,6.114784241,35.29565515
11.83433108,23.67267242,-15.9863063,2.023791504,28.63656999
11.84427108,21.38677597,-13.53365662,1.041833496,25.33060333
11.85421008,19.01211411,-12.4337439,1.798060913,22.78796816
11.86415008,16.77845901,-12.97591644,1.681303711,21.27716797
11.87409008,15.28142212,-13.52617218,1.679208069,20.47679017
11.88402908,14.08750488,-13.02321808,1.937271423,19.28250563
11.89396908,12.52804779,-11.9360289,2.208058319,17.44409037
11.90390808,10.81830322,-10.55604858,2.318977661,15.29194244
11.91384808,9.058562622,-8.766669617,2.625091095,12.87645744
11.92378708,7.650141449,-6.734196167,2.906805267,10.59828189
11.93372708,6.64842453,-4.712051239,2.878065033,8.642235471
11.94366608,5.413791962,-3.131038971,2.749482422,6.831705646
11.95360608,3.849395142,-2.149679718,2.275567932,4.961569838
11.96354608,2.079176331,-1.69432663,1.39240448,3.022003835
11.97348508,0.2354603577,-1.303788757,0.3393443298,1.367648083
11.98342508,-1.626817017,-0.8289761353,-0.4766088867,1.887032345
11.99336408,-3.239413605,-0.1901046753,-0.7197033691,3.323840133
12.00330408,-4.621190186,0.5875282288,-0.1413061523,4.660531684
12.01324308,-6.111790466,1.018931122,1.543739777,6.385556815
12.02318308,-7.127428436,0.5243595886,3.404819641,7.916311381
12.03312208,-7.425907745,-0.8963360596,4.659360809,8.812330414
12.04306208,-6.16283432,-3.112926636,5.771398315,8.99888202
12.05300208,-3.87768631,-4.88045105,6.519392853,9.019852368
12.06294108,-2.159708862,-5.390141144,5.301525421,7.86283255
12.07288108,-1.076112213,-4.669389954,2.512824554,5.410684548
12.08282008,-0.4376898193,-3.127745819,-0.1552272034,3.162034436
12.09276008,0.1252894592,-1.888023834,-2.020049286,2.767838609
12.10269908,0.5445675659,-1.323098602,-2.787503357,3.133260077
12.11263908,0.5815406799,-0.8496331787,-2.805316315,2.988288093
12.12257808,0.4043092346,-0.3478765869,-2.74379425,2.795154909
12.13251808,0.2716850281,0.07723937988,-2.650837555,2.66584291
12.14245808,0.2059716797,0.4058061218,-2.473905487,2.515414737
12.15239708,0.1809736633,0.6191125488,-2.090702362,2.18794154
12.16233708,0.1944456482,0.7619155884,-1.641935577,1.820515563
12.17227608,0.09145980835,0.8602610779,-1.188378754,1.469917712
12.18221608,-0.06032455444,0.8545729065,-0.7619155884,1.146494338
12.19215508,-0.182769928,0.8074209595,-0.4391867065,0.9371330832
12.20209508,-0.1953437805,0.554147644,-0.226179657,0.6295999057
12.21203508,0.143102417,-0.1434017944,0.2633024597,0.3322206521
12.22197408,0.9961784363,-1.596579895,8.231981506,8.444344756
12.23191408,2.228415985,-3.165916443,9.002129974,9.799347366
12.24185308,5.342839508,-5.286556549,4.932243347,8.990029955
12.25179308,7.333849182,-7.177424469,5.922583923,11.84811235
12.26173208,10.36594391,-10.15623001,12.33435059,19.04568207
12.27167208,13.75833939,-11.7170343,4.010759583,18.51126651
12.28161108,18.58235779,-14.15516418,-0.2851570129,23.36137857
12.29155108,22.66661453,-16.32789597,-0.9141490173,27.95015688
12.30149108,26.64294571,-18.80748962,-2.620750122,32.7175267
12.31143008,30.83901993,-23.63809433,-2.66071701,38.9471959
12.32137008,32.20477982,-28.5275267,0.9497749329,43.03335561
12.33130908,31.1976741,-29.87098297,3.845203857,43.36307284
12.34124908,28.04822342,-27.42042892,5.476062469,39.60517668
12.35118808,24.47171082,-21.43737076,6.969806213,33.27166503
12.36112808,22.07579315,-14.61860046,6.392456818,27.23798133
12.37106708,20.12549881,-11.6068634,6.572831726,24.14450449
12.38100708,17.47256561,-10.14739838,6.717131653,21.29272412
12.39094708,15.98840195,-9.569899292,6.747817841,19.81779541
12.40088608,16.52877823,-9.947264557,5.265151062,19.99675968
12.41082608,16.592845,-9.818083191,3.168461151,19.53858769
12.42076508,14.94881378,-8.868457947,1.63579834,17.45830507
12.43070508,12.80976196,-7.970325623,0.6382727051,15.10044649
12.44064408,10.11970596,-6.859635315,-0.04400848389,12.22558719
12.45058408,7.386689301,-5.732778625,-0.1425036621,9.351376203
12.46052308,4.947661285,-4.61954361,0.2588117981,6.77395888
12.47046308,2.747835846,-3.590882721,0.5144801331,4.550794476
12.48040308,0.9442364502,-2.856060791,0.3815565491,3.032202354
12.49034208,-0.3329077148,-2.362237701,0.1938468933,2.393443361
12.50028208,-1.319206696,-2.015408936,-0.08816665649,2.410384376
12.51022108,-2.223476257,-1.573228455,-0.5752537537,2.783848293
12.52016108,-3.239712982,-1.003513184,-0.8463400269,3.495578687
12.53010008,-4.194128265,-0.3965254211,-0.483943634,4.240536022
12.54004008,-5.000800781,0.09280700684,0.7551795959,5.058351294
12.54998008,-5.71466629,0.220790863,3.057841187,6.485102323
12.55991879,-6.749314728,-0.7617658997,5.343438263,8.642098648
12.56985879,-6.091283112,-2.546803894,5.300327911,8.466605931
12.57979779,-4.229305115,-3.175197144,3.107238464,6.133826663
12.58973779,-2.644999695,-2.808908844,0.8488847351,3.950518646
12.59967679,-1.478176117,-2.18335968,-0.443228302,2.673670783
12.60961679,-0.7381150818,-1.688189392,-0.7551795959,1.991254258
12.61955579,-0.3962260437,-1.090781708,-0.3855981445,1.222900544
12.62949579,-0.07604187012,-0.2841091919,-0.1872605896,0.3486644911
12.63943579,0.1812730408,0.3141966248,-0.7099736023,0.7972715662
12.64937479,0.2487826538,0.633482666,-1.381177826,1.539754943
12.65931479,0.2154020691,0.7667056274,-1.828298035,1.994218963
12.66925379,0.2056723022,0.8327183533,-1.94355835,2.124415216
12.67919379,0.2893482971,0.8400531006,-1.874551849,2.07445325
12.68913279,0.4216731262,0.883762207,-1.858385468,2.10058097
12.69907279,0.596509552,0.7993377686,-1.621877289,1.904009048
12.70901179,0.5252577209,0.4254153442,-1.217118988,1.392211377
12.71895179,0.173638916,-0.2064207458,-0.9309141541,0.9692064588
12.72889179,-0.06152206421,-0.8478369141,-0.7021897888,1.102580109
12.73883079,0.03637435913,-1.531165924,-0.2865042114,1.558164575
12.74877079,0.6971003723,-3.250939636,4.494703217,5.590788357
12.75870979,2.830314331,-4.196672974,6.79706543,8.474835793
12.76864979,6.623426514,-5.535189514,9.345815277,12.72212109
12.77858879,11.92959229,-9.401948547,14.18076096,20.7799372
12.78852879,9.129664764,-9.11963562,-0.003891906738,12.90420659
12.79846779,11.35987701,-10.84988754,-3.853736115,16.17461429
12.80840779,19.09129944,-16.92395645,1.215472412,25.5416403
12.81834779,30.19730438,-25.50366486,4.610262909,39.79407792
12.82828679,37.25078659,-30.78917358,2.643353119,48.40022342
12.83822679,36.87761261,-33.89880707,5.262157288,50.36643457
12.84816579,33.28762802,-32.81536011,5.553601227,47.07182305
12.85810579,28.03115891,-26.88484268,4.149670715,39.06098312
12.86804479,25.98401596,-18.78443756,2.895428925,32.19328639
12.87798479,24.29358124,-13.94904282,1.256487122,28.04162343
12.88792479,20.76377151,-11.09507767,0.6840774536,23.55213192
12.89786379,17.17438568,-9.635313263,1.254990234,19.73255649
12.90780379,15.13547562,-8.866212616,1.595681763,17.61358988
12.91774279,15.19265671,-8.609646149,1.578916626,17.53384733
12.92768279,15.45521072,-8.41759552,1.135538635,17.63544445
12.93762179,14.70616837,-7.931705933,0.9461824036,16.73554923
12.94756179,13.43097015,-7.470514984,0.9651928711,15.39906331
12.95750079,11.6016243,-6.718927917,1.127754822,13.45412612
12.96744079,9.321565704,-5.514682159,1.236129456,10.90097805
12.97737979,6.626869354,-3.930825806,1.192570038,7.796730869
12.98731979,3.688779144,-2.303559723,0.8214916992,4.425870263
12.99725979,0.8915460205,-0.8961863708,-1.113235016,1.684427653
13.00719879,-0.493074646,-0.3709286499,-0.9154962158,1.104012677
13.01713879,-1.37369339,-0.5128335571,0.4337979126,1.529121452
13.02707779,-2.532583466,-0.5303471375,0.9928852844,2.771474027
13.03701779,-3.766766968,-0.1965412903,0.8978329468,3.877275573
13.04695679,-4.776567078,0.08786727905,1.158590698,4.9158566
13.05689679,-5.631738739,0.1206491089,1.945204926,5.959434506
13.06683679,-6.15819397,-0.1625619507,2.957400055,6.833446747
13.07677579,-6.149661713,-0.9633966064,3.662134552,7.222028917
13.08671579,-4.683311005,-2.22901474,3.626508636,6.328781365
13.09665479,-3.308420105,-3.176843719,3.024161224,5.493954015
13.10659479,-2.517764282,-3.615731049,2.246378632,4.945590455
13.11653379,-1.876497803,-3.549418945,1.449884949,4.268698305
13.12647379,-1.554816742,-3.126398621,0.6939569092,3.559971858
13.13641279,-1.238973541,-2.562221832,0.1582209778,2.850450847
13.14635279,-0.949176178,-1.909129944,-0.2580633545,2.147628751
13.15629279,-0.7870632935,-1.290466461,-0.6415658569,1.642065487
13.16623179,-0.4189787292,-0.86235672,-1.079105988,1.443492993
13.17617179,0.0592767334,-0.5906716919,-1.650318146,1.753840575
13.18611079,0.3700305176,-0.3299139404,-1.961221619,2.022907815
13.19605079,0.6023474121,0.0137713623,-1.870659943,1.965294043
13.20598979,0.6304888916,0.3176394653,-1.652563477,1.797046776
13.21592979,0.4161346436,0.5174739075,-1.568737793,1.703492163
13.22586879,0.1523831177,0.468974762,-1.355431366,1.442342584
13.23580879,0.05284011841,0.05433700562,-1.022823029,1.025627387
13.24574879,0.2163002014,-0.8250842285,-0.7397616577,1.129069117
13.25568779,0.5393284607,-1.89431076,-0.3115022278,1.994071735
13.26562779,1.492845612,-4.284091187,6.426735535,7.866699114
13.27556679,3.925287323,-5.60359726,8.091573486,10.59630805
13.28550679,8.586294708,-6.744375,6.871610413,12.9007783
13.29544579,10.93386292,-8.405171356,4.945266266,14.65100414
13.30538579,12.07089844,-9.582173767,0.6089337158,15.42385955
13.31532479,15.5948703,-11.74397827,0.0983454895,19.52256841
13.32526479,22.69146286,-16.12940872,4.30355072,28.17056729
13.33520479,29.8917897,-21.06374771,5.261408844,36.94432273
13.34514379,31.330448,-23.84661072,4.309687958,39.60847415
13.35508379,33.67502243,-27.79465073,7.971672821,44.38577827
13.36502279,32.16690857,-28.94485886,7.804769897,43.97077773
13.37496279,26.73186081,-26.82122498,5.447621613,38.25764071
13.38490179,24.07174255,-22.71795776,3.971092072,33.33652602
13.39484179,21.88104813,-17.86310349,1.899849243,28.31042494
13.40478079,18.55451569,-14.7084137,2.802172852,23.84239205
13.41472079,15.83946167,-13.17649933,2.607427826,20.76794069
13.42466079,14.44331497,-12.14903595,2.009720764,18.98018439
13.43459979,13.92494293,-11.0813063,1.632654877,17.87078473
13.44453979,13.50536545,-10.08422974,1.040336609,16.88694423
13.45447879,12.71934998,-9.129515076,0.3811074829,15.66126279
13.46441879,11.49339935,-8.379574585,-0.3863465881,14.2290113
13.47435779,10.37956558,-7.411687317,-0.7231462097,12.77464015
13.48429779,9.221124573,-6.236331482,-0.6242019653,11.14946621
13.49423679,7.702532501,-4.780608673,-0.2315684509,9.068453571
13.50417679,5.696104889,-3.133883057,0.3647914124,6.511521074
13.51411679,3.529959412,-1.699266357,0.7391629028,3.986788356
13.52405579,1.396895142,-0.8416996765,0.795894928,1.814723979
13.53399579,-0.5453160095,-0.4400848389,0.5783972168,0.9086184876
13.54393479,-2.286046143,-0.3251239014,0.2841091919,2.326463099
13.55387546,-3.737877045,-0.1236428833,0.3733236694,3.758508072
13.56381446,-4.894222412,0.2435435486,0.9425898743,4.990110435
13.57375446,-5.68547699,0.5025050354,1.783092041,5.979680354
13.58369346,-6.153104553,0.2935395813,2.727178802,6.736791918
13.59363346,-6.262527008,-0.6478527832,3.789819031,7.348583948
13.60357346,-5.046156464,-2.360142059,4.72013443,7.301618631
13.61351246,-3.465593262,-3.714525604,5.035229187,7.152731652
13.62345246,-2.692900085,-4.262835388,4.496499481,6.755885138
13.63339146,-2.145039368,-4.132157135,3.240311737,5.672348423
13.64333146,-1.526525574,-3.406765594,1.592089233,4.058457868
13.65327046,-0.7430548096,-2.484533386,0.1606159973,2.598236728
13.66321046,0.3255729675,-1.578916626,-0.9204359436,1.856388374
13.67315046,1.034648438,-1.069825287,-1.866618347,2.387318074
13.68308946,1.272803192,-0.7313790894,-2.589165802,2.976360679
13.69302946,1.388213196,-0.1037342834,-2.456541595,2.823560392
13.70296846,1.142723694,0.3171903992,-2.109114075,2.419667202
13.71290846,0.6673123169,0.5295986938,-1.806144104,1.99698198
13.72284746,0.220790863,0.6144721985,-1.450483704,1.590668935
13.73278746,-0.07514373779,0.6438111877,-1.100212097,1.276951873
13.74272646,-0.2769241333,0.5839356995,-0.6514453125,0.9176322095
13.75266646,-0.4441264343,0.3849993896,-0.2276765442,0.6303248595
13.76260546,-0.4605921936,-0.1460961914,0.1369651794,0.5022436922
13.77254546,0.07873626709,-1.562750244,4.384232941,4.655092502
13.78248546,1.392554169,-3.78053833,11.28129044,11.97911479
13.79242446,3.219355316,-3.57112381,2.327809296,5.341897606
13.80236446,7.858657837,-5.966891785,4.726720734,10.94094098
13.81230346,11.38562347,-9.98079483,16.82710785,22.63625954
13.82224346,14.76334946,-12.83236496,14.15935547,24.14774161
13.83218246,17.18112167,-14.07687698,-0.2034269714,22.21240172
13.84212246,22.68382874,-17.95201859,0.4017645264,28.93082218
13.85206146,28.23488525,-21.96577194,0.8282276917,35.78253545
13.86200146,31.42385376,-24.49326599,0.1368154907,39.84215585
13.87194146,31.81858292,-26.61660049,2.176923065,41.54039762
13.88188046,26.10735947,-25.2788324,4.900808716,36.6692175
13.89182046,18.55990448,-19.85426285,4.960534515,27.62731819
13.90175946,16.53536453,-15.83063004,4.511168976,23.33190462
13.91169946,16.92904587,-14.41367661,4.026626587,22.59558339
13.92163846,16.91722046,-13.95473099,2.919678497,22.12354826
13.93157846,17.4833432,-14.58013046,1.612596588,22.82209372
13.94151746,17.7607164,-15.32572998,0.844094696,23.47410365
13.95145746,16.41381729,-15.05509277,1.363963623,22.3143365
13.96139746,14.5079805,-13.53934479,2.62688736,20.01738976
13.97133646,13.32603836,-11.10914841,4.149521027,17.83858182
13.98127646,12.71875122,-8.571176147,5.429958344,16.27009959
13.99121546,11.84801193,-6.313570862,5.937403107,14.67955447
14.00115546,10.41504181,-4.40533905,5.417085114,12.53893613
14.01109446,8.359665985,-3.04451889,4.205354919,9.840636192
14.02103446,6.065985718,-2.141147461,2.993624725,7.095243771
14.03097446,3.803590393,-1.614243164,1.970502319,4.577768044
14.04091346,1.727407837,-1.434616699,0.8048762512,2.385348756
14.05085346,0.1336720276,-1.282832336,-0.2891986084,1.321802878
14.06079246,-1.035097504,-1.244811401,-0.9562115479,1.880245407
14.07073246,-2.187700653,-1.230141907,-1.152603149,2.761843094
14.08067146,-3.511547699,-1.162931671,-0.9228309631,3.812478761
14.09061146,-4.906945953,-1.105451202,-0.750838623,5.085656259
14.10055046,-6.125711517,-1.172362061,-0.6113287354,6.266777259
14.11049046,-6.931485901,-1.454674988,0.06661148071,7.08279699
14.12043046,-6.920259247,-2.264940033,1.741478577,7.48683438
14.13036946,-5.825136566,-3.537294159,3.563639374,7.690526092
14.14030946,-4.832850037,-4.495002594,5.407355347,8.532349011
14.15024846,-3.918401642,-4.654421082,5.893095245,8.470305697
14.16018846,-2.866239624,-4.203109589,3.872447205,6.393536357
14.17012746,-1.810934143,-3.263214111,1.102906494,3.891587278
14.18006746,-0.978664856,-2.211950226,-1.001267853,2.617832312
14.19000646,-0.7554789734,-1.785187683,-2.045196991,2.817884716
14.19994646,-0.8298742676,-1.479822693,-2.071392517,2.67754243
14.20988646,-0.6457571411,-1.046473846,-1.788031769,2.170061613
14.21982546,-0.2420466614,-0.5691165161,-1.438957672,1.566230946
14.22976546,0.1561253357,-0.0853225708,-1.171164551,1.184601818
14.23970446,0.5278024292,0.3363505554,-0.8692424011,1.071115985
14.24964446,0.9879455566,0.7842192078,0.001047821045,1.261363265
14.25958346,1.739382935,1.375339966,2.084116058,3.043115634
14.26952346,2.477647705,1.524878998,4.444407806,5.311944546
14.27946246,2.595452728,0.5999523926,5.640720062,6.238111939
14.28940246,2.780318298,-1.037043457,7.030729523,7.631303073
14.29934246,4.054468689,-3.295696564,6.832691345,8.601511682
14.30928146,3.388054504,-3.971990204,1.530716858,5.44046998
14.31922146,3.739074554,-4.854554901,-0.533789978,6.150797798
14.32916046,7.475454712,-8.331075439,6.833140411,13.11415453
14.33910046,12.61127472,-11.89710983,7.650291138,18.95026192
14.34903946,15.25896881,-13.5710788,-0.2254312134,20.42207453
14.35897946,18.58595032,-18.78967667,2.154020691,26.51658544
14.36891846,25.39903244,-27.90661789,3.993844757,37.94523642
14.37885846,31.00712036,-32.59082703,1.768721924,45.01923918
14.38879846,35.37818069,-35.0675766,1.500330048,49.83574609
14.39873746,31.8506163,-33.25125366,5.1518367,46.33194417
14.40867746,23.10625031,-24.53592728,5.812413025,34.20079934
14.41861646,19.22871368,-16.15650238,3.516786804,25.36027974
14.42855646,19.58796661,-12.79060181,1.845661926,23.46687876
14.43849546,19.4501033,-11.48816025,1.048719177,22.61380455
14.44843546,18.3299826,-11.54159912,0.800684967,21.67574379
14.45837446,17.16285965,-11.63231049,0.5977070618,20.74202623
14.46831446,15.96400269,-10.72340057,0.2885998535,19.23340821
14.47825446,14.59105774,-9.782307587,0.1444496155,17.56739518
14.48819346,13.21017929,-8.810229034,0.7791297913,15.89767328
14.49813346,11.89995392,-7.406897278,2.203118591,14.18889573
14.50807246,10.74420731,-5.610183563,3.934418335,12.74330404
14.51801246,9.574240265,-3.838318176,5.120102692,11.51582453
14.52795146,7.953859863,-2.454445953,5.296885071,9.866366257
14.53789146,6.02826416,-1.588646393,4.780608673,7.85607952
14.54783046,3.955973511,-1.116528168,3.899690552,5.666034589
14.55777054,1.923200684,-0.8729846191,2.891986084,3.581115263
14.56771054,0.1742376709,-0.6686595154,1.834884338,1.96067969
14.57764954,-1.474134521,-0.5839356995,0.8616082764,1.804555987
14.58758954,-2.8479776,-0.4327500916,0.04011657715,2.880947482
14.59752854,-3.702251129,-0.1968406677,-0.4146377563,3.730594341
14.60746854,-4.210893402,-0.1576222229,-0.5465135193,4.249134622
14.61740754,-4.721631317,-0.3218307495,-0.433049469,4.752358274
14.62734754,-4.95993576,-0.7661068726,0.2038760376,5.022892387
14.63728654,-4.559368744,-1.454525299,1.275796967,4.952892598
14.64722654,-3.681743774,-2.354304199,2.054028625,4.828769934
14.65716654,-2.883154449,-3.122207336,2.240840149,4.804385788
14.66710554,-2.170187073,-3.501069489,1.662442932,4.441949572
14.67704554,-1.744322662,-3.395239563,0.5318440247,3.853981228
14.68698454,-1.321601715,-2.919828186,-0.6532415771,3.270894723
14.69692454,-0.8963360596,-2.335892487,-1.537901917,2.936827258
14.70686354,-0.8412506104,-1.828447723,-1.801803131,2.70137339
14.71680354,-1.012644196,-1.350341949,-1.716031494,2.406997245
14.72674254,-1.126557312,-0.9292675781,-1.582808533,2.153590597
14.73668254,-1.159039764,-0.5933660889,-1.329535217,1.860946099
14.74662254,-1.083147583,-0.3067121887,-0.9984237671,1.504702985
14.75656154,-1.068927155,0.1218466187,-0.1758842468,1.090131702
14.76650154,-1.003064117,0.6032455444,0.9252259827,1.492007349
14.77644054,-0.576151886,0.83661026,1.698368225,1.978970023
14.78638054,-0.02739303589,0.6620732117,2.198478241,2.296170266
14.79631954,0.3815565491,-0.408949585,3.456911316,3.501865361
14.80625954,1.125359802,-2.597398682,5.088368683,5.822749389
14.81619854,2.621797943,-4.713847504,5.63742691,7.802228202
14.82613854,3.931873627,-5.548362122,4.484225006,8.145687592
14.83607854,5.652844849,-6.064039764,2.70876709,8.721505162
14.84601754,8.159232788,-8.137078857,2.352657623,11.76095787
14.85595754,11.42020157,-11.06693619,2.13770462,16.04580511
14.86589654,15.312258,-13.97987869,1.599723358,20.79570552
14.87583654,20.34149963,-17.77643372,3.716022491,27.26879217
14.88577554,24.32247116,-21.27989822,5.45959671,32.77535458
14.89571554,26.52214691,-23.50756577,4.009113007,35.66655173
14.90565454,29.51786728,-26.30405045,5.899232483,39.97509853
