Time (s),Acceleration x (m/s^2),Acceleration y (m/s^2),Acceleration z (m/s^2),Absolute acceleration (m/s^2)
4.971336667,20.85508163,-1.557960205,0.2053729248,20.91420207
4.981276667,27.29693573,-2.340682526,0.9991722107,27.41532126
4.991216667,31.31113815,-2.646197205,0.9377998352,31.43674921
5.001156667,33.08809296,-1.22864502,1.005758514,33.12616812
5.011097667,31.89208008,0.1996847534,1.314117279,31.91976739
5.021037667,27.42506927,-1.059646454,3.868854675,27.71687774
5.030977667,22.63697617,-3.320844269,5.063520355,23.43288149
5.040917667,16.22461075,-3.789220276,4.027524719,17.14109505
5.050857667,13.10330154,-0.1748364258,3.773053894,13.63682569
5.060797667,23.47029327,0.3079096985,2.892884216,23.64991023
5.070737667,24.04973831,-1.981429596,4.744833069,24.59327991
5.080677667,18.33836517,-3.631598053,10.7561824,21.56802266
5.090617667,14.62773148,-2.390678558,12.27866638,19.24711719
5.100557667,8.309370575,2.908451843,-10.63209045,13.8038429
5.110498667,1.873054962,4.419858856,-12.70947052,13.58580613
5.120438667,2.995720367,2.53677475,-9.221274261,10.02204897
5.130378667,2.195334778,1.481918335,-6.084996185,6.636471601
5.140318667,1.557062073,0.5074447632,-3.658392334,4.008213686
5.150258667,0.8164022827,0.02709365845,-2.711611176,2.831974915
5.160198667,0.232616272,-0.309256897,-1.927391968,1.965856036
5.170138667,-0.3354524231,-0.5566923523,-1.60885437,1.735179267
5.180078667,-1.016985168,-0.4721182251,-1.35617981,1.759652843
5.190018667,-0.8794212341,-0.3134481812,-0.7212002563,1.179729324
5.199958667,-0.3626957703,-0.2790197754,0.113613739,0.4714958521
5.209899667,-0.163460083,-0.4334985352,1.066532135,1.162811667
5.219839667,-0.09340576172,-0.5637277222,1.523831177,1.627444327
5.229779667,0.5089416504,-1.046623535,1.697320404,2.057993922
5.239719667,0.7822732544,-1.718276825,1.853296051,2.645587448
5.249659667,0.4984634399,-2.17871933,1.760189667,2.844916762
5.259599667,0.1312770081,-1.977537689,0.9782157898,2.210157256
5.269539667,0.03787124634,-0.6459068298,0.3632945251,0.7420328673
5.279479667,1.182091827,1.485510864,0.8216413879,2.068617458
5.289419667,3.673510895,2.110760651,0.9822573853,4.349117426
5.299359667,7.58682312,0.3712280273,0.9562115479,7.655849778
5.309300667,12.46877106,-0.8530760193,1.434017944,12.57992042
5.319241167,18.72725647,0.05882766724,2.42211319,18.88333201
5.329181167,27.73088333,2.438129883,3.551813965,28.06353061
5.339121167,35.69492203,3.601211243,4.486320648,36.15554251
5.349061167,35.85329269,3.000360718,4.417613525,36.24880785
5.359001167,29.61127304,0.5891748047,3.759731598,29.8548187
5.368941167,23.97384613,-2.795736237,3.101550293,24.33477047
5.378881167,21.12691635,-3.150348816,3.037932587,21.57545658
5.388821167,19.50264404,-2.54845047,2.248174896,19.79651522
5.398761167,16.34780457,-1.087488556,1.258133698,16.43217106
5.408702167,18.94041321,-1.047970734,0.325872345,18.97218195
5.418642167,22.18521561,-3.400478668,0.7324269104,22.45625739
5.428582167,17.76266235,-4.955445099,7.909552002,20.06563288
5.438522167,14.97321304,-6.304140472,16.36097717,23.05690504
5.448462167,8.267008667,0.5385800171,-4.861141205,9.605425266
5.458402167,1.357976074,7.526648254,-16.48447037,18.17229474
5.468342167,0.4308041382,3.852239227,-13.96446075,14.49246368
5.478282167,1.035097504,3.221450958,-9.736053772,10.30727491
5.488222167,0.1640588379,1.242416382,-5.575006714,5.714124047
5.498162167,-0.3833528137,0.6134243774,-2.943628693,3.031204171
5.508103167,-0.8009843445,0.3315605164,-2.092049561,2.264548445
5.518043167,-1.305884399,0.3402424622,-0.5495072937,1.457071468
5.527983167,-2.287842407,1.666035461,0.390687561,2.857014842
5.537923167,-0.9892927551,0.4158352661,1.345851288,1.721317755
5.547863167,-0.2209405518,0.7574249268,1.892514496,2.050394685
5.557803167,-0.333356781,1.080453186,0.7882608032,1.378354426
5.567743167,-0.5554948425,0.9734257507,0.6414161682,1.291335322
5.577683167,-0.5626799011,0.889151001,1.038240967,1.478222743
5.587623167,-0.6081852722,1.639390869,0.01796264648,1.748660746
5.597563167,0.3586541748,-1.321751404,2.410587158,2.772470025
5.607504167,0.02784210205,-1.000519409,2.055675201,2.286397779
5.617444167,-0.07963439941,-0.7194039917,2.026336212,2.151725397
5.627384167,0.6659651184,-0.398770752,2.617606659,2.730273296
5.637324167,3.246448975,-0.1161584473,2.527194672,4.115778983
5.647264167,7.918683014,0.2805166626,2.058818665,8.186755436
5.657204167,12.50304977,0.4140390015,1.476978607,12.59679117
5.667144167,22.28954865,-2.54845047,2.430795135,22.5660662
5.677084167,30.00495438,-3.149750061,0.885408783,30.18281235
5.687024167,37.42996399,-3.983067169,0.3388952637,37.64281974
5.696964167,36.62718338,-3.899391174,1.483415222,36.86402494
5.706905167,30.50596252,-3.394191742,2.093995514,30.76555061
5.716845167,26.00257736,-4.306843872,3.488345947,26.58667883
5.726785167,22.29433868,-4.43348053,4.864733734,23.24562155
5.736725167,18.98277512,-2.686164093,4.236340485,19.63435279
5.746665167,19.86968079,0.2477348328,4.610262909,20.39902231
5.756605167,25.26805481,0.4842430115,2.949616241,25.44423945
5.766545167,20.81032471,-0.7926017761,3.450025635,21.10925174
5.776485167,16.18165009,-1.349743195,7.338190155,17.81899663
5.786425167,13.61927856,-3.750750275,14.23524765,20.05480371
5.796366167,8.085436249,-0.7515870667,5.346881104,9.722566533
5.806306167,2.251617737,1.983974304,-16.8715654,17.13638397
5.816246167,-0.9196875,3.545077972,-13.29400497,13.78927015
5.826186167,0.7030879211,3.989054718,-10.52566177,11.27814018
5.836126167,-0.3984713745,4.357288971,-6.393504639,7.74736395
5.846066167,-0.8900491333,4.490960999,-3.556753693,5.79753525
5.856006167,-1.214274902,3.324586487,-2.341281281,4.243693778
5.865946167,-1.494941254,1.469045105,-0.8931925964,2.278318653
5.875886167,-0.9981243896,-0.3995191956,-0.8261320496,1.355862105
5.885826167,0.07454498291,-2.174378357,-0.5614823914,2.246940291
5.895767167,1.019679565,-3.089275818,-0.1243913269,3.25558669
5.905707167,1.101858673,-2.795736237,0.120050354,3.007431749
5.915647167,0.5086422729,-1.881736908,0.2920426941,1.971025035
5.925587167,0.2192939758,-0.9735754395,0.1648072815,1.011484268
5.935527167,-0.2053729248,-0.5297483826,0.4363426208,0.7163841636
5.945467167,-0.7961943054,-0.3171903992,0.5177732849,1.001311288
5.955407167,-1.082698517,-0.33230896,0.3466790771,1.184420409
5.965347167,-0.7584727478,-0.2674937439,0.705333252,1.069733055
5.975287167,0.5255570984,-0.3450325012,1.49658783,1.623278418
5.985227167,3.071762238,-0.5980064392,1.676214294,3.550074549
5.995168167,6.97953598,-0.826431427,2.098486176,7.334886204
6.005108167,12.41802658,-0.9107061768,1.861079865,12.58969373
6.015048167,18.90014694,-0.2773731995,1.308429108,18.94741347
6.024988167,27.30861145,1.850152588,0.01960922241,27.37122044
6.034928167,36.4146254,3.611689453,-0.2878514099,36.5944272
6.044868167,39.7974408,2.101779327,0.5108876038,39.85617614
6.054808167,34.36867996,-1.852996674,1.191073151,34.4391988
6.064748167,26.18160507,-5.537883911,2.62568985,26.88938172
6.074688167,20.29704208,-6.253994751,3.119962006,21.46663762
6.084628167,17.50923935,-4.056264954,3.449726257,18.30102072
6.094569167,18.89161469,-1.21098175,3.800147552,19.30804764
6.104509167,25.62087112,-1.229692841,3.473227386,25.88444495
6.114449167,22.44342865,-2.563269653,6.258186035,23.44019482
6.124389167,18.62352219,-4.227658539,11.633508,22.36173481
6.134329167,12.99118469,-1.686842194,7.696994019,15.19407889
6.144269167,4.891827393,4.140689392,-10.09994705,11.9617814
6.154209167,1.801803131,3.877985687,-8.392896881,9.419447201
6.164149167,0.8261320496,2.714006195,-6.762038269,7.333040661
6.174089167,-0.1383123779,1.500629425,-3.722908173,4.016349617
6.184030167,-0.2071691895,0.8584648132,-2.443368988,2.598063302
6.193970167,-1.071172485,0.7346722412,-2.268233185,2.613816286
6.203910167,-1.265767822,0.6551875305,-2.817291412,3.157304195
6.213850167,-1.152752838,0.5598358154,-3.017125854,3.278003
6.223790167,-0.7964936829,0.3112028503,-2.903212738,3.026531613
6.233730167,0.1996847534,0.01077758789,-2.378853149,2.387243696
6.243670167,0.6418652344,-0.3776646423,-1.466949463,1.645163301
6.253610167,0.8309220886,-0.6375242615,-0.7206015015,1.271273073
6.263550167,1.015937347,-0.7807763672,-0.4219725037,1.349000083
6.273490167,0.8982820129,-1.029559021,-0.1715432739,1.377072782
6.283431167,0.6520440674,-1.235081635,0.08622070312,1.399293436
6.293371167,0.7430548096,-1.274300079,0.5046006775,1.559035916
6.303311167,0.2368075562,-1.160237274,0.8509803772,1.458216703
6.313251167,-0.1890568542,-0.7610174561,0.9728269958,1.249512876
6.323190667,0.5002597046,0.09445358276,0.9069639587,1.040079263
6.333130667,2.853366394,1.071172485,1.085692291,3.235403842
6.343070667,6.95618454,1.111438751,0.9357041931,7.10628889
6.353010667,13.04821609,-0.02469863892,1.430425415,13.12641117
6.362950667,21.70875641,-1.27894043,1.803749084,21.82107477
6.372891667,31.82217545,-2.069745941,1.776954803,31.9388833
6.382831667,38.3653688,-2.08860672,1.264270935,38.44297312
6.392771667,34.84918076,-1.704355774,1.35378479,34.91708695
6.402711667,28.18473953,-2.062560883,2.125280457,28.33991032
6.412651667,23.0731691,-3.214415588,3.961212616,23.63037886
6.422591667,20.15408936,-2.613115997,6.040538635,21.20150466
6.432531667,17.76490768,-0.6427633667,5.52276535,18.61467236
6.442471667,24.4878772,0.5177732849,3.854484558,24.79478312
6.452411667,26.61884583,0.8952882385,4.587360535,27.02606836
6.462351667,19.13081726,-1.443598022,6.892866211,20.38587131
6.472292667,16.46935181,-4.923411713,10.68208649,20.23824359
6.482232667,10.85422852,0.2737806702,-0.6819818115,10.87907771
6.492172667,4.345313873,5.079686737,-7.877219238,10.33128999
6.502112667,1.186582489,3.920197906,-8.394842834,9.340734224
6.512052667,0.4285588074,2.231110382,-6.490203552,6.876355018
6.521992667,-0.5056484985,1.205742645,-4.360582123,4.552380935
6.531932667,-0.9451345825,0.5513035583,-3.174748077,3.358011368
6.541872667,-1.517693939,0.05313949585,-2.579286346,2.993148302
6.551812667,-1.574575653,-0.6327342224,-2.533331909,3.049165729
6.561753667,-1.140029297,-1.017434235,-2.644550629,3.054257233
6.571693667,-0.5315446472,-1.342258759,-2.194137268,2.62648751
6.581633667,0.1592687988,-0.9428892517,-2.199076996,2.397987974
6.591573667,0.5291496277,-0.7927514648,-1.757644958,1.999442426
6.601513667,1.223405914,-1.529968414,-0.2116598511,1.970361711
6.611453667,0.8184979248,-0.983454895,-0.3246748352,1.320051564
6.621393667,0.813558197,-0.8666976929,0.2110610962,1.207306348
6.631333667,0.5448669434,-0.6637197876,0.5025050354,0.9949448492
6.641273667,0.1425036621,-0.5111869812,0.6861730957,0.8674404537
6.651214667,-0.2646496582,-0.3770658875,0.9825567627,1.085189346
6.661154667,-0.4409829712,-0.1754351807,1.231040039,1.319357064
6.671094667,0.4296066284,0.04505630493,1.272054749,1.343396892
6.681034667,2.475701752,0.2814147949,1.063987427,2.709310372
6.690974667,6.32434845,0.008981323242,0.4969665527,6.343850545
6.700914667,10.9167984,-1.285227356,1.316661987,11.07076761
6.710854667,15.49023788,-2.546205139,3.489094391,16.08118186
6.720794667,20.91585526,-2.185305634,3.493135986,21.31784606
6.730734667,28.39684845,-0.2719844055,1.047821045,28.41747537
6.740674667,34.53243942,1.832639008,0.7219487,34.58856962
6.750615667,35.10170563,2.179617462,1.402733002,35.19727447
6.760555667,29.97666321,-0.1407073975,3.569626923,30.18877891
6.770495667,24.44162338,-1.513652344,5.484594727,25.09511658
6.780435667,20.55196198,-0.8020321655,5.004393311,21.16767226
6.790375667,18.80389709,0.440533905,4.081712036,19.24684362
6.800315667,23.27734451,-0.2176473999,2.861599274,23.4535901
6.810255667,24.30495758,-3.180585938,4.878355408,24.99290782
6.820195667,21.47733765,-7.910001068,12.15292786,25.91404648
6.830135667,15.9890007,-3.8963974,3.875440979,16.90707245
6.840076667,9.519005127,3.845802612,-6.121071167,11.95278915
6.850016667,4.766837311,3.117566986,-7.001689911,9.025830902
6.859956667,4.056264954,2.148482208,-7.392527161,8.70165036
6.869896667,3.124452667,1.438508606,-4.509672089,5.671741692
6.879836667,1.492246857,1.024469604,-2.328857117,2.949561683
6.889776667,0.3561094666,0.7521858215,-1.172362061,1.437717032
6.899716667,-0.7210505676,0.5281018066,-1.344055023,1.614090872
6.909656667,-1.446891174,0.2154020691,-1.44150238,2.053733487
6.919596667,-1.383123779,0.2278262329,-1.248403931,1.877085122
6.929536667,-0.9686357117,-0.08143066406,-1.221909027,1.561392893
6.939477667,-0.4209246826,-0.5213658142,-1.023272095,1.223145813
6.949417667,0.137713623,-0.9318122864,-0.4460723877,1.042218669
6.959357667,0.4402345276,-1.232686615,0.07035369873,1.310828888
6.969297667,-0.06316864014,-0.706381073,0.03682342529,0.710155238
6.979237667,0.674197998,-2.015408936,0.9568103027,2.330644133
6.989177667,0.2983296204,-2.355801086,1.511856079,2.815050288
6.999117667,-0.4117936707,-1.550026703,0.5162763977,1.68484365
7.009057667,-0.8948391724,-0.956660614,0.1429527283,1.317714748
7.018997667,-0.2627037048,0.1342707825,-0.1175056458,0.3175680342
7.028938667,2.61865448,1.222208405,-0.01781295776,2.889889612
7.038878667,6.537654877,1.370100861,0.6101312256,6.70748595
7.048818667,10.24200165,0.02155517578,0.5613327026,10.25739522
7.058758667,14.53627167,-1.939067688,1.229543152,14.71648578
7.068698667,20.60495178,-3.130589905,1.726809082,20.91283101
7.078638667,28.78124908,-2.578238525,1.258133698,28.92387445
7.088578667,36.67957443,-2.471510468,2.091450806,36.82219047
7.098518667,37.39239212,-1.556014252,3.873794403,37.62470534
7.108458667,30.0259108,-0.1910028076,4.928800507,30.42835644
7.118399667,23.17780151,-0.5786965942,4.065545654,23.53877725
7.128339667,19.38858124,0.07649093628,3.052452393,19.62754185
7.138279667,15.40416687,1.217568054,2.181114349,15.60538653
7.148219667,16.86842194,2.902913361,1.800904999,17.21086353
7.158159667,21.78404984,0.09265731812,2.108066254,21.88600822
7.168099667,18.19137085,-4.080813904,7.629035339,20.14401141
7.178039667,17.28126343,-7.034322052,12.93999115,22.70610322
7.187979667,11.14402588,-0.8319699097,-3.390599213,11.67808416
7.197919667,3.305725708,5.583838348,-10.88880661,12.67569259
7.207859667,2.714155884,2.395917664,-7.792495422,8.59244136
7.217800667,2.23365509,1.019380188,-6.082002411,6.558895056
7.227740667,1.161285095,-0.4757107544,-3.463347931,3.683702307
7.237680667,0.2838098145,-0.7607180786,-3.441493378,3.535974643
7.247620667,-0.8481362915,-1.041833496,-2.966680756,3.25667728
7.257560667,-1.644031219,-1.419947205,-1.832938385,2.842314521
7.267500667,-2.57180191,-1.031055908,-2.051633606,3.44767194
7.277440667,-1.556014252,-1.932631073,-1.74342453,3.032453183
7.287380667,-1.060993652,-2.370021515,-0.6744973755,2.6828448
7.297321667,-0.1778302002,-1.191971283,-1.034798126,1.588466645
7.307261667,0.6920109558,-0.1907034302,-0.5906716919,0.9295913128
7.317201667,1.113684082,0.5432203674,-0.4878355408,1.331677182
7.327142292,1.307530975,0.8473878479,-0.4209246826,1.613964375
7.337082292,1.218466187,0.8256829834,-0.1589694214,1.480433556
7.347022292,1.3947995,0.7355703735,0.2730322266,1.600336219
7.356962292,1.452429657,0.8737330627,1.145118713,2.045545952
7.366902292,2.237846375,1.284927979,1.491049347,2.980306102
7.376842292,4.047433319,1.58430542,1.2859758,4.532711539
7.386782292,7.166646881,1.218765564,1.120719452,7.355421749
7.396723292,11.31781448,0.2381547546,2.274220734,11.5465026
7.406663292,16.05606125,-0.746048584,4.87805603,16.79729508
7.416603292,22.25018051,-0.8512797546,5.240153046,22.87475495
7.426543292,29.71710297,-0.4781057739,4.093986511,30.00159195
7.436483292,34.40385681,-0.02874023438,4.68855011,34.72187627
7.446423292,32.73392944,-0.910556488,3.636687469,32.94790958
7.456363292,26.20869873,-2.867736511,4.089944916,26.68046947
7.466303292,23.14531906,-3.246448975,4.060605927,23.72200974
7.476243292,20.44358734,-2.502346344,2.524500275,20.75030367
7.486184292,21.57253967,-1.625170441,1.740879822,21.7036013
7.496124292,24.22158096,-1.995650024,0.4632865906,24.3080694
7.506064292,19.91892838,-1.739532623,0.2044747925,19.99578684
7.516004292,16.08435242,-2.833457794,4.540807343,16.95151342
7.525944292,14.32296524,-2.598596191,6.295757904,15.85990552
7.535884292,7.640860748,1.817670135,-1.933678894,8.088621129
7.545824292,0.8598120117,4.377946014,-11.90055267,12.70939975
7.555764292,1.152752838,2.291135559,-7.029082947,7.482389213
7.565704292,1.585053864,0.4162843323,-4.060007172,4.378281241
7.575645292,1.394200745,-0.1657054138,-2.857557678,3.183848282
7.585585292,0.7379653931,-0.02395019531,-2.480791168,2.588337566
7.595525292,-0.2496807861,0.05882766724,-2.028731232,2.044884251
7.605465292,-0.5108876038,-0.1841171265,-1.203048248,1.319935736
7.615405292,-1.001267853,0.1133143616,-1.331630859,1.669915628
7.625345292,-0.9192384338,0.1809736633,-1.568588104,1.827079474
7.635285292,-0.759969635,0.1321751404,-1.313518524,1.52327116
7.645225292,-0.3653901672,0.1618135071,-1.036444702,1.110815559
7.655165292,0.008382568359,0.03382965088,-0.6493496704,0.650284328
7.665106292,0.09654922485,-0.07619155884,-0.5831872559,0.5960153369
7.675046292,0.3589535522,-0.2344125366,-0.7213499451,0.8391320714
7.684986292,0.07170089722,-0.2986289978,-0.3406915283,0.4586840028
7.694926292,-0.1992356873,-0.03308120728,0.5174739075,0.5554893971
7.704866292,0.6406677246,0.8195457458,0.6328839111,1.217642151
7.714806292,3.062780914,2.141446838,0.3354524231,3.752192668
7.724746292,7.241940308,2.968776398,-0.2528242493,7.830916474
7.734686292,12.71979904,2.824027405,-0.06496490479,13.02968299
7.744626292,19.07393555,1.830842743,1.865271149,19.25217491
7.754567292,25.79600693,0.2101629639,3.880530396,26.08709754
7.764507292,32.88197159,-2.63736557,3.756887512,33.20081259
7.774447292,37.59402283,-4.551435242,1.659000092,37.9048598
7.784387292,33.59089737,-5.200335846,2.949915619,34.11882004
7.794327292,24.48667969,-5.176834717,4.025728455,25.34962701
7.804267292,18.18388641,-3.483555908,3.876039734,18.91593431
7.814207292,16.63206345,-1.554367676,3.309767303,17.02927341
7.824147292,20.88891129,-0.7490423584,3.498075714,21.19302274
7.834087292,23.18244186,-0.4724176025,2.896776123,23.36750096
7.844028292,18.41904739,0.1989363098,2.895578613,18.64632023
7.853968292,15.57106979,-0.7970924377,4.25325531,16.16118039
7.863908292,12.79643967,-1.231189728,3.752097473,13.39189799
7.873848292,6.4179039,1.383722534,-3.854035492,7.612999941
7.883788292,0.8767268372,3.073408813,-10.19934036,10.68835981
7.893728292,-0.01077758789,1.308279419,-7.244634705,7.361823361
7.903668292,0.21061203,0.2149530029,-6.428082733,6.435123141
7.913608292,0.3278182983,0.2683918762,-5.447322235,5.46377329
7.923548292,-0.2022294617,0.5397775269,-5.141208801,5.173420964
7.933489292,-1.152752838,0.6050418091,-4.735252991,4.91096076
7.943429292,-1.05306015,0.02305206299,-4.091142426,4.224560737
7.953369292,-0.5983058167,-0.5080435181,-3.234473877,3.328347837
7.963309292,-0.2071691895,-0.7551795959,-2.541714478,2.659610457
7.973249292,-0.2436932373,-0.5282514954,-1.484313354,1.594246584
7.983189292,-0.1380130005,0.136665802,-0.466280365,0.5051163317
7.993129292,-0.04490661621,0.8331674194,0.7408094788,1.115788168
8.003069292,0.1514849854,1.4438974,1.330732727,1.969425549
8.013009292,0.48559021,1.809886322,1.422192535,2.352470607
8.022950292,0.367635498,1.607956238,1.718127136,2.381730459
8.032890292,0.3938310242,1.344803467,1.62996048,2.149504688
8.042830292,1.285377045,1.113983459,1.760788422,2.448168532
8.052770292,3.70913681,0.8388555908,0.8907975769,3.905751516
8.062710292,7.336693268,0.1046324158,0.6312373352,7.364541847
8.072650292,12.51712051,-0.7994874573,1.182391205,12.5982354
8.082590292,19.90081604,-1.412013702,1.276096344,19.99161533
8.092530292,30.01333694,-1.572330322,2.534679108,30.16118723
8.102470292,41.1696373,-2.259850616,3.192710724,41.35504034
8.112411292,41.58008377,-3.939058685,3.915856934,41.94941579
8.122351292,28.81792282,-6.440955963,4.625531158,29.88903023
8.132291292,18.54598343,-6.723418579,4.664300537,20.27100289
8.142231292,15.36225403,-3.946094055,4.574337616,16.50742475
8.152171292,20.2835701,-3.326981506,4.789440308,21.10523064
8.162111292,26.89097992,-2.042652283,4.63241684,27.36341563
8.172051292,22.65838165,-0.4674778748,3.801345062,22.97979589
8.181991292,16.06983261,-0.7403604126,3.183130646,16.39877966
8.191931292,13.13997528,-1.024170227,3.660487976,13.67870781
8.201872292,10.70753357,-0.3686833191,2.672392731,11.04214134
8.211812292,6.39455246,2.415826263,-3.829187164,7.835125528
8.221752292,1.925296326,3.339106293,-7.774981842,8.677945576
8.231692292,0.2487826538,2.17048645,-6.78883255,7.131700473
8.241632292,0.1333726501,1.476828918,-6.031707001,6.211304312
8.251572292,-0.2405497742,1.094673615,-5.961353302,6.065798192
8.261512292,-0.8400531006,1.092727661,-5.410349121,5.583155073
8.271452292,-1.137634277,1.137035522,-4.500990143,4.779746206
8.281392292,-0.583636322,0.9571096802,-3.614533539,3.784381455
8.291333292,-0.1336720276,0.7243437195,-2.489473114,2.596154545
8.301273292,0.4369413757,0.703686676,-1.316961365,1.55578917
8.311213292,0.7972421265,0.456101532,-0.417481842,1.00891759
8.321153292,0.7003935242,0.2757266235,0.1429527283,0.7661669153
8.331093292,0.7033872986,0.2998265076,0.4659809875,0.8954261037
8.341033292,0.8599617004,0.1209484863,0.5007087708,1.002433008
8.350973292,0.7246430969,-0.167202301,0.5807922363,0.9436015309
8.360913292,0.3429368591,-0.4584965515,0.570763092,0.8084524008
8.370853292,0.3067121887,-0.1914518738,0.672102356,0.7631826541
8.380794292,0.943787384,0.3787124634,0.8741821289,1.341026529
8.390734292,2.887196045,0.8927435303,0.8665480042,3.143850737
8.400674292,6.009104004,0.3318598938,1.09871521,6.117731363
8.410614292,10.21999741,-1.620081024,2.252515869,10.58994038
8.420554292,15.82703751,-3.208877106,3.704197083,16.56843639
8.430494292,22.97257828,-3.450474701,4.768633575,23.7146578
8.440434292,29.62998413,-2.950364685,4.919669495,30.18018819
8.450374292,31.55019104,-2.607876892,6.363267517,32.2909701
8.460315292,27.71307037,-2.893033905,6.408473511,28.59112533
8.470255292,23.10041245,-4.122577057,7.03566925,24.49745576
8.480195292,22.4347467,-4.471501465,6.887627106,23.89040795
8.490135292,24.17832092,-3.919000397,7.000791779,25.47471005
8.500075292,27.00294708,-2.708318024,6.857389984,27.99139037
8.510015292,24.71330841,-2.165696411,5.185516663,25.34417954
8.519955292,20.66662354,-1.357527008,2.850821686,20.9064438
8.529895292,16.39360931,-0.3300636292,1.078656921,16.43237259
8.539835292,13.03249878,-0.02409988403,1.506167908,13.11926625
8.549775292,10.99733093,0.5857319641,2.813399506,11.3665996
8.559716292,8.15788559,2.116448822,1.755848694,8.608917327
8.569656292,4.517904968,2.433489532,-2.98015274,5.934193034
8.579596292,1.903890839,1.767674103,-8.808283081,9.183426533
8.589536292,0.1995350647,1.281634827,-10.74435699,10.82236616
8.599476292,0.133971405,1.162632294,-8.718020782,8.796223539
8.609416292,-0.6610253906,0.969533844,-6.20729187,6.317232211
8.619356292,-1.948797455,0.7643106079,-3.98995285,4.505741445
8.629296292,-2.076332245,0.7602690125,-2.103575592,3.051916584
8.639236292,-1.780547333,0.5551954651,-1.068627777,2.149547891
8.649177292,-0.87522995,0.2149530029,0.1901046753,0.9210711408
8.659117292,-0.1872605896,-0.01841171265,1.507515106,1.519212729
8.669057292,0.2152523804,-0.08577163696,1.780547333,1.795560961
8.678997292,0.5610333252,0.06900650024,0.9069639587,1.068692618
8.688937292,0.7749385071,0.4665797424,-0.9927355957,1.343037717
8.698877292,1.332528992,-1.229393463,0.2785707092,1.834296443
8.708817292,0.63887146,-0.4909790039,-1.536554718,1.734997846
8.718757292,0.5637277222,-0.4781057739,-2.147434387,2.271089722
8.728698292,1.297052765,0.3366499329,-1.611848145,2.096123444
8.738638292,3.40257431,1.267264709,-0.5728587341,3.675818128
8.748578292,7.225025482,1.229393463,-0.9804611206,7.394166993
8.758518292,12.24618393,0.1615141296,0.5252577209,12.25850739
8.768458292,19.68466553,-0.1592687988,4.332290955,20.15639274
8.778398292,29.41218704,0.9199868774,6.022126923,30.03646343
8.788338292,37.07924332,1.220711517,7.254364471,37.80193415
8.798278292,34.92402512,-0.9966275024,7.412735138,35.71595496
8.808218292,27.00758743,-2.877017212,4.927602997,27.6037729
8.818159292,21.47643951,-3.863166504,4.953948212,22.37639633
8.828099292,18.53385864,-5.110821991,5.92063797,20.11661929
8.838039292,23.09352676,-4.423301697,5.62575119,24.17696533
8.847979292,28.04073898,-3.611689453,5.516478424,28.80553554
8.857919292,23.10385529,-3.677103424,5.077441406,23.93929051
8.867859292,18.00306244,-2.177072754,4.589905243,18.70607209
8.877799292,15.58244614,-0.5158273315,4.855153656,16.32945873
8.887739292,11.4450499,1.286275177,2.899620209,11.8765091
8.897679292,7.368277588,3.206931152,-1.99969162,8.280983553
8.907620292,3.727548523,3.179837494,-5.832621002,7.617443944
8.917560292,1.866917725,1.930834808,-6.370602264,6.913615412
8.927500292,0.9208850098,0.5301974487,-6.67297348,6.757049179
8.937440292,0.2580633545,-0.3791615295,-6.121370544,6.138528936
8.947380292,-0.3761677551,-0.3071612549,-5.231620789,5.254113274
8.957320292,-0.7545808411,0.2314187622,-4.19592453,4.269511629
8.967260292,-0.949176178,0.8120613098,-3.18851944,3.424475902
8.977200292,-0.6878196716,1.253044281,-2.179168396,2.60614481
8.987140292,0.09954299927,1.432521057,-1.718276825,2.239308071
8.997081292,0.7424560547,1.289568329,-1.031954041,1.81084417
9.007021292,0.8340655518,1.013542328,-0.5586383057,1.42653782
9.016961292,0.7908055115,0.6185137939,-0.2644999695,1.038216213
9.026901292,0.7529342651,0.1613644409,-0.1410067749,0.7828354878
9.036841292,0.7469467163,-0.1983375549,-0.3073109436,0.8316893643
9.046781292,0.7614665222,-0.6050418091,-0.193996582,0.9917366228
9.056721292,0.1480421448,-0.9289682007,-0.3234773254,0.9947542282
9.066661292,-0.4581971741,-1.024170227,-0.4806504822,1.220612219
9.076601292,-0.2987786865,-0.5370831299,-0.209564209,0.6493413198
9.086542292,1.003064117,0.4730163574,0.4314028931,1.189954013
9.096482292,3.456013184,1.403930511,1.204545135,3.919946044
9.106422292,6.835086365,1.697021027,1.997446289,7.320387808
9.116362292,10.56188644,1.182840271,2.062411194,10.82617644
9.126302292,14.72487946,0.08217910767,3.30078598,15.09052738
9.136242292,20.46619034,-0.5649252319,4.19831955,20.89999939
9.146182292,29.15172867,-0.8783734131,3.190465393,29.33894841
9.156122292,36.70053085,-2.029779053,3.482358398,36.92121054
9.166063292,35.36680435,-4.276457062,4.195625153,35.87063152
9.176003292,28.10450638,-6.561904449,4.296665039,29.1784715
9.185943292,22.8143573,-6.609505463,4.96113327,24.26506346
9.195883292,23.82131332,-5.532794495,5.872587891,25.15062766
9.205823292,29.71545639,-3.711082764,5.89249649,30.52051767
9.215763292,27.28975067,-3.209775238,6.568341064,28.25201326
9.225703292,21.69992477,-1.966011658,7.194938049,22.94600337
9.235643292,18.45302673,-0.3411405945,7.670648804,19.98673124
9.245583292,13.93542114,1.793121185,3.013832703,14.36991418
9.255524292,9.047485657,4.28947998,-3.016676788,10.45738849
9.265464292,4.925507355,3.854334869,-3.973936157,7.410039714
9.275404292,3.361409912,1.639989624,-4.074377289,5.530749755
9.285344292,2.153421936,-0.5764512634,-3.868106232,4.464500858
9.295284292,1.121318207,-1.686243439,-3.814367981,4.318584786
9.305224292,0.2146536255,-1.800306244,-3.673061829,4.096164297
9.315164292,-0.553099823,-1.585353241,-3.449726257,3.836649002
9.325104083,-0.9228309631,-1.529070282,-3.338806915,3.786463328
9.335044083,-0.7532336426,-1.343007202,-3.391347656,3.724549394
9.344985083,-0.05433700562,-0.6947053528,-3.212020569,3.286737618
9.354925083,1.065035248,0.5287005615,-2.685715027,2.937156715
9.364865083,1.597777405,1.38072876,-1.960024109,2.881145441
9.374805083,1.648970947,1.516945496,-1.105451202,2.498449756
9.384745083,1.166823578,1.880090332,-0.5331912231,2.276073329
9.394685083,1.228345642,0.7813751221,0.3245251465,1.491541709
9.404625083,0.5562432861,0.333356781,0.689765625,0.9467364756
9.414565083,0.006137237549,0.1722917175,0.06122268677,0.1829489519
9.424506083,-0.3796105957,-0.237406311,-0.2486329651,0.5121370053
9.434446083,-0.7506889343,-0.2251318359,-0.4822970581,0.9202329444
9.444386083,-0.3559597778,0.05224136353,-0.2011816406,0.4122021058
9.454326083,1.270857239,0.6077362061,0.3691323853,1.456255519
9.464266083,4.142335968,1.221160583,1.169817352,4.474220947
9.474206083,7.747738495,1.334474945,1.914518738,8.091579398
9.484146083,12.24289078,0.9440867615,3.231330414,12.69728989
9.494086083,18.58056152,0.6481521606,3.787873077,18.97380695
9.504026083,27.75573166,0.6204597473,1.461560669,27.80111095
9.513967083,36.50713303,-0.1269360352,-1.248104553,36.52868242
9.523907083,35.57936234,-2.605631561,0.5358856201,35.67867029
9.533847083,27.04590775,-5.846841431,2.826272736,27.81464539
9.543787083,21.95454529,-6.653813324,3.152145081,23.15623694
9.553727083,19.98060013,-6.120322723,3.347937927,21.16344537
9.563667083,25.94913849,-3.941154327,3.82155304,26.52347551
9.573607083,30.17769516,-3.541485443,6.394851837,31.05043533
9.583547083,24.72528351,-4.295317841,10.33316208,27.13970594
9.593488083,18.09631851,-0.3755690002,1.630259857,18.17348461
9.603428083,12.30156876,3.689826965,-2.876418457,13.16120055
9.613368083,7.878117371,4.205654297,-2.834505615,9.369454811
9.623308083,4.733905792,2.913990326,-3.151396637,6.390031646
9.633248083,3.870501251,0.5090913391,-1.787433014,4.293584832
9.643188083,2.98374527,-0.2110610962,-1.722617798,3.451766895
9.653128083,1.025218048,-0.6134243774,-2.78600647,3.031368266
9.663068083,-0.6626719666,-0.9592053223,-3.638334045,3.820560641
9.673008083,-1.518292694,-1.09991272,-3.691473541,4.140289555
9.682949083,-2.48528183,-0.7670050049,-3.26800415,4.176694097
9.692889083,-2.978955231,0.4219725037,-2.821782074,4.12488656
9.702829083,-2.165097656,1.440155182,-2.875969391,3.877227714
9.712769083,-1.474134521,1.502276001,-1.620380402,2.656226349
9.722709083,-0.3772155762,1.58550293,-1.100511475,1.966529084
9.732649083,0.7982899475,1.836081848,-0.8229885864,2.164664779
9.742589083,1.500629425,1.698667603,0.0636177063,2.267467201
9.752529083,1.62756546,1.399290161,0.6632707214,2.246532958
9.762470083,1.546284485,0.7647596741,0.5441184998,1.808844385
9.772410083,1.06009552,-0.102387085,0.423918457,1.146295113
9.782350083,0.2716850281,-1.219963074,0.7447013855,1.454889277
9.792290083,-0.8722361755,-1.782343597,1.244512024,2.342296912
9.802230083,-0.7360194397,-0.776585083,1.420995026,1.778773698
9.812170083,1.747615814,0.6524931335,1.734592896,2.54729677
9.822110083,5.130281525,0.6982978821,3.191662903,6.082279222
9.832050083,10.00459534,-0.1794767761,4.578678589,11.00401915
9.841990083,15.33620819,-1.238075409,5.59880722,16.37311072
9.851931083,22.55913803,-2.554438019,3.279230804,22.93890183
9.861871083,34.19099945,-4.099824371,-3.737427979,34.63814907
9.871811083,43.41481842,-5.343138885,-6.887776794,44.28133987
9.881751083,38.85410248,-6.353388062,0.1187031555,39.37030492
9.891691083,28.34700211,-6.248156891,4.598587189,29.38943683
9.901631083,21.18514526,-6.486311646,3.916605377,22.49938702
9.911571083,15.71656723,-3.538940735,4.809648285,16.81271256
9.921511083,16.38477768,-0.490380249,4.917124786,17.1137234
9.931452083,27.50949371,-0.03128494263,4.958289185,27.95277902
