Time (s),Acceleration x (m/s^2),Acceleration y (m/s^2),Acceleration z (m/s^2),Absolute acceleration (m/s^2)
0.002236541652,3.996239777,-3.969295807,9.490264893,11.0358674
0.01217554166,4.111799469,-3.714076538,-4.19831955,6.951772899
0.02211554165,5.273234253,-4.022584991,-5.055586853,8.339493266
0.03205554164,8.420589294,-5.870641937,-4.186494141,11.08591422
0.04199554166,11.84202438,-8.134833527,-4.611460419,15.08889079
0.05193554165,15.00000732,-9.851014709,-5.394631805,18.73885703
0.06187454166,18.39210342,-11.30673752,-5.862558746,22.3714411
0.07181454165,22.94787964,-13.82899246,-5.626200256,27.37700389
0.08175454166,29.68836273,-17.81699936,-4.882397003,34.96687216
0.09169454165,40.26461929,-23.87175842,-0.556842041,46.81250357
0.1016345416,43.47978333,-26.21723099,10.39932449,51.82644796
0.1115735417,31.37999496,-21.55951675,32.0019516,49.73571908
0.1215135416,21.24532013,-17.69844589,8.582253113,28.95261099
0.1314535417,17.4713681,-15.22933044,-4.555776215,23.62067539
0.1413935416,14.53522385,-11.83843185,-7.715854797,20.27204026
0.1513335417,12.02659058,-9.051078186,-6.666387177,16.46212669
0.1612725416,8.706943817,-7.347919922,-3.107088776,11.8091828
0.1712125417,4.771028595,-6.350993042,0.4757107544,7.957645832
0.1811525417,3.040776672,-5.114564209,1.059347076,6.043782429
0.1910925416,3.248095551,-4.079317017,0.2700384521,5.221481858
0.2010325417,3.391946411,-3.315605164,-0.2088157654,4.747856578
0.2109715416,3.075205078,-2.406994629,-0.2266287231,3.911760473
0.2209115417,2.369871826,-1.209035797,0.2371069336,2.67100725
0.2308515417,1.425485687,0.5915698242,0.4393363953,1.604674662
0.2407915416,0.1881587219,2.317031708,0.6340814209,2.409584796
0.2507315417,-0.4890330505,2.892584839,0.9274713135,3.076752088
0.2606705416,-0.5197192383,2.729873199,0.872535553,2.91266786
0.2706105417,-0.2880010986,2.370769958,0.6042933655,2.463466115
0.2805505416,-0.2356100464,1.828148346,-0.1913021851,1.853168906
0.2904905417,-0.1368154907,1.234782257,-1.129700775,1.679175257
0.3004305417,-0.0940045166,0.8482859802,-1.585053864,1.800228237
0.3103705416,-0.2713856506,0.7216493225,-1.676214294,1.845026362
0.3203095417,-0.537532196,0.7379653931,-1.646126862,1.882356881
0.3302495416,-0.7450007629,1.038240967,-1.121617584,1.700293047
0.3401895417,-0.7429051208,1.844913483,0.3580554199,2.020845729
0.3501295416,-0.02200424194,1.953138428,1.381477203,2.392428299
0.3600695417,0.7453001404,1.605112152,2.380499725,2.966249528
0.3700085416,1.253044281,0.8086184692,3.925137634,4.198891431
0.3799485417,1.971400452,-0.7140151978,5.879772949,6.242432809
0.3898885417,2.670596466,-2.165397034,6.356830902,7.227055342
0.3998285416,3.419189758,-2.906954956,2.234104156,5.013229209
0.4097685417,3.788322144,-3.069666595,-2.610720978,5.530831917
0.4197075416,5.004093933,-3.649560699,-3.516487427,7.122214067
0.4296475417,7.754923553,-5.018913116,-3.469934235,9.867561593
0.4395875417,11.97345108,-7.59849884,-3.321443024,14.56477597
0.4495275416,16.07073074,-9.731263733,-3.970942383,19.20245463
0.4594675417,20.91405899,-12.00758011,-4.557871857,24.54290202
0.4694065416,29.11505493,-16.17671036,-4.109404449,33.55979122
0.4793465417,40.31237,-21.87281525,-0.8331674194,45.87157496
0.4892865416,50.47623413,-27.44363068,8.000263367,58.00868289
0.4992265417,41.89323257,-27.78626816,18.73309433,53.64744595
0.5091665417,23.79392029,-20.92798004,9.481283569,33.07605976
0.5191065416,17.27841934,-16.43642029,-0.7988887024,23.86080279
0.5290455417,14.06714722,-13.57571915,-6.221661987,20.51569787
0.5389855416,10.18976028,-11.43277542,-5.034780121,16.12106012
0.5489255417,6.277346191,-9.536668396,-1.07416626,11.46764808
0.5588655417,5.938750305,-7.296876068,-0.4314028931,9.418028668
0.5688045417,6.060447235,-5.118456116,-1.665287018,8.105602664
0.5787445416,5.080135803,-3.350482635,-2.737207947,6.672767118
0.5886845417,4.062252502,-2.101180573,-3.349584503,5.66891273
0.5986245417,2.553240509,-1.169817352,-2.766546936,3.942244498
0.6085645416,1.434916077,-0.1148112488,-1.194965057,1.870857359
0.6185045417,0.992585907,0.903072052,0.5819897461,1.46269545
0.6284435416,0.8196954346,1.59837616,1.798959045,2.542235355
0.6383835417,0.5620811462,2.338137817,2.370769958,3.376888192
0.6483235417,0.2665956116,2.916684723,2.168839874,3.644446377
0.6582635416,0.08517288208,3.0058992,1.161434784,3.223602826
0.6682035417,-0.1178050232,2.793341217,-0.2439926147,2.806450708
0.6781425416,-0.3917353821,2.719694366,-1.19930603,2.998087559
0.6880825417,-0.6661148071,2.778671722,-1.2859758,3.133442075
0.6980225416,-0.7845185852,2.875220947,-0.56866745,3.034097489
0.7079625417,-1.240769806,3.062930603,1.175206146,3.507443952
0.7179025417,-1.758393402,2.863844604,3.189716949,4.633340857
0.7278415417,-1.263821869,2.115999756,3.874991913,4.592413636
0.7377815417,0.06092330933,1.310225372,2.818039856,3.108335697
0.7477215416,0.9198371887,0.6251000977,1.026265869,1.513298457
0.7576615417,1.020577698,-0.04281097412,-0.5373825073,1.154206037
0.7676015417,0.8587641907,-0.6985972595,-1.265618134,1.68145869
0.7775405417,1.196012878,-1.124162292,-1.037193146,1.941637785
0.7874805417,2.009421387,-1.960473175,0.2827619934,2.821556968
0.7974205417,4.025878143,-4.087699585,5.427114258,7.897502889
0.8073605417,5.207969971,-4.869673462,4.409530334,8.383354258
0.8173005416,4.892276459,-3.862717438,-2.663261719,6.778489355
0.8272395417,6.066734161,-4.087250519,-4.696034546,8.692733784
0.8371795416,8.898395691,-5.307962036,-4.676125946,11.36758817
0.8471195417,13.48111588,-7.294481049,-5.44328064,16.26589202
0.8570595417,21.11778534,-10.96709381,-5.550757141,24.43458428
0.8669995416,37.29479507,-17.66551437,-0.5054988098,41.2701789
0.8769385417,43.52992905,-21.83524338,-5.693111115,49.03105231
0.8868785416,54.44852371,-27.17449036,4.514761505,61.0203059
0.8968185417,45.61868546,-27.45710266,19.32496353,56.6428386
0.9067585416,25.01298523,-20.99818405,6.853348389,33.36976997
0.9166985417,18.96765656,-17.2564151,-2.393372955,25.75430239
0.9266385417,13.23832077,-14.75496689,-4.298161926,20.28389461
0.9365775417,7.273824005,-12.77698013,0.04550537109,14.70244224
0.9465175417,6.578669586,-10.37732025,0.1236428833,12.28751223
0.9564579583,7.464228058,-8.357270966,-1.478026428,11.30235553
0.9663979583,6.814728699,-6.620432739,-1.497785339,9.618420755
0.9763379583,5.773493958,-5.142705688,-1.646575928,7.90517973
0.9862769583,4.912185059,-3.735182648,-2.020348663,6.493301178
0.9962169583,4.132456512,-2.476001129,-2.046544189,5.234130447
1.006156958,3.178939362,-1.460363159,-1.76213562,3.917070074
1.016096958,1.992057495,-0.5909710693,-0.9470805359,2.283528281
1.026036958,0.7897576904,0.5936654663,1.024020538,1.422945522
1.035975958,0.1649569702,1.881287842,2.651136932,3.254993361
1.045915958,0.03158432007,2.623743896,2.054028625,3.332275979
1.055855958,-0.1511856079,2.859503632,0.1642085266,2.868201971
1.065795958,-0.4816983032,3.187172241,-0.1724414062,3.227977105
1.075735958,-0.6831793213,4.203858032,1.972298584,4.693518727
1.085674958,-1.106049957,5.615572357,4.59140213,7.337504544
1.095614958,-1.696422272,5.791007538,2.775228882,6.641950931
1.105554958,-1.960622864,4.87221817,-0.3614982605,5.264335941
1.115494958,-0.9334588623,3.781286774,-1.989662476,4.373583414
1.125434958,0.1104702759,3.028053131,-2.606230316,3.996716891
1.135373958,0.5629792786,2.37406311,-2.690056,3.631738234
1.145313958,1.040486298,1.7902771,-1.996099091,2.876128545
1.155253958,1.152752838,1.260528717,-1.382525024,2.197532069
1.165193958,1.190773773,0.7014413452,-0.6450086975,1.525122408
1.175133958,2.432441711,-0.2953358459,4.107458496,4.782803701
1.185072958,2.685415649,-2.884202271,14.25380905,14.78854802
1.195012958,2.473905487,-4.224515076,10.76651093,11.82727752
1.204952958,2.604284363,-3.199895782,0.9868977356,4.242121781
1.214892958,2.786754913,-2.252515869,-4.328698425,5.619382595
1.224832958,4.36671936,-3.181783447,-4.000131683,6.722576691
1.234771958,7.436086578,-4.791835327,-3.671564941,9.577967348
1.244711958,12.59450958,-7.289541321,-4.395908661,15.20141761
1.254651958,20.28761169,-11.31287476,-5.577252045,23.88878532
1.264591958,30.85009689,-17.01631439,-6.782545624,35.8787731
1.274531958,45.60730911,-23.20339828,-3.053799591,51.26158433
1.284470958,57.67566284,-27.53643768,2.000440063,63.94325019
1.294410958,47.51658875,-25.65889206,5.868097229,54.31978933
1.304350958,29.66276596,-19.28140411,16.03450607,38.84272923
1.314290958,19.37855209,-15.86850128,6.354136505,25.8401367
1.324230958,14.00861893,-13.52317841,-0.7997868347,19.48736558
1.334170958,11.41376495,-11.4609169,-4.023632812,16.66782132
1.344109958,7.005432129,-9.594448242,0.4171824646,11.8871173
1.354049958,3.854634247,-7.800578613,4.346062317,9.72602126
1.363989958,4.211641846,-6.217321014,3.758085022,8.397393087
1.373929958,5.316045227,-4.818330231,1.084345093,7.256200614
1.383869958,5.396727448,-3.664379883,-1.241069183,6.640225884
1.393808958,4.508773956,-2.645448761,-2.324067078,5.720902859
1.403748958,3.343896332,-1.343156891,-2.484683075,4.377140973
1.413688958,2.175276489,0.1029858398,-2.167941742,3.072849701
1.423628958,1.277144165,1.271455994,-1.537602539,2.368948951
1.433568958,0.6210585022,2.098186798,-1.159189453,2.47625154
1.443507958,0.3188369751,2.74499176,-1.811981964,3.304529531
1.453447958,0.2960842896,3.259022827,-3.148851929,4.541383508
1.463387958,0.4225712585,3.763473816,-3.399430847,5.089050178
1.473327958,0.3344046021,4.05551651,-2.728076935,4.899126898
1.483267958,0.203127594,4.377496948,-1.250649261,4.557177188
1.493206958,-0.1086740112,5.340743866,2.370320892,5.84412322
1.503146958,-0.9084608459,6.021677856,4.773722992,7.737850898
1.513086958,-1.413809967,5.669460297,3.553610229,6.838843787
1.523026958,-1.775457916,4.471501465,1.379680939,5.005007058
1.532966958,-1.553469543,3.258873138,0.02559677124,3.610287655
1.542905958,-1.190324707,2.34951416,-0.3876937866,2.662216402
1.552845958,-0.7059320068,1.370699615,0.07005432129,1.543394001
1.562785958,-0.3552113342,0.2986289978,1.248254242,1.331725581
1.572725958,0.02035766602,-1.845961304,8.276738434,8.480117138
1.582665958,1.976938934,-5.118755493,16.89042618,17.75940432
1.592604958,3.766916656,-5.249882812,7.384743347,9.812510634
1.602544958,2.387385406,-3.016377411,-5.071753235,6.365596802
1.612484958,3.880829773,-3.486549683,-5.422623596,7.5247402
1.622424958,6.867119751,-4.94361969,-4.591252441,9.626853499
1.632364958,11.02367615,-6.64962204,-5.244643707,13.90126601
1.642304958,17.58094025,-9.448202362,-6.650370483,21.03771412
1.652243958,27.95811081,-14.83370316,-8.337661743,32.72936468
1.662183958,41.01485916,-21.74288544,-8.684041443,47.2269448
1.672123958,56.29104218,-27.72175232,-3.503314819,62.84465129
1.682063958,59.60425232,-26.99396576,21.26283371,68.80006671
1.692003958,37.63608536,-19.17722076,20.15543655,46.80258903
1.701942958,24.29163528,-14.96108826,-1.778601379,28.584631
1.711882958,18.49074829,-12.29318619,-3.977678375,22.55775087
1.721822958,10.11835876,-10.37372772,1.906285858,14.61606434
1.731762958,5.015919342,-9.3256073,4.828209686,11.6377836
1.741702958,5.581892395,-8.058492279,0.8414002991,9.838941761
1.751641958,5.929469604,-6.522835693,-0.8044271851,8.851728553
1.761581958,5.429060211,-5.00678833,-1.901795197,7.626234269
1.771521958,4.292623444,-3.447929993,-2.243384857,5.945385848
1.781461958,3.259022827,-2.199975128,-2.849923553,4.856252116
1.791401958,2.6701474,-1.171014862,-3.221750336,4.345185631
1.801340958,2.130818939,-0.007783813477,-2.293979645,3.13094116
1.811280958,1.594184875,1.179098053,-0.9919871521,2.217145946
1.821220958,1.231339417,2.380350037,0.01751358032,2.680031675
1.831160958,0.9279203796,3.892655182,1.039887543,4.134630177
1.841100958,1.127156067,5.217849426,1.412013702,5.521794648
1.851039958,1.417851562,5.515430603,-0.1106199646,5.695833088
1.860979958,1.652713165,5.589077454,-0.6216572571,5.861374014
1.870919958,2.03591629,6.637646942,2.886447601,7.518968801
1.880859958,-0.06810836792,8.710536346,10.75109299,13.83705469
1.890799958,-3.339106293,6.805597687,7.846682739,10.91037216
1.900738958,-3.026107178,4.087400208,2.565215607,5.696007041
1.910678958,-2.250869293,2.153272247,0.1710942078,3.119658182
1.920618958,-1.441801758,0.9577084351,-2.328707428,2.901529948
1.930558958,-1.15365097,0.1889071655,-3.411405945,3.606145726
1.940498958,-0.978664856,-0.3519181824,-3.162623291,3.329236758
1.950437958,-0.1231938171,-0.74065979,-2.686912537,2.789848136
1.960377542,0.8930429077,-1.479074249,-2.064955902,2.692439256
1.970317542,2.190544739,-2.889591064,-0.7444020081,3.701669505
1.980257542,4.090094604,-4.519102478,1.570833435,6.294337039
1.990197542,5.228776703,-4.861290894,1.483265533,7.291936067
2.000136542,9.213640137,-7.649542694,6.912325745,13.82703566
2.010076542,13.2047905,-9.221124573,4.74124054,16.78913316
2.020016542,15.63618439,-9.388476563,-2.836451569,18.45749744
2.029956542,21.71130112,-11.74667267,-6.522386627,25.5324586
2.039896542,36.23844177,-17.32886444,-3.731590118,40.34152909
2.049836542,51.30700653,-22.58099258,-1.647773438,56.08052516
2.059775542,56.04480423,-23.94286057,-2.52509903,60.99718664
2.069715542,45.8914183,-17.83151917,4.149970093,49.40857822
2.079655542,26.94187408,-10.85557571,11.94605804,31.40726677
2.089595542,16.96556992,-8.7615802,6.784940643,20.26403883
2.099535542,12.7296785,-8.275540924,-1.775906982,15.28669807
2.109474542,9.44850174,-6.914720764,-3.296744385,12.16371949
2.119414542,5.669909363,-5.393284607,-1.038540344,7.893918994
2.129354542,3.235671387,-4.123924255,0.9994715881,5.336221888
2.139294542,2.045945435,-2.889890442,1.178648987,3.731832381
2.149234542,1.152902527,-1.762434998,0.4984634399,2.164215137
2.159173542,1.039139099,-0.75353302,-0.3385958862,1.327504898
2.169113542,1.056053925,0.3128494263,-0.7638615417,1.340376481
2.179053542,0.8562194824,1.27774292,-0.5884263611,1.646810358
2.188993542,0.2694396973,2.115850067,0.8509803772,2.296429154
2.198933542,-0.2200424194,3.047961731,2.136357422,3.728607302
2.208872542,-0.09116043091,3.387306061,1.33971405,3.643759914
2.218812542,0.07080276489,3.347039795,0.2330653381,3.355891517
2.228752542,0.04819976807,3.521127777,0.2067201233,3.527519986
2.238692542,0.1085243225,3.892655182,0.7816744995,3.97184553
2.248632542,0.2975811768,4.321513367,1.03554657,4.453806129
2.258571542,0.3357518005,4.377946014,0.4466711426,4.413463004
2.268511542,0.09774673462,4.261338501,-0.2655477905,4.270723109
2.278451542,-0.444276123,4.165837097,-0.7352709961,4.253493086
2.288391542,-0.8583151245,3.441493378,-1.652713165,3.913060481
2.298331542,-0.9725276184,2.327809296,-2.161954193,3.322431642
2.308270542,-1.303938446,1.15020813,-1.075812836,2.044653386
2.318210542,-0.953966217,-0.2474354553,1.910926208,2.150096468
2.328150542,1.743873596,-2.986439667,9.744586029,10.3400616
2.338090542,2.699935455,-2.963986359,4.894970856,6.327369617
2.348030542,1.82889679,-1.334175568,-4.058809662,4.647453473
2.357969542,4.226760406,-2.724334717,-3.219355316,5.970908795
2.367909542,10.70483917,-6.067332916,0.9289682007,12.33973632
2.377849542,25.93851059,-13.98032776,10.69930069,31.34853954
2.387789542,32.1651123,-15.64022598,-0.8572673035,35.77633332
2.397729542,42.78926926,-19.61700623,-4.894372101,47.32550449
2.407668542,54.38251099,-23.87130936,-4.184548187,59.53828478
2.417608542,53.656371,-21.83150116,-1.971849518,57.96126968
2.427548542,39.65433838,-13.34699478,3.790567474,42.01163201
2.437488542,23.20444611,-6.74677002,7.070097656,25.17839363
2.447428542,13.42872482,-4.471052399,4.262985077,14.7815426
2.457368542,7.794591064,-3.654949493,0.8779243469,8.653615246
2.467307542,4.728666687,-3.125650177,0.5924679565,5.699210116
2.477247542,2.634970551,-3.012335815,1.232237549,4.187558506
2.487187542,1.126108246,-2.74618927,2.092648315,3.631645944
2.497127542,-0.06511459351,-2.048041077,2.90650589,3.556190188
2.507067542,-1.396595764,-1.269809418,3.22130127,3.733587759
2.517006542,-1.990710297,-0.5023553467,2.96967453,3.610298491
2.526946542,-1.573378143,0.3197351074,2.621947632,3.074468849
2.536886542,-0.2157014465,1.18298996,1.751807098,2.12481069
2.546826542,1.527274017,1.41351059,-0.08472381592,2.082728075
2.556766542,2.725232849,1.169817352,-1.748364258,3.442694337
2.566705542,2.484234009,1.266366577,-2.072440338,3.474206654
2.576645542,1.76917099,1.917063446,-1.308878174,2.918605887
2.586585542,0.7125183105,2.755170593,-0.1960922241,2.852560166
2.596525542,-0.2167492676,3.691922607,1.558409271,4.013217193
2.606465542,-1.085542603,4.772974548,3.96196106,6.297366451
2.616404542,-1.562301178,4.706662445,2.470312958,5.540388294
2.626344542,-1.518442383,3.292553101,-0.686023407,3.690149225
2.636284542,-1.127605133,2.016157379,-1.748813324,2.897366383
2.646224542,-0.8379574585,0.8271798706,-1.325493622,1.772944608
2.656164542,0.1142124939,-0.7951464844,0.9129515076,1.21605217
2.666103542,1.570384369,-2.813249817,3.85538269,5.02438626
2.676043542,2.839894409,-4.72597229,5.09690094,7.508542704
2.685983542,3.920048218,-5.52980072,2.328557739,7.167123215
2.695923542,5.154980164,-4.788991241,-2.883753204,7.604228438
2.705863542,7.880362701,-5.481301575,-3.519032135,10.2239117
2.715802542,14.50498672,-9.022936707,-0.682281189,17.09600931
2.725742542,25.12899399,-13.20404205,1.970502319,28.45515673
2.735682542,32.58424072,-14.95195724,-1.128802643,35.86876028
2.745622542,42.42672318,-17.44367569,-1.034049683,45.88439734
2.755562542,53.46387131,-19.14398987,2.359543304,56.83700668
2.765502542,51.2251268,-15.74440933,1.655557251,53.61567784
2.775441542,32.2514827,-9.193581848,1.82769928,33.58601745
2.785381542,18.69851624,-6.192023621,4.610412598,20.22947281
2.795321542,11.9387233,-5.83636322,4.673880615,14.08692335
2.805261542,7.910150757,-6.123166809,1.871707764,10.17678469
2.815201542,5.971681824,-6.097120972,0.3153941345,8.540219049
2.825140542,4.189188538,-5.82708252,0.6574328613,7.206691978
2.835080542,2.784958649,-5.558241577,1.023571472,6.300614467
2.845020542,1.871558075,-4.765041046,0.5845344543,5.152671766
2.854960542,0.6535409546,-3.636537781,0.2820135498,3.705543746
2.864900542,-0.1594184875,-2.447111206,0.3053649902,2.471237602
2.874839542,-0.2646496582,-1.337618408,-0.07634124756,1.365683138
2.884779542,0.1743873596,-0.4646337891,-1.035845947,1.14859581
2.894719542,0.5676196289,-0.04535568237,-1.851948853,1.937514834
2.904659542,0.7020401001,0.2368075562,-2.171384583,2.294307984
2.914599542,0.4697232056,0.7041357422,-2.362686768,2.509728231
2.924538542,0.1380130005,1.231189728,-2.554438019,2.839019078
2.934478542,-0.2209405518,1.785037994,-2.5122258,3.089733619
2.944418542,-0.312999115,2.441872101,-2.30745163,3.374172614
2.954358958,-0.144150238,2.988684998,-2.22317688,3.727671223
2.964298958,0.01751358032,3.280727692,-1.864672394,3.773656589
2.974237958,0.4842430115,4.056264954,1.122515717,4.23648654
2.984177958,0.7334747314,5.268593903,6.621330872,8.493414473
2.994117958,0.357456665,5.156027985,9.571695557,10.87794814
3.004057958,-0.1389111328,2.92282196,9.187743988,9.642449072
3.013997958,0.6526428223,0.4537065125,8.462352448,8.499600061
3.023936958,2.799777832,-1.813927917,6.778504028,7.554945881
3.033876958,3.290607147,-2.581082611,0.623303833,4.228308233
3.043816958,2.391726379,-1.444346466,-5.003644867,5.730877223
3.053756958,4.583318939,-2.188449097,-4.861440582,7.030627745
3.063696958,9.25181076,-4.041894836,-4.743934937,11.15517077
3.073636958,16.86482941,-7.076234894,-4.765190735,18.8998046
3.083575958,25.34080353,-9.991273041,-5.999673615,27.89225598
3.093515958,36.51925781,-14.22432037,-6.137237549,39.66929752
3.103455958,49.00943436,-18.39300156,-3.065325623,52.43685139
3.113395958,57.05894531,-20.15828064,5.223088531,60.74010349
3.123335958,45.42932922,-17.06885513,15.41180099,50.91849742
3.133274958,26.33084473,-12.8557164,7.654332733,30.28484172
3.143214958,18.44165039,-11.52782776,0.08936416626,21.7484084
3.153154958,12.27597198,-10.98760117,-1.414857788,16.53567931
3.163094958,6.860832825,-10.28421387,1.304237823,12.43129592
3.173034958,4.54694458,-8.704698486,2.172582092,10.05816055
3.182973958,4.627626801,-6.436315613,0.9157955933,7.979960529
3.192913958,4.715793457,-4.323609009,-0.250279541,6.402729312
3.202853958,4.427343292,-2.92282196,-1.312770081,5.465127823
3.212793958,4.042792969,-1.971699829,-1.933080139,4.895771035
3.222733958,3.101699982,-1.207089844,-2.04534668,3.906539608
3.232672958,1.716181183,-0.242795105,-1.796264648,2.496155845
3.242612958,0.6737489319,0.5361849976,-1.981728973,2.160713238
3.252552958,0.1676513672,0.949176178,-2.543660431,2.72015639
3.262492958,-0.2263293457,1.329086151,-2.336790619,2.697829751
3.272432958,-0.4085005188,1.801354065,-1.792821808,2.574093855
3.282371958,-0.2634521484,2.262844391,-1.483415222,2.718527633
3.292311958,-0.2841091919,2.535726929,-1.396296387,2.90865479
3.302251958,-0.3427871704,2.676134949,-1.315614166,3.00167319
3.312191958,-0.3742218018,2.611768799,-1.170865173,2.886572963
3.322131958,-0.3718267822,2.429447937,-0.9012757874,2.617779685
3.332070958,-0.506995697,2.020498352,-0.5745053101,2.160905962
3.342010958,-0.7735913086,1.450783081,-0.3417393494,1.679285814
3.351950958,-1.049018555,0.9737251282,-0.04056564331,1.43186107
3.361890958,-1.642534332,0.456101532,1.462009735,2.245756021
3.371830958,-4.267924805,-2.249671783,10.29633865,11.37061102
3.381770958,-3.097359009,-4.104913788,12.54316635,13.55636279
3.391709958,1.945055237,-2.962938538,6.409671021,7.32435166
3.401649958,3.394940186,-1.156495056,-0.8867559814,3.694514291
3.411589958,3.178490295,-0.5242098999,-5.598956909,6.459559973
3.421529958,4.183949432,-0.8048762512,-5.55554718,7.001240112
3.431468958,6.330635376,-1.387165375,-5.353018341,8.405710999
3.441408958,11.57557846,-2.869532776,-6.337521057,13.50527335
3.451348958,23.76637756,-6.314319305,-5.115462341,25.11731048
3.461288958,41.16260193,-10.98176331,-4.588558044,42.84873146
3.471228958,55.02871719,-16.13509689,-5.899831238,57.64814894
3.481168958,70.58257278,-24.66585709,10.26355682,75.46949506
3.491107958,54.25632339,-28.02023163,31.90704895,68.89805354
3.501047958,28.89935349,-20.16980667,11.80310532,37.16593909
3.510987958,21.52134613,-13.66074234,-3.124901733,25.68169059
3.520927958,15.42602142,-9.519304504,-5.732928314,19.01172697
3.530867958,9.42859314,-5.737868042,-5.710175629,12.42689036
3.540806958,5.823939056,-2.890339508,-4.587360535,7.957148062
3.550746958,2.429897003,-1.021176453,-3.066223755,4.043380876
3.560686958,-0.07424560547,0.2537223816,-2.147883453,2.164091215
3.570626958,-1.043031006,0.9189390564,-1.779499512,2.258092376
3.580566958,-1.232686615,1.159788208,-1.716181183,2.410374002
3.590505958,-1.2660672,1.289867706,-1.814676361,2.561197991
3.600445958,-1.232387238,1.356329498,-2.013163605,2.722358483
3.610385958,-1.169817352,1.521885223,-1.934577026,2.725288158
3.620325958,-1.109343109,1.936822357,-1.589993591,2.740438395
3.630265958,-1.046473846,2.300565948,-1.136586456,2.771198291
3.640204958,-1.171613617,2.669997711,-0.3953279114,2.94242254
3.650144958,-1.609602814,3.630999298,1.580114136,4.274545333
3.660084958,-2.589764557,5.146447906,4.184847565,7.120797403
3.670024958,-2.833308105,5.517526245,4.037104797,7.400604423
3.679964958,-2.779120789,5.197342072,3.065475311,6.643268461
3.689903958,-3.052153015,4.704716492,2.221230927,6.03190369
3.699843958,-2.654130707,3.608695679,-0.001796264648,4.479631406
3.709783958,-1.686842194,2.465971985,-1.381626892,3.29170887
3.719723958,-1.364562378,1.461261292,-0.2499801636,2.014895811
3.729663958,-0.6313870239,-0.2396516418,3.933669891,3.991220527
3.739602958,1.638941803,-2.08157135,8.935668182,9.320152112
3.749542958,3.662284241,-2.642604675,7.084318085,8.401383699
3.759482958,1.891017609,-0.5969586182,-1.855840759,2.715962465
3.769422958,1.360071716,-0.1178050232,-3.569776611,3.821907659
3.779362958,2.372266846,-0.3576063538,-3.703448639,4.412602873
3.789301958,4.042044525,-0.5319937134,-4.828808441,6.319693997
3.799241958,10.19799316,-2.014211426,-5.67260376,11.84206678
3.809181958,24.22652069,-5.394332428,-5.61871582,25.44785049
3.819121958,43.34251877,-10.09096573,-4.234394531,44.7027026
3.829061958,63.83235992,-17.13352066,-3.611539764,66.19041413
3.839000958,77.72766449,-24.11066162,1.577419739,81.39657292
3.848940958,57.45621918,-21.66295166,22.1733902,65.28521907
3.858880958,26.61974396,-14.99177444,18.28417786,35.6044271
3.868820958,17.60114822,-11.77975388,0.6277944946,21.18860888
3.878760958,12.67249741,-8.84345993,-5.10857666,16.27564222
3.888700958,7.780370636,-6.373895416,-5.071453857,11.264118
3.898639958,2.720293121,-4.358486481,-1.031205597,5.240208398
3.908579958,-0.7560777283,-2.953358459,1.510808258,3.402428738
3.918519958,-1.920506287,-1.959425354,0.6291416931,2.814873245
3.928459958,-2.079775085,-1.23208786,-0.6068380737,2.492339734
3.938399958,-2.123633881,-0.6014492798,-1.43805954,2.634307753
3.948338958,-2.151925049,-0.1095721436,-1.556014252,2.657812601
3.958278833,-2.20326828,0.3474275208,-1.147663422,2.508431447
3.968218833,-2.076631622,0.8529263306,-0.6048921204,2.325032623
3.978158833,-1.698667603,1.37713623,-0.1761836243,2.193858813
3.988098833,-1.232387238,1.730850677,0.02739303589,2.124940646
3.998037833,-0.9330097961,2.025887146,0.1881587219,2.238331904
4.007977833,-0.7279362488,2.211052094,0.3177891541,2.349389812
4.017917833,-0.6107299805,2.301314392,0.2140548706,2.390577028
4.027857833,-0.6011499023,2.325114899,-0.2359094238,2.413129452
4.037797833,-0.5400769043,2.30745163,-0.6545887756,2.458557006
4.047736833,-0.4492158508,2.295775909,-0.8680448914,2.495172106
4.057676833,-0.4291575623,2.333347778,-0.9589059448,2.558942883
4.067616833,-0.3550616455,2.315834198,-0.8728349304,2.500199516
4.077556833,-0.369282074,2.060165863,-0.1122665405,2.09600964
4.087496833,0.6715036011,0.9448352051,5.914351044,6.026871404
4.097435833,3.047812042,-0.8439450073,11.61644348,12.03923422
4.107375833,2.240989838,-0.6905140686,0.5486091614,2.408280952
4.117315833,1.403780823,-0.1613644409,-2.800376587,3.136677878
4.127255833,3.513942719,-1.10335556,-0.01916015625,3.683144585
4.137195833,9.630672913,-3.300486603,4.530478821,11.14308355
4.147134833,16.59164749,-4.774621124,0.9991722107,17.29387517
4.157074833,26.53651703,-6.896758118,-4.741390228,27.8250389
4.167014833,44.96843765,-10.98819992,-4.136498108,46.47592429
4.176954833,63.44631271,-15.63184341,-1.315614166,65.35686625
4.186894833,71.07235428,-18.51290222,3.86481308,73.54552244
4.196833833,46.41667603,-14.14618286,9.708511047,49.48613432
4.206773833,22.570215,-9.108109589,4.948559418,24.83667662
4.216713833,13.33891159,-6.871610413,-0.4022135925,15.0102421
4.226653833,8.538244629,-5.594017181,-1.74806488,10.35617595
4.236593833,4.954996033,-4.549189911,-0.4396357727,6.740949054
4.246532833,2.98838562,-3.566633148,0.7976911926,4.720977851
4.256472833,1.531016235,-2.623444519,1.39824234,3.343882997
4.266412833,0.2487826538,-1.965861969,1.384770355,2.417456313
4.276352833,-0.5411247253,-1.462309113,0.7188052368,1.716928909
4.286292833,-0.7851173401,-1.01683548,-0.1254391479,1.290774423
4.296232833,-0.429307251,-0.4483177185,-0.8461903381,1.049443462
4.306171833,-0.1749861145,0.1242416382,-1.140328674,1.160347194
4.316111833,-0.1178050232,0.6825805664,-1.382375336,1.546206914
4.326051833,0.03188369751,1.035845947,-1.716031494,2.004683887
4.335991833,0.01152603149,1.368304596,-1.850302277,2.301305897
4.345931833,-0.2682421875,1.745520172,-1.867815857,2.570511742
4.355870833,-0.613125,2.129322052,-1.901196442,2.919671656
4.365810833,-0.7340734863,2.489473114,-1.765728149,3.139129842
4.375750833,-0.5893244934,2.856809235,-1.23448288,3.167429611
4.385690833,-0.4724176025,3.348536682,-0.002694396973,3.381698325
4.395630833,-0.476459198,4.048032074,2.032772827,4.554749434
4.405569833,-0.8575666809,4.59140213,3.935615845,6.107820087
4.415509833,-1.349743195,3.710184631,4.919220428,6.307614947
4.425449833,-0.2456391907,1.258882141,6.294111328,6.423469488
4.435389833,2.08157135,-1.415905609,9.459578705,9.788838402
4.445329833,4.27780426,-2.580483856,6.736591187,8.386904497
4.455268833,3.459156647,-1.069825287,-1.893861694,4.086196638
4.465208833,3.337160339,-0.4553530884,-5.021008759,6.046032957
4.475148833,7.498955841,-1.843865662,-3.373235321,8.426914964
4.485088833,15.19729706,-3.575913849,-3.039429474,15.90544338
4.495028833,24.47470459,-5.434598694,-6.112987976,25.80532212
4.504967833,39.88934967,-8.594677277,-6.663842468,41.34532006
4.514907833,59.92204147,-12.62669266,-1.176403656,61.2492314
4.524847833,67.97888718,-15.1582283,8.206534424,70.13022312
4.534787833,43.14627686,-12.42685822,10.99358871,46.22647515
4.544727833,22.83980438,-9.171876984,3.287763062,24.8312178
4.554666833,17.07005264,-8.108937378,-1.261426849,18.94024182
4.564606833,11.3600267,-7.404502258,-2.190844116,13.73596223
4.574546833,6.977590027,-6.49514328,-0.4453239441,9.543163114
4.584486833,5.07235199,-4.998854828,0.3390449524,7.129674311
4.594426833,4.466861115,-3.394341431,-0.1251397705,5.611600656
4.604365833,3.436403961,-2.290087738,-0.5554948425,4.166767158
4.614305833,2.387684784,-1.257085876,-0.6616241455,2.778317843
4.624245833,1.315763855,-0.4337979126,-0.8062234497,1.602938365
4.634185833,0.2859054565,0.09984237671,-1.010847931,1.055236452
4.644125833,-0.2944377136,0.3629951477,-1.370400238,1.447914313
4.654064833,-0.4020639038,0.4480183411,-1.834435272,1.93068086
4.664004833,-0.6430627441,0.569715271,-1.715283051,1.918411094
4.673944833,-0.8792715454,0.9286688232,-1.29884903,1.822787161
4.683884833,-0.9265731812,1.300345917,-1.049168243,1.9105474
4.693824833,-1.253493347,1.665586395,-0.752485199,2.216225978
4.703764833,-1.977238312,2.116748199,-0.02335144043,2.896660072
4.713703833,-2.336341553,2.381996613,0.3561094666,3.355475177
4.723643833,-2.152374115,2.32257019,0.2649490356,3.177616184
4.733583833,-1.957778778,2.159259796,0.4098477173,2.943344316
4.743523833,-2.247276764,2.123184814,1.06249054,3.269105804
4.753463833,-2.893183594,1.936073914,2.190993805,4.113313428
4.763402833,-2.327509918,1.244811401,3.116668854,4.084174652
4.773342833,0.416434021,0.4730163574,3.80164444,3.853525946
4.783282833,3.945345612,-0.237406311,5.595813446,6.850930001
4.793222833,4.25445282,-0.04101470947,1.627415771,4.555275304
4.803162833,1.613943787,0.4691244507,-3.419938202,3.810625881
4.813101833,2.213896179,0.1326242065,-3.035836945,3.759685017
4.823041833,5.888454895,-1.337768097,-0.9110055542,6.106836796
4.832981833,14.4204126,-3.736978912,1.584006042,14.98073383
4.842921833,23.53720413,-5.132975922,-2.300266571,24.19997203
4.852861833,35.57397354,-7.499404907,-6.780749359,36.9827964
4.862800833,57.34110855,-12.45290405,-0.8548722839,58.68397018
4.872740833,72.90559204,-17.79050446,5.079986115,75.21657835
4.882680833,51.86848892,-16.95314575,11.99755096,55.87209073
4.892620833,25.0465155,-12.12074478,7.586224365,28.84079044
4.902560833,16.86453003,-9.294172668,1.103056183,19.28758024
4.912499833,12.19813385,-7.022646332,-1.316661987,14.13667676
4.922439833,7.971523132,-5.017116852,-2.270478516,9.688741675
4.932379833,4.974605255,-3.316802673,-1.489103394,6.161599333
4.942319833,3.988006897,-2.013313293,-1.305884399,4.65434888
4.952259833,3.410058746,-1.106199646,-1.707948303,3.971053477
4.962198708,2.990181885,-0.3344046021,-2.635120239,3.999609083
