Time (s),Acceleration x (m/s^2),Acceleration y (m/s^2),Acceleration z (m/s^2),Absolute acceleration (m/s^2)
14.910976,-1.587448883,-1.710792389,3.195405121,3.956945595
14.920916,-1.78204422,-2.152523804,3.626808014,4.578512498
14.930856,-1.892813873,-2.687211914,4.305796051,5.416985496
14.940796,-1.64986908,-3.197201385,5.107678528,6.24760311
14.950736,-1.580413513,-3.350782013,6.257437592,7.27193043
14.960676,-1.515149231,-3.310815125,7.551646271,8.383587262
14.970616,-1.620380402,-3.165018311,8.781937866,9.474460736
14.980556,-2.249522095,-2.91234375,9.848320312,10.51339663
14.990496,-3.55825058,-2.74035141,10.04126907,10.99989807
15.000437,-4.247267761,-2.358345795,8.969797211,10.200899
15.010377,-3.879482574,-1.732646942,7.477550354,8.600361025
15.020317,-2.278262329,-0.7807763672,5.696703644,6.184862438
15.030257,-1.511407013,0.5393284607,5.240003357,5.480224587
15.040197,-1.020727386,1.491049347,5.259163513,5.560927388
15.050137,0.1556762695,2.19159256,5.367987213,5.800224114
15.060077,3.178041229,2.323168945,7.52949234,8.496488387
15.070017,12.74973679,1.211281128,15.43006302,20.0526765
15.079957,33.83114777,0.7035369873,21.35818542,40.01516723
15.089897,64.56209244,0.09999206543,22.0353772,68.21899755
15.099837,77.25928848,1.141376495,13.43920303,78.42775386
15.109777,78.57565109,0.07708969116,-3.344345398,78.64682787
15.119717,65.59943527,-4.517904968,-9.163045349,66.39020088
15.129657,34.93809586,-6.231541443,-16.12401993,38.9805935
15.139597,2.073787537,-9.254056091,-49.05419128,49.96250426
15.149537,-32.27049316,-13.23427917,-72.509366,80.46203472
15.159477,-1.896107025,-6.342311096,-20.9921965,22.01118911
15.16941871,4.702171783,-3.212469635,-4.1140448,7.025364421
15.17935871,3.911815338,-2.087259521,-0.5239105225,4.464687423
15.18929871,2.913690948,-1.605561218,1.682052155,3.727830632
15.19923871,1.242266693,-1.541494446,2.195783844,2.956501032
15.20917871,0.1797761536,-1.407822418,2.919079742,3.245814223
15.21911871,-0.4426295471,-1.153501282,3.159030762,3.392043849
15.22905871,-0.6339317322,-0.8512797546,2.863395538,3.053781372
15.23899871,-0.7891589355,-0.6965016174,2.738255768,2.933586709
15.24893871,-0.9036708069,-0.6207591248,2.695145416,2.909599909
15.25887871,-0.9337582397,-0.5119354248,2.916385345,3.104719925
15.26881871,-0.9635462952,-0.4589456177,3.361110535,3.526487852
15.27875871,-0.9544152832,-0.4683760071,3.723955994,3.872742292
15.28869871,-1.037791901,-0.4932243347,3.878434753,4.045063462
15.29863871,-1.453327789,-0.7349716187,4.072880402,4.386422199
15.30857871,-1.878144379,-1.178199921,4.014202423,4.585782644
15.31851971,-2.243235168,-1.953737183,4.070635071,5.041751965
15.32845971,-2.417023773,-2.917582855,4.230802002,5.679258686
15.33839971,-2.426903229,-3.36395462,4.557273102,6.162368708
15.34833971,-2.503843231,-3.423530731,5.285359039,6.776784914
15.35827971,-2.47944397,-3.361559601,6.038592682,7.342501408
15.36821971,-2.209854584,-3.190615082,6.772815857,7.8060564
15.37815971,-1.900148621,-2.747686157,7.146588593,7.888857491
15.38809971,-1.578018494,-1.600771179,7.190447388,7.533601023
15.39803971,-0.6559359741,-0.5854325867,7.418722687,7.470637832
15.40797971,1.122216339,-0.03113525391,8.057444458,8.135278121
15.41791971,4.856201477,-0.1460961914,10.38929535,11.46915405
15.42785971,13.8218074,-2.004032593,16.09872253,21.31261067
15.43779971,29.67833359,-3.877237244,20.16157379,36.08774738
15.44773971,55.5767276,-6.306535492,16.79163162,58.39951997
15.45767971,68.40041061,-8.310568085,11.39250916,69.83889302
15.46761971,69.71916824,-6.538553009,3.265908508,70.10122149
15.47755971,58.09494095,-5.837860107,0.6336323547,58.39096047
15.48749971,40.79601425,-5.106181641,-3.791016541,41.28873546
15.49744071,25.95542542,-4.636308746,-9.811496887,28.1326312
15.50738071,9.983938293,-4.518803101,-25.57312042,27.82234881
15.51732071,-20.68249054,-4.475992126,-64.5188324,67.90051292
15.52726071,-18.78279099,-3.949686584,-43.65806259,47.69087639
15.53720071,-0.2315684509,-1.793570251,-7.344028015,7.563416271
15.54714071,1.363664246,-1.545985107,-3.498973846,4.061091984
15.55708071,2.646496582,-1.34674942,-0.4095483398,2.997567014
15.56702071,2.190095673,-1.463656311,0.4593946838,2.673920778
15.57696071,1.810934143,-1.288819885,0.8996292114,2.397889048
15.58690071,1.382225647,-0.8882528687,1.206940155,2.038687184
15.59684071,1.02027832,-0.5846841431,1.444795532,1.862862724
15.60678071,0.8298742676,-0.3941304016,1.564546509,1.814341713
15.61672071,0.7494914246,-0.2941383362,1.673819275,1.857397567
15.62666071,0.8210426331,-0.2531236267,1.849553833,2.039370481
15.63660071,0.9147477722,-0.1987866211,1.993554382,2.202393853
15.64654071,0.8292755127,-0.2531236267,1.967059479,2.149672635
15.65648071,1.0776091,-0.228874054,2.146536255,2.41272514
15.66642171,1.258582764,-0.3302133179,2.888692932,3.168220047
15.67636171,0.9253756714,-0.7042854309,3.518134003,3.705348157
15.68630171,0.6827302551,-0.9039701843,3.872147827,4.03445306
15.69624171,0.1270857239,-1.166823578,4.147575073,4.310453228
15.70618171,-0.4034111023,-1.25199646,4.196822662,4.398130979
15.71612171,-0.7075785828,-1.136436768,4.053420868,4.268767587
15.72606171,-0.8786727905,-1.316512299,4.021686859,4.321948137
15.73600171,-0.6001020813,-1.177301788,4.214336243,4.416649406
15.74594171,-0.3049159241,-1.079255676,5.237758026,5.356479784
15.75588171,0.03053649902,-1.087787933,7.389832764,7.469527652
15.76582171,1.440454559,-0.8731343079,10.54931259,10.6829429
15.77576171,6.084547119,-0.8689430237,14.43553116,15.68952948
15.78570171,16.53521484,-1.409768372,20.0353862,26.01571596
15.79564171,34.79454437,-2.412982178,26.61300797,43.87180181
15.80558171,53.09399048,-3.151546326,25.88432327,59.15151951
15.81552171,69.52262695,-4.133803711,19.86563919,72.42325326
15.82546171,69.91121887,-6.266119537,8.480913849,70.70197082
15.83540171,50.27654938,-6.055507507,0.7854167175,50.6460015
15.84534271,31.06983994,-4.076472931,-4.788841553,31.69993042
15.85528271,17.37945923,-4.148772583,-13.20164703,22.21579171
15.86522271,2.91114624,-5.084476776,-36.3257103,36.79516144
15.87516271,-18.81212997,-8.641829224,-69.12864624,72.16195104
15.88510271,-10.87997498,-5.217699738,-27.43210464,29.96862712
15.89504271,2.154020691,-2.538421326,-3.291355591,4.681496512
15.90498271,3.305875397,-2.397115173,-1.289568329,4.28228441
15.91492271,3.257226562,-2.194436646,0.9111552429,4.031783842
15.92486271,2.145488434,-2.033371582,1.095721436,3.152511074
15.93480271,1.381626892,-1.792821808,1.369801483,2.645649071
15.94474271,0.7833210754,-1.47084137,1.602268066,2.311758897
15.95468271,0.2794688416,-1.106349335,1.730102234,2.072526338
15.96462271,0.03936813354,-0.8120613098,1.685345306,1.871198071
15.97456271,-0.1333726501,-0.7027885437,1.658101959,1.805824495
15.98450271,-0.3493734741,-0.7300318909,1.688339081,1.872297316
15.99444271,-0.55579422,-0.8129594421,1.715881805,1.978398504
16.00438271,-0.6532415771,-0.8011340332,2.082319794,2.324778704
16.01432271,-0.7089257812,-0.8610095215,2.63272522,2.859222839
16.02426371,-0.6137237549,-0.9369017029,2.833008728,3.046371629
16.03420371,-0.5132826233,-0.9671388245,3.057092743,3.247250005
16.04414371,-0.6872209167,-1.061742096,3.503165131,3.724477789
16.05408371,-0.6709048462,-1.203197937,4.194577332,4.415005955
16.06402371,-0.7705975342,-1.355581055,5.46663208,5.684671218
16.07396371,-1.055604858,-1.428180084,6.794371033,7.022640365
16.08390371,-1.008153534,-1.378633118,7.265591125,7.463632978
16.09384371,-0.6123765564,-1.408870239,7.354655914,7.513380332
16.10378371,-0.6939569092,-1.162332916,7.807913361,7.924399349
16.11372371,-1.257235565,-0.1574725342,8.559051361,8.652329112
16.12366371,-0.6954537964,0.8810678101,8.752748566,8.824428816
16.13360371,1.301393738,1.697170715,9.572144623,9.808158175
16.14354371,7.055128784,2.421514435,13.64203125,15.5481057
16.15348371,23.22854599,2.836002502,22.98230804,32.79931009
16.16342371,49.27198837,1.325343933,28.99141205,57.18380319
16.17336321,69.64701828,0.8240364075,24.0856636,73.6987475
16.18330321,78.84030075,-0.3817062378,11.61060562,79.69156094
16.19324321,69.44029816,-3.595822449,1.182840271,69.54339694
16.20318321,43.79472839,-3.753893738,-5.075944519,44.24743118
16.21312421,23.14666626,-5.131179657,-15.79425568,28.48781627
16.22306421,-0.5343887329,-8.971593475,-53.12138351,53.87630692
16.23300421,-21.45383652,-14.87337067,-70.73211182,75.39572865
16.24294421,-2.799478455,-6.663842468,-17.49726425,18.93140598
16.25288421,3.623664551,-3.909869385,-2.908451843,6.072653086
16.26282421,3.284170532,-3.492986298,-0.7577243042,4.853954623
16.27276421,2.367476807,-2.949167175,0.9913883972,3.909652723
16.28270421,1.184935913,-2.673739929,1.47787674,3.276748081
16.29264421,0.1538800049,-2.299667816,1.872306519,2.969458338
16.30258421,-0.3981719971,-1.824705505,2.090103607,2.802967037
16.31252421,-0.5698649597,-1.4040802,2.188598785,2.661982705
16.32246421,-0.662971344,-1.175804901,2.135010223,2.525928903
16.33240421,-0.789458313,-1.183588715,2.173180847,2.597468319
16.34234421,-0.933608551,-1.330283661,2.251168671,2.776515789
16.35228421,-1.094224548,-1.409768372,2.478695526,3.054293001
16.36222421,-1.134490814,-1.524130554,3.127895508,3.659750492
16.37216421,-1.28358078,-1.732197876,3.463647308,4.079821292
16.38210421,-1.204245758,-1.777553558,3.675606537,4.256757911
16.39204421,-0.6497987366,-1.579066315,4.080514526,4.423379661
16.40198521,-0.1796264648,-1.393003235,4.696184235,4.901721131
16.41192521,-0.1038839722,-1.38776413,5.503455505,5.67668069
16.42186521,-0.540226593,-1.511107635,6.587052155,6.77971586
16.43180521,-0.7409591675,-1.426982574,7.545059967,7.714481814
16.44174521,-0.6914122009,-1.441652069,8.517886963,8.666649285
16.45168521,-0.710123291,-1.578317871,9.224717102,9.385668224
16.46162521,-1.00740509,-1.26367218,9.29866333,9.438054467
16.47156521,-0.83661026,-0.4034111023,8.848998413,8.897608115
16.48150521,0.3147953796,0.5132826233,8.009693756,8.032294146
16.49144521,2.749183044,1.198856964,7.801327057,8.357988351
16.50138521,9.143885193,1.141376495,11.14267868,14.45934524
16.51132521,26.1600499,-0.01811233521,18.57666962,32.08490599
16.52126521,53.39606232,-4.269571381,19.50129684,57.00587066
16.53120521,73.3905835,-7.546706543,10.74330917,74.55567864
16.54114521,76.45980103,-6.282435608,2.398013306,76.75493885
16.55108521,61.11925186,-5.481002197,-2.210004272,61.4043032
16.56102521,42.66173447,-4.956043854,-8.078101501,43.70173546
16.57096521,26.20989624,-7.025640106,-14.21938065,30.63509533
16.58090521,7.776628418,-8.171806641,-30.68903183,32.69665194
16.59084521,-23.63001114,-9.126970367,-71.54043091,75.89276823
16.60078521,-10.0767453,-4.514312439,-34.29413498,36.02787125
16.61072621,-0.3713777161,-2.477647705,-8.483907623,8.846092251
16.62066621,1.085991669,-2.082020416,-3.062631226,3.859261191
16.63060621,1.988165588,-1.547631683,0.0687071228,2.52045371
16.64054621,1.42982666,-1.182540894,1.227597198,2.224815077
16.65048621,0.6236032104,-1.0484198,2.03007843,2.368392593
16.66042621,0.06391708374,-0.9948312378,2.520608368,2.710579482
16.67036621,0.1154100037,-0.8589138794,2.823129272,2.953152792
16.68030621,0.5887257385,-0.8196954346,3.046165466,3.208990908
16.69024621,1.235830078,-0.9520202637,3.100951538,3.47124171
16.70018621,1.309177551,-1.143023071,3.41544754,3.832196433
16.71012621,1.399589539,-1.04602478,4.333638153,4.672626495
16.72006621,1.095721436,-1.263522491,4.956642609,5.23119494
16.73000621,0.8770262146,-1.513352966,4.781207428,5.091105641
16.73994621,0.1842668152,-1.742676086,4.766388245,5.078319712
16.74988621,-0.4818479919,-1.873054962,5.178630981,5.527995226
16.75982621,-0.7957452393,-1.878593445,6.110443268,6.442037003
16.76976621,-0.6083349609,-1.743274841,7.618856506,7.839391115
16.77970621,-0.4825964355,-1.814227295,8.520431671,8.724796609
16.78964621,-0.2282752991,-1.936822357,8.44917984,8.671333832
16.79958621,0.1480421448,-1.192869415,8.394693146,8.480314082
16.80952621,-0.1510359192,-0.2674937439,8.206534424,8.212281778
16.81946721,-1.302441559,0.7699987793,7.983348541,8.12546036
16.82940721,-1.723216553,1.749711456,7.145091705,7.555349161
16.83934721,-0.8035290527,2.113904114,5.90656723,6.324696513
16.84928721,0.05942642212,2.360591125,5.149741058,5.665311547
16.85922721,2.99078064,2.638114014,5.565127258,6.846536043
16.86916721,13.06842407,2.627186737,11.46406036,17.58153855
16.87910721,35.6076535,1.094374237,20.90941864,41.30746217
16.88904721,61.69615219,-3.669618988,20.17265076,65.01397648
16.89898721,78.25022781,-4.189637604,12.51442612,79.35529017
16.90892721,76.78552368,-6.25174942,1.13269455,77.04793323
16.91886721,56.87018784,-6.780449982,-3.987857208,57.41163446
16.92880721,33.25304993,-6.33482666,-7.882608032,34.75673845
16.93874721,17.43574219,-7.544910278,-14.76245132,24.05952505
16.94868721,-2.369871826,-10.14754807,-42.60904404,43.86478836
16.95862721,-24.37171875,-11.98168396,-64.02485962,69.54656048
16.96856721,-7.203919373,-6.7045578,-20.74730576,22.96297554
16.97850721,-1.04018692,-4.572391663,-6.095624084,7.690603834
16.98844721,1.04961731,-3.419938202,-2.5215065,4.376718957
16.99838721,2.277214508,-2.475552063,-0.5333409119,3.405659475
17.00832721,2.202519836,-2.047292633,0.4441264343,3.039695551
17.01826721,1.773961029,-1.749711456,1.472338257,2.894167904
17.02820821,1.65211441,-1.27310257,2.135608978,2.985146208
17.03814821,1.731898499,-0.8243357849,2.313888245,3.005508394
17.04808821,2.003433838,-0.5882766724,2.532733154,3.282461548
17.05802821,2.227517853,-0.5495072937,2.815794525,3.632147142
17.06796821,1.899998932,-0.7038363647,3.196153564,3.784280536
17.07790821,1.265767822,-0.9487271118,3.5009198,3.841704148
17.08784821,0.7469467163,-0.9602531433,3.429667969,3.639043538
17.09778821,0.2094145203,-0.928818512,3.240162048,3.377159808
17.10772821,-0.4858895874,-1.056952057,3.047362976,3.261848778
17.11766821,-1.061891785,-0.9199868774,2.983595581,3.297852727
17.12760821,-1.662592621,-0.8716374207,3.01068924,3.547987558
17.13754821,-2.027683411,-0.937350769,3.110381927,3.82943889
17.14748821,-2.340832214,-1.263522491,3.185675354,4.150242403
17.15742821,-2.440375214,-1.644330597,3.234922943,4.373097386
17.16736821,-2.585722961,-1.931882629,3.284769287,4.60519739
17.17730783,-2.597099304,-2.064506836,3.335364075,4.704441176
17.18724783,-2.206561432,-1.776505737,4.004322968,4.905047239
17.19718783,-1.435514832,-0.8442443848,5.638474731,5.879272805
17.20712783,-0.21061203,0.02484832764,7.500602417,7.503599902
17.21706783,3.325484619,0.4484674072,11.91043213,12.37410055
17.22700783,15.50760178,0.1278341675,20.69521408,25.86105064
17.23694783,36.70232712,-0.6460565186,25.01283554,44.41981705
17.24688783,58.52963699,-1.376238098,20.85807541,62.1503962
17.25682883,76.60904068,0.01287322998,16.21113876,78.30546788
17.26676883,77.7806543,-1.424587555,9.190887451,78.33474353
17.27670883,57.10759415,-1.789828033,1.234632568,57.14897297
17.28664883,30.44638641,-0.7479945374,-3.969595184,30.71318328
17.29658883,16.22984985,-1.0776091,-8.002808075,18.12771924
17.30652883,4.596192169,-3.283871155,-17.28051498,18.18034627
17.31646883,-12.28974335,-7.81150589,-40.06433578,42.62872761
17.32640883,-27.41025009,-11.16468292,-48.2072525,56.56775715
17.33634883,-4.914879456,-4.164190521,-9.254654846,11.27586622
17.34628883,-0.1152603149,-2.241289215,-3.128943329,3.850577702
17.35622883,-0.5827381897,-1.637594604,-0.5328918457,1.818041145
17.36616883,-0.5617817688,-0.7506889343,1.13493988,1.472148486
17.37610883,-0.7220983887,-0.382155304,1.384770355,1.607811462
17.38604883,-1.172960815,-0.537532196,1.319506073,1.845501074
17.39598883,-1.620679779,-0.7694000244,1.510957947,2.345543276
17.40592883,-1.882036285,-0.9110055542,1.840123444,2.785326908
17.41586883,-2.032323761,-1.02611618,2.202220459,3.167495736
17.42580883,-2.245330811,-1.174607391,2.360291748,3.462974171
17.43574883,-2.526446228,-1.297052765,2.367476807,3.697326446
17.44568883,-2.573149109,-1.353036346,2.387834473,3.762121364
17.45562883,-2.45714035,-1.362766113,2.340682526,3.656974824
17.46556883,-2.326462097,-1.275796967,2.189646606,3.440150585
17.47550883,-2.116598511,-1.149160309,2.110461273,3.202281289
17.48544883,-1.917512512,-1.012793884,2.265838165,3.136339949
17.49538983,-1.833387451,-0.9162446594,2.299667816,3.080468452
17.50532983,-1.702559509,-0.846789093,1.996099091,2.756840987
17.51526983,-1.466201019,-0.8249345398,1.760339355,2.434965517
17.52520983,-1.463057556,-0.8081694031,1.748663635,2.418987331
17.53514983,-1.500330048,-0.8324189758,2.060016174,2.680965916
17.54508983,-0.5114863586,-0.74065979,3.201841736,3.325956362
17.55502983,0.936302948,-0.516126709,5.655688934,5.755855046
17.56496983,3.823199615,-0.993633728,10.33316208,11.0624772
17.57490983,11.57228531,-2.704875183,16.99416046,20.73730037
17.58484983,31.97949829,-6.535858612,23.17974747,40.03381635
17.59478983,58.44566162,-10.99134338,20.13672546,62.78688322
17.60472983,61.96723846,-8.493936768,10.80063995,63.47235168
17.61466983,61.35965195,1.806742859,3.063828735,61.46265739
17.62460983,57.71982101,6.16403183,0.8111631775,58.05369077
17.63454983,46.09095337,3.517684937,-2.586471405,46.29729932
17.64448983,27.18122635,1.165925446,-5.498815155,27.75635812
17.65442983,13.30583038,-1.13853241,-10.45336212,16.95919096
17.66436983,2.70756958,-3.503614197,-18.18747894,18.7187242
17.67430983,-4.312382355,-4.773124237,-21.20235947,22.1567011
17.68424983,-7.374564514,-5.046306152,-18.10664703,20.19158425
17.69418983,-11.44834305,-5.379812622,-15.04865616,19.65881468
17.70412983,-6.908882904,-2.952460327,-5.680387573,9.418943038
17.71406983,-2.466870117,-1.4040802,-1.515598297,3.217751945
17.72400983,-1.231489105,-0.9503736877,0.02215393066,1.555720527
17.73394983,-1.12326416,-0.7794291687,0.7970924377,1.582589194
17.74389083,-1.052910461,-0.6414161682,1.278341675,1.776004667
17.75383083,-1.025517426,-0.5065466309,1.458117828,1.853208861
17.76377083,-1.051413574,-0.3879931641,1.410816193,1.8017801
17.77371083,-1.144519958,-0.3305126953,1.364113312,1.811068664
17.78365083,-1.143921204,-0.2972817993,1.29765152,1.755229801
17.79359083,-1.121617584,-0.3050656128,1.323098602,1.761158978
17.80353083,-1.064885559,-0.3143463135,1.378782806,1.770264637
17.81347083,-1.025218048,-0.3203338623,1.412612457,1.774587215
17.82341083,-1.051413574,-0.3450325012,1.424587555,1.803875725
17.83335083,-1.040635986,-0.3781137085,1.412911835,1.795052391
17.84329083,-1.005908203,-0.4122427368,1.462309113,1.822126046
17.85323083,-1.084494781,-0.4486170959,1.701212311,2.066763062
17.86317083,-1.125359802,-0.4438270569,2.187251587,2.499497279
17.87311083,-0.630788269,-0.3318598938,3.184178467,3.26297676
17.88305083,0.3502716064,-0.2098635864,4.664899292,4.682736201
17.89299083,1.379082184,-0.1113684082,6.313720551,6.463539107
17.90293083,3.304677887,-0.4849914551,8.319699097,8.9651272
17.91287083,6.647676086,-1.721270599,11.39655075,13.30547778
17.92281083,13.05091049,-4.24741745,15.12888931,20.42670095
17.93275083,21.77177536,-7.996072083,17.18695953,28.86761073
17.94269083,34.53618164,-11.25284958,16.55347687,39.91731532
17.95263083,48.33808044,-9.761500854,13.98317184,51.25803366
17.96257083,49.80473053,-0.3273692322,11.24207199,51.05881448
17.97251083,64.16407013,4.492158508,12.84823196,65.59180168
17.98245083,63.96199036,2.256856842,6.297105103,64.31083226
17.99239083,42.45261932,1.071621552,-2.01840271,42.51408249
18.00233183,21.90290268,0.02275268555,-7.433092804,23.12981911
18.01227183,8.394543457,-2.676733704,-13.3428035,15.98948618
18.02221183,-0.6644682312,-3.898942108,-18.22190735,18.64621074
18.03215183,-6.980883179,-3.465892639,-20.23402313,21.68319243
18.04209183,-13.07665695,-4.071533203,-20.945793,25.02603812
18.05203183,-9.30330368,-2.504741364,-9.250762939,13.3567138
18.06197183,-2.613565063,-0.904119873,-1.5819104,3.185999937
18.07191183,-0.9059161377,-0.6198609924,0.2748284912,1.131566347
18.08185183,-0.665665741,-0.5990542603,1.473835144,1.724577316
18.09179183,-0.6210585022,-0.5435197449,1.940115509,2.1083585
18.10173183,-0.7532336426,-0.522563324,1.946103058,2.151220691
18.11167183,-0.8632548523,-0.5016069031,1.925595703,2.169040626
18.12161183,-0.9354048157,-0.5453160095,1.995350647,2.270192927
18.13155183,-1.048270111,-0.6310876465,2.169588318,2.49083426
18.14149183,-1.218166809,-0.7306306458,2.233206024,2.646688622
18.15143183,-1.429676971,-0.8431965637,2.456691284,2.964842113
18.16137183,-1.679507446,-0.9886940002,2.921474762,3.511876403
18.17131196,-1.998943176,-1.227148132,3.378624115,4.11299979
18.18125196,-2.22781723,-1.443148956,3.274590454,4.215304397
18.19119196,-2.305655365,-1.526824951,3.173101501,4.209015827
18.20113196,-1.995500336,-1.410217438,3.091221771,3.940353645
18.21107196,-1.723216553,-1.212328949,3.075803833,3.728241675
18.22101196,-1.57727005,-1.01324295,3.150199127,3.665814593
18.23095196,-1.031654663,-0.7646099854,3.516936493,3.744032862
18.24089196,-0.05074447632,-0.5288502502,4.541705475,4.572673858
18.25083196,1.022972717,-0.6273454285,6.185886383,6.301208282
18.26077196,3.054847412,-1.334325256,8.118966522,8.776681263
18.27071196,6.708449707,-2.925516357,10.9274263,13.15182835
18.28065296,14.66470459,-7.045249329,15.36434967,22.37749628
18.29059296,28.36496475,-13.69996078,18.47637817,36.51899097
18.30053296,48.91303482,-21.36596924,17.32557129,56.11742187
18.31047296,63.06909714,-26.01066055,8.08648407,68.69975765
18.32041296,60.07936432,-21.72956314,0.3098556519,63.88896573
18.33035296,45.93677399,-8.898844757,-2.788251801,46.87377722
18.34029296,37.46783524,0.1374142456,-4.156556396,37.69793789
18.35023296,30.85578506,0.2478845215,-7.952512665,31.86508083
18.36017296,21.15670441,-0.543968811,-12.53568192,24.5976699
18.37011296,10.10788055,-0.5766009521,-16.39585464,19.26981493
18.38005296,2.108665009,0.6026467896,-17.43843658,17.57579932
18.38999296,-3.480262756,1.055904236,-15.94319595,16.35275695
18.39993296,-7.008126526,1.410217438,-12.02688995,13.99101971
18.40987296,-5.426964569,1.185235291,-5.751489716,7.996021578
18.41981296,-3.088527374,1.001417542,-1.434766388,3.54970323
18.42975296,-1.130748596,0.6126759338,0.02140548706,1.286243516
18.43969296,-0.4698728943,0.4531077576,0.7231462097,0.974180485
18.44963296,-0.4885839844,0.4614903259,0.9135502625,1.134134786
18.45957296,-0.5295986938,0.38963974,0.926124115,1.135781572
18.46951296,-0.7918533325,0.3354524231,1.1665242,1.449254546
18.47945296,-0.8798703003,0.2532733154,1.431772614,1.699497554
18.48939296,-0.936302948,0.1842668152,1.456471252,1.741242654
18.49933296,-1.008752289,0.1423539734,1.394200745,1.726743047
18.50927296,-1.007554779,0.09190887451,1.281934204,1.633085784
18.51921296,-0.9583071899,0.07185058594,1.43686203,1.728608594
18.52915296,-0.8765771484,0.02230361938,1.80075531,2.002899058
18.53909296,-1.020577698,0.02305206299,2.387385406,2.596482104
18.54903296,-1.067729645,-0.01422042847,2.743195496,2.943700111
18.55897296,-1.317260742,-0.04610412598,3.395688629,3.642526969
18.56891296,-1.287921753,-0.08277786255,4.128714294,4.325722638
18.57885396,-0.9187893677,-0.1571731567,4.901108093,4.9889616
18.58879396,0.04011657715,-0.2661465454,5.622757416,5.629195705
18.59873396,1.137484589,-0.533789978,5.816005554,5.950186849
18.60867396,2.288291473,-0.803379364,5.771248627,6.260112378
18.61861396,4.022884369,-1.253493347,6.353986816,7.624171606
18.62855396,8.150999908,-2.376158752,8.832233276,12.25125604
18.63849396,16.34630768,-4.955145721,13.08997925,21.51982343
18.64843396,25.16117706,-8.031697998,15.07215729,30.40991498
18.65837396,50.12536377,-11.12486572,13.61942825,53.12065094
18.66831396,67.49703918,-14.10816193,12.17104019,70.02160203
18.67825396,69.09975632,-9.536518707,9.345366211,70.37796091
18.68819396,61.12254501,-2.217638397,3.448977814,61.2599288
18.69813396,47.91086884,-0.8327183533,-1.230141907,47.9338922
18.70807396,32.12095413,-0.923429718,-5.095404053,32.53569669
18.71801396,18.13239349,-1.620979156,-7.838300171,19.82044946
18.72795396,7.563022614,-2.327659607,-11.08504852,13.61967735
18.73789396,-0.9678872681,-1.778601379,-14.65078354,14.79005365
18.74783396,-16.37669449,-3.211721191,-26.49879547,31.3160891
18.75777396,-19.98149826,-3.912264404,-20.41529617,28.83314765
18.76771396,-4.084556122,-1.514999542,-4.111500092,5.990263377
18.77765396,-1.624571686,-1.015488281,-0.5918692017,2.005182975
18.78759396,-1.604663086,-0.7997868347,0.7096742249,1.928273867
18.79753396,-1.218615875,-0.4117936707,1.161734161,1.733270014
18.80747396,-1.084794159,-0.2195933533,0.972228241,1.473169155
18.81741396,-1.401385803,-0.2088157654,1.172811127,1.839285767
18.82735396,-1.883682861,-0.3255729675,1.60765686,2.497762891
18.83729396,-1.87095932,-0.4233197021,1.435963898,2.396180432
18.84723396,-1.599873047,-0.4308041382,1.024918671,1.948241323
18.85717396,-1.497186584,-0.4222718811,1.04722229,1.87524818
18.86711396,-1.472338257,-0.4484674072,1.308578796,2.020218163
18.87705396,-1.803449707,-0.5905220032,1.951940918,2.722355676
18.88699396,-2.384990387,-0.8120613098,2.752775574,3.731674701
18.89693496,-2.732866974,-1.031654663,3.157384186,4.301389094
18.90687496,-2.842289429,-1.111887817,3.35931427,4.538710839
18.91681496,-3.008144531,-1.149459686,3.517086182,4.768656656
18.92675496,-3.267854462,-1.179846497,3.344495087,4.822505357
18.93669496,-3.231629791,-1.086590424,2.896327057,4.473569076
18.94663496,-3.053350525,-0.9651928711,2.508483582,4.067804885
18.95657496,-2.833757172,-0.8753796387,2.455344086,3.85034853
18.96651496,-2.550546112,-0.8475375366,3.04811142,4.063814535
18.97645496,-0.8375083923,-0.8768765259,4.677622833,4.832234278
18.98639496,2.003433838,-1.154698792,8.100105743,8.423704025
18.99633496,6.840924225,-2.45714035,11.67946243,13.7566575
19.00627496,15.37333099,-5.033283234,15.40596313,22.33868721
19.01621496,29.24573318,-9.333840179,16.54030426,34.87140873
19.02615496,55.3126767,-15.14670227,7.700586548,57.86375227
19.03609496,71.71017792,-19.64963837,-2.772983551,74.40529109
19.04603496,66.42062759,-11.67527115,-9.479936371,68.1019891
19.05597496,54.2443483,-0.3817062378,-8.968450012,54.98207087
19.06591496,42.86067078,-0.2246827698,-9.024283905,43.80097353
19.07585496,30.64113144,-3.509751434,-10.39902512,32.54745788
19.08579496,17.36239471,-3.32653244,-10.58299255,20.60384187
19.09573496,5.770799561,-2.729873199,-13.08563828,14.55981677
19.10567496,-8.021818542,-3.258124695,-22.23431351,23.86062963
19.11561496,-18.53400833,-4.028422852,-24.41961914,30.92014642
19.12555496,-8.315956879,-2.239792328,-9.840237122,13.07677617
19.13549496,-4.84063385,-1.514550476,-4.202211456,6.586666861
19.14543496,-5.24554184,-0.2113604736,-1.552870789,5.474649772
19.15537496,-2.686762848,0.6524931335,0.4809498596,2.806377497
19.16531496,-1.392853546,0.4438270569,0.895587616,1.71438054
19.1752545,-1.277593231,0.287252655,0.7689509583,1.518566472
19.1851945,-1.50826355,0.2164498901,1.302740936,2.004705324
19.1951345,-1.861229553,0.1513352966,1.661844177,2.499760767
19.2050745,-1.791773987,0.1678010559,1.2063414,2.16653428
19.2150145,-1.551972656,0.2142045593,0.850531311,1.782668289
19.2249545,-1.534459076,0.2478845215,0.783021698,1.740440855
19.2348945,-1.517095184,0.2667453003,0.7412585449,1.709442916
19.2448345,-1.632355499,0.2459385681,0.9419911194,1.900636084
19.2547755,-2.001188507,0.205821991,1.242117004,2.364312328
19.2647155,-2.315085754,0.2038760376,1.512604523,2.772933452
19.2746555,-2.522254944,0.2320175171,1.761686554,3.085310624
19.2845955,-2.623743896,0.2245330811,1.803300018,3.191604314
19.2945355,-2.62688736,0.252973938,1.63460083,3.104263663
19.3044755,-2.68302063,0.2827619934,1.538949738,3.105949185
19.3144155,-2.916684723,0.2386038208,1.620979156,3.345378152
19.3243555,-3.067570953,0.1573228455,1.829944611,3.575393588
19.3342955,-2.566862183,-0.04610412598,2.642604675,3.684327147
19.3442355,-1.415306854,-0.5319937134,4.412973175,4.664809004
19.3541755,-0.3966751099,-0.946481781,7.122638397,7.196190426
19.3641155,1.276395721,-1.46260849,8.625363464,8.841114439
19.3740555,4.301604767,-2.137854309,9.061556396,10.25602403
19.3839955,35.27100357,-5.676944733,21.67732178,41.78729082
19.3939355,64.58319855,-16.36382126,28.96401901,72.64763298
19.4038755,68.72643265,-13.24805054,18.08359497,72.29003939
19.4138155,68.48737976,-4.385580139,13.38037537,69.91987518
19.4237555,64.21825745,-5.02549942,8.0303508,64.91322491
19.4336955,47.93227432,-5.315446472,3.450923767,48.34941331
19.4436355,25.86710907,-4.155059509,-4.206702118,26.53428337
19.4535755,12.27237946,-3.294049988,-10.24379791,16.32168675
19.4635155,4.327800293,-2.987337799,-10.54197784,11.78080385
19.4734555,-0.6373745728,-2.573298798,-9.951455841,10.29852351
19.4833955,-2.17168396,-1.814077606,-6.561605072,7.145750479
19.4933355,-3.427422638,-1.304387512,-4.755161591,6.005015776
19.5032755,-11.79891403,-1.506317596,-9.303004303,15.10063754
19.5132155,-10.13796799,-0.6598278809,-2.560874634,10.47720605
19.5231555,-5.781726837,-0.04296066284,1.054107971,5.877189333
19.5330955,-2.877166901,-0.09445358276,1.576371918,3.282066312
19.5430355,-1.726659393,-0.1064286804,2.226470032,2.819547575
19.5529755,-1.732048187,-0.1408570862,2.681224365,3.195120614
19.5629155,-1.641486511,-0.09954299927,2.646795959,3.116073752
19.5728555,-1.92709259,-0.0462538147,2.814896393,3.411666304
19.5827955,-1.991159363,-0.007783813477,2.819237366,3.451503371
19.5927355,-1.867965546,-0.01047821045,2.434387665,3.068492851
19.6026755,-1.779499512,-0.06451583862,2.192341003,2.824383097
19.6126155,-1.669777679,-0.1139131165,1.999541931,2.607547053
19.6225555,-1.681154022,-0.2125579834,1.916764069,2.558406582
19.6324955,-1.773212585,-0.3504212952,1.991159363,2.689199428
19.6424365,-2.025138702,-0.4784051514,2.261646881,3.073288933
19.6523765,-2.283651123,-0.5743556213,2.689906311,3.574988503
19.6623165,-2.411784668,-0.5990542603,3.271297302,4.108157413
19.6722565,-2.550546112,-0.6012995911,4.199517059,4.950029313
19.6821965,-2.592608643,-0.6665638733,5.473068695,6.09265196
19.6921365,-1.231938171,-0.9681866455,6.717131653,6.897457117
19.7020765,1.741328888,-1.200353851,8.537346497,8.795417038
19.7120165,5.818699951,-1.348845062,12.11370941,13.50624329
19.7219565,12.12493607,-2.918780365,17.15193237,21.20665314
19.7318965,20.41140427,-5.335654449,20.43266006,29.3698524
19.7418365,30.56194611,-6.179000702,18.65181335,36.33321815
19.7517765,58.34881302,-9.541608124,15.36884033,61.08868569
19.7617165,66.3847023,-8.400830383,11.41541153,67.88088296
19.7716565,66.48394592,-1.568139038,3.49972229,66.59446059
19.7815965,57.20339493,-0.8719367981,-1.110540619,57.22081759
19.7915365,39.76735336,-0.7206015015,-6.060147858,40.23291006
19.8014765,20.24405228,-1.874701538,-14.56591003,25.01003586
19.8114165,2.487676849,-4.024830322,-30.29699707,30.66424346
19.8213565,-10.16895355,-4.226910095,-41.22382462,42.66940474
19.8312965,-7.093748474,-3.392694855,-25.13992126,26.34098113
19.8412365,-4.655019836,-2.759810944,-11.83573746,13.01424017
19.8511765,-3.804937592,-1.964215393,-4.628225555,6.305248923
19.8611165,-3.203638,-1.117126923,-1.095721436,3.565371574
19.8710565,-1.201251984,-0.5767506409,1.344803467,1.893183561
