Time (s),Acceleration x (m/s^2),Acceleration y (m/s^2),Acceleration z (m/s^2),Absolute acceleration (m/s^2)
19.88184529,4.149970093,-2.177072754,-2.616409149,5.367261348
19.89178529,3.24001236,-1.203497314,-2.694846039,4.382725299
19.90172529,1.63460083,-0.5399272156,-2.757715302,3.250912942
19.91166529,0.1207987976,-0.1913021851,-3.16157547,3.169660601
19.92160429,-0.4249662781,0.1040336609,-3.163222046,3.193335725
19.93154429,-0.9171427917,0.4980143738,-2.661315765,2.858630935
19.94148429,-1.409468994,0.765358429,-2.176024933,2.703231562
19.95142429,-1.370400238,1.078956299,-1.679806824,2.42154795
19.96136429,-1.249900818,1.207987976,-1.1864328,2.104545033
19.97130379,-1.06473587,1.162781982,-0.7319778442,1.738250838
19.98124379,-0.7967930603,1.016685791,-0.3288661194,1.332922392
19.99118379,-0.5394781494,0.959355011,0.05239105225,1.101881815
20.00112379,-1.213526459,1.157842255,2.139650574,2.718703686
20.01106379,-4.508025513,1.398092651,8.674311676,9.875253928
20.02100379,-5.676795044,0.5545967102,10.10174332,11.60081021
20.03094279,-4.013903046,-0.722996521,7.497309265,8.534857225
20.04088279,-0.7367678833,-2.154619446,6.682703247,7.06000953
20.05082279,2.218835907,-2.738405457,4.490062866,5.708131198
20.06076279,3.122656403,-1.573078766,-0.8155041504,3.590349124
20.07070279,3.095862122,-0.8259823608,-2.662662964,4.166099278
20.08064179,5.629044342,-1.468596039,-1.859133911,6.107314748
20.09058179,10.09994705,-1.882784729,-2.958896942,10.69153309
20.10052179,16.11608643,-2.108814697,-5.951174469,17.30872088
20.11046179,31.68985062,-2.942880249,-5.220244446,32.25148258
20.12040179,51.64021362,-3.15109726,-0.628692627,51.74008438
20.13034079,67.4371637,-4.865332489,4.318968658,67.75024722
20.14028079,69.28836411,-6.636599121,6.728058929,69.92988364
20.15022079,40.95513336,-5.958958282,4.410278778,41.62070028
20.16016079,21.9225119,-5.268294525,-0.3585044861,22.54950068
20.17010079,13.55446335,-5.181924133,-2.340532837,14.69877234
20.18003979,7.107519836,-5.774092712,-0.1145118713,9.158061904
20.18997979,4.232747955,-5.796396332,1.240620117,7.28378363
20.19991979,3.94085495,-4.74124054,0.1311273193,6.166595006
20.20985979,3.777394867,-3.292702789,-0.6454577637,5.052446869
20.21979979,3.215613098,-1.725012817,-0.7271878052,3.72083847
20.22973979,2.861299896,-0.8036787415,-0.5625302124,3.024793688
20.23967879,2.424657898,-0.2070195007,-0.4483177185,2.474431606
20.24961879,1.994602203,0.1306782532,-0.4457730103,2.047981526
20.25955879,1.603465576,0.2948867798,-0.6294410706,1.747643021
20.26949879,0.9059161377,0.5170248413,-0.8690927124,1.357689537
20.27943879,0.02275268555,0.7506889343,-1.166673889,1.387508387
20.28937779,-0.7569758606,0.9009764099,-1.40288269,1.831079132
20.29931779,-1.055006104,0.979712677,-1.490001526,2.071950616
20.30925779,-1.194366302,0.9933343506,-1.454076233,2.127806779
20.31919779,-1.297950897,0.9484277344,-1.241667938,2.031238777
20.32913779,-1.244811401,0.8943901062,-0.8340655518,1.745037086
20.33907679,-1.592687988,0.8797206116,0.296383667,1.843476786
20.34901679,-2.911445618,0.8092172241,2.871329041,4.168438384
20.35895679,-3.431015167,0.3520678711,3.781436462,5.118112795
20.36889679,-3.42951828,-0.3342549133,3.487747192,4.902825967
20.37883679,-4.122876434,-1.346300354,4.290827179,6.100969809
20.38877679,-4.142635345,-2.548899536,5.383255463,7.255188201
20.39871579,-1.572480011,-3.622766418,6.325246582,7.45693464
20.40865579,2.554737396,-3.388802948,4.528981934,6.206637249
20.41859579,3.41080719,-1.401535492,-2.737058258,4.592319167
20.42853579,3.013233948,-0.6515950012,-4.458628235,5.420656843
20.43847579,5.425018616,-1.398841095,-1.945504303,5.930646709
20.44841479,7.902217255,-1.628912659,-2.192041626,8.360827739
20.45835479,10.28750702,-1.339115295,-5.050347748,11.53828596
20.46829479,22.38549911,-2.444117432,-3.658392334,22.8137703
20.47823479,41.64639587,-3.221750336,-0.8916957092,41.78034329
20.48817479,60.13609634,-5.816005554,1.426533508,60.43352548
20.49811479,77.36436996,-9.131161652,6.0025177,78.13228572
20.50805379,59.08632935,-6.824009399,6.790329437,59.86543238
20.51799379,24.67723343,-4.159400482,4.72013443,25.46656889
20.52793379,13.30208817,-4.323309631,1.209484863,14.03920971
20.53787379,8.861272888,-5.122946777,0.6864724731,10.25855669
20.54781379,7.154671783,-5.697601776,0.1474433899,9.147334797
20.55775279,6.160289612,-5.456752625,-0.7990383911,8.268239211
20.56769279,5.096002808,-4.348157959,-0.6096821594,6.726621335
20.57763279,3.683090973,-3.026406555,-0.2827619934,4.775379576
20.58757279,2.255210266,-1.961221619,-0.4203259277,3.0181182
20.59751279,1.400787048,-1.195713501,-0.9101074219,2.054319997
20.60745179,0.7801776123,-0.7514373779,-1.488205261,1.840676544
20.61739179,0.01242416382,-0.4695735168,-1.802850952,1.863041922
20.62733179,-0.8065228271,-0.2445913696,-2.050885162,2.217303308
20.63727179,-1.304088135,0.07918533325,-2.099384308,2.472717261
20.64721179,-1.350940704,0.3112028503,-1.956880646,2.398180532
20.65715179,-1.191971283,0.4170327759,-1.54688324,1.996887486
20.66709079,-1.098415833,0.53004776,-1.103954315,1.645048054
20.67703079,-1.157842255,0.5628295898,-0.7982899475,1.514807801
20.68697079,-1.337019653,0.6149212646,-0.3332070923,1.508899162
20.69691079,-2.027084656,0.8128097534,1.048719177,2.422714141
20.70685079,-2.736758881,0.8734336853,2.10731781,3.562797205
20.71678979,-2.584076385,0.6412664795,1.643133087,3.128667417
20.72672979,-2.574945374,0.1796264648,1.494791565,2.982785806
20.73666979,-2.805615692,-0.7117698669,2.362237701,3.736075844
20.74660979,-1.91197403,-2.259251862,5.451812897,6.203396451
20.75654979,1.549427948,-3.552861786,9.236243134,10.01657332
20.76648979,4.509372711,-3.681893463,5.617518311,8.089950166
20.77642879,3.9255867,-1.969005432,-1.672472076,4.699401683
20.78636879,3.698359222,-1.294508057,-2.808759155,4.821072499
20.79630879,6.692732391,-2.22197937,-0.336051178,7.059942604
20.80624879,9.703721008,-2.36238739,-1.344055023,10.07718014
20.81618879,14.48088684,-2.520907745,-2.361638947,14.88718906
20.82612779,25.91935043,-3.555107117,-1.176703033,26.18847349
20.83606779,41.63741455,-4.535119171,0.6283932495,41.88838114
20.84600779,58.83006226,-6.68120636,2.511477356,59.26147367
20.85594779,67.13748688,-8.998687134,-1.52697464,67.75507484
20.86588779,49.98345886,-7.059619446,-2.602488098,50.54658575
20.87582679,24.55403961,-3.918251953,-0.84948349,24.87921184
20.88576679,13.7249588,-3.110531616,-1.297202454,14.13267969
20.89570679,9.262887726,-2.943329315,-1.848805389,9.893551326
20.90564679,7.156617737,-2.735261993,-2.118394775,7.948989371
20.91558679,5.74625061,-2.232158203,-1.127156067,6.266770071
20.92552579,4.372856598,-1.754800873,0.1239422607,4.713444877
20.93546579,3.248095551,-1.111738129,1.193318481,3.634569489
20.94540579,2.622546387,-0.5960604858,2.030228119,3.36969789
20.95534579,2.135608978,-0.2245330811,2.073637848,2.98516578
20.96528579,1.634900208,-0.02365081787,1.443148956,2.180856932
20.97522617,0.7161108398,0.1002914429,1.171463928,1.376662938
20.98516517,-0.6218069458,0.2640509033,1.664239197,1.796123287
20.99510517,-2.163301392,0.3438349915,2.551294556,3.362617927
21.00504517,-3.116818542,0.5655239868,2.570903778,4.079696244
21.01498517,-2.851719818,0.7225474548,0.9108558655,3.079616722
21.02492517,-2.328707428,0.605640564,-0.923429718,2.577285631
21.03486417,-1.961221619,0.535436554,-1.976340179,2.835313571
21.04480417,-1.542392578,0.697250061,-2.355651398,2.900728533
21.05474417,-1.322948914,0.9590556335,-2.253264313,2.783375936
21.06468417,-1.216669922,1.254241791,-1.831890564,2.531645948
21.07462417,-1.032253418,1.37129837,-1.256487122,2.127149789
21.08456417,-0.912203064,1.135688324,-0.6146218872,1.581032088
21.09450317,-0.7538323975,0.5974076843,-0.02409988403,0.962153849
21.10444317,0.4504133606,-0.6605763245,4.349804535,4.422672582
21.11438317,4.083059235,-3.777544556,16.74388092,17.64366073
21.12432317,5.404511261,-3.656147003,6.970404968,9.547915914
21.13426317,2.922672272,-1.08120163,-4.424798584,5.412010041
21.14420217,3.210823059,-0.7216493225,-4.421206055,5.511553814
21.15414217,5.843099213,-1.119521942,-3.492836609,6.898916246
21.16408217,12.06925186,-2.113005981,-1.726210327,12.37382063
21.17402217,21.97280731,-3.702999573,-1.642384644,22.343095
21.18396217,29.65183868,-5.055736542,-6.233637085,30.71889062
21.19390117,45.54952927,-7.363637238,-1.754501495,46.17424656
21.20384117,64.40506897,-9.407786407,7.875422974,65.56326442
21.21378117,59.96275681,-8.397986298,4.319417725,60.7018595
21.22372117,34.32512054,-5.584137726,-2.952460327,34.90148301
21.23366117,20.71871521,-3.961811371,-1.542542267,21.15042661
21.24360117,14.2199794,-4.04728363,-1.207239532,14.833939
21.25354017,9.060358887,-4.90739502,0.4248165894,10.31276385
21.26348017,7.649393005,-5.575904846,0.1336720276,9.466878916
21.27342017,7.29552887,-5.240901489,-0.9937834167,9.037665373
21.28336017,5.925128632,-3.82155304,-0.786763916,7.094393166
21.29330017,4.255201263,-2.873125305,0.4147874451,5.151080997
21.30323917,2.9077034,-2.225871277,1.490450592,3.953566108
21.31317917,2.023342438,-1.503623199,1.583706665,2.977066366
21.32311917,1.508862305,-1.081950073,1.049916687,2.132980653
21.33305917,1.094374237,-0.7764353943,0.5258564758,1.441191148
21.34299917,0.6746470642,-0.1862127686,0.2650987244,0.7483990848
21.35293917,0.1957928467,0.3412902832,0.2050735474,0.4436992856
21.36287817,-0.6095324707,1.039288788,0.6494993591,1.36875872
21.37281817,-1.69657196,2.162702637,1.589245148,3.175112479
21.38275817,-2.022144928,3.228636017,1.550475769,4.113044584
21.39269817,-1.577419739,3.232378235,-0.3938310242,3.618235062
21.40263817,-1.086590424,1.935475159,-3.07969574,3.796217682
21.41257717,-0.6514453125,1.23208786,-3.836821289,4.082109638
21.42251717,-0.4794529724,1.123713226,-3.173101501,3.400173482
21.43245717,-0.2811154175,1.130748596,-2.332150269,2.607018055
21.44239717,-0.325872345,1.331780548,-0.9276210022,1.655389059
21.45233717,-1.2952565,1.132245483,6.134842529,6.371496064
21.46227617,-2.607577515,-1.247056732,16.08255615,16.34023327
21.47221617,-1.495090942,-2.677033081,7.517666931,8.118935837
21.48215617,1.787133636,-1.010548553,-3.26920166,3.860406003
21.49209617,3.608396301,0.2972817993,-4.599784698,5.853795317
21.50203617,5.272336121,-0.1465452576,-3.522175598,6.342296479
21.51197617,9.909842377,-1.368005219,-1.289119263,10.0865377
21.52191517,15.84140762,-2.668800201,-2.148631897,16.2076929
21.53185517,21.39111694,-3.812871094,-5.870941315,22.50746147
21.54179517,32.52990372,-5.704038391,-5.614524536,33.50005337
21.55173517,48.33942764,-7.590265961,-1.057401123,48.94313536
21.56167517,59.33151947,-8.109536133,3.494932251,59.98506756
21.57161417,54.34059814,-8.127199402,8.379275208,55.58025036
21.58155417,32.34743317,-8.16013092,6.679410095,34.02291417
21.59149417,21.9928656,-8.562494202,1.482068024,23.64738823
21.60143417,16.83384384,-9.01200943,-1.030008087,19.12212146
21.61137417,10.98790054,-8.67146759,-1.879790955,14.1230989
21.62131417,6.419849854,-7.683072968,-0.4742138672,10.02342063
21.63125317,3.990252228,-5.899681549,0.9081614685,7.180049615
21.64119317,2.398612061,-4.137845306,1.276695099,4.95025797
21.65113317,1.011746063,-2.390828247,1.208886108,2.863755476
21.66107317,0.04415817261,-1.206640778,0.9813592529,1.555955621
21.67101317,-0.07873626709,-0.5441184998,0.3836521912,0.6704128171
21.68095217,0.314046936,0.1131646729,-0.4547543335,0.5641216403
21.69089217,0.565973053,0.8396040344,-1.033001862,1.446496898
21.70083217,0.150586853,1.702709198,-1.072070618,2.017729026
21.71077217,-0.2257305908,2.62449234,-1.178199921,2.885666196
21.72071217,-0.1290316772,3.172203369,-1.982926483,3.743196605
21.73065217,-0.2130070496,3.310964813,-2.606380005,4.219132224
21.74059117,-0.6529421997,3.616180115,-2.208507385,4.287259849
21.75053117,-0.7258406067,3.742367706,-2.106868744,4.355577636
21.76047117,-0.3610491943,3.037034454,-2.245929565,3.794487371
21.77041117,0.07993377686,2.745291138,-1.590592346,3.173798489
21.78035117,0.2152523804,3.357068939,0.3215313721,3.37929399
21.79029017,-0.4607418823,4.689298553,4.304299164,6.381911571
21.80023017,-1.668430481,4.317022705,6.844666443,8.262554328
21.81017017,-0.7679031372,2.132615204,5.736221466,6.167816432
21.82011017,2.229912872,-0.4031117249,6.659202118,7.034200973
21.83005017,6.147715759,-2.424358521,7.26738739,9.822771644
21.83999017,6.788533173,-1.404678955,-0.4797523499,6.948918471
21.84992917,5.705984344,-0.4317022705,-5.105882263,7.669071513
21.85986917,10.21071671,-2.503244476,-1.976190491,10.6972098
21.86980917,15.28336807,-4.268822937,-2.278561707,16.03109579
21.87974917,18.708246,-4.82312027,-5.921236725,20.20697904
21.88968917,28.60701141,-7.392976227,-5.162614288,29.99449593
21.89962817,42.32987457,-10.60739182,-0.7060816956,43.64439934
21.90956817,50.82845169,-11.74592422,3.603157196,52.292265
21.91950817,46.19259201,-11.42424316,7.821235657,48.22282256
21.92944817,31.04289597,-10.40127045,5.774691467,33.2444714
21.93938817,23.45322876,-9.942324829,1.031654663,25.49447143
21.94932717,18.20334595,-10.09650421,-0.6938072205,20.8274475
21.95926717,12.21100708,-9.853858795,-0.8515791321,15.7140833
21.96920717,7.581733704,-8.700058136,-0.2282752991,11.54234842
21.97914692,5.098547516,-6.210585022,-0.4117936707,8.045876404
21.98908692,4.040547638,-3.664379883,-1.112636261,5.567015771
21.99902692,2.891836395,-2.055974579,-0.9274713135,3.667417653
22.00896592,1.812131653,-0.8455915833,-0.7436535645,2.133510459
22.01890592,1.327589264,0.05987548828,-0.9978250122,1.661846287
22.02884592,1.122216339,0.6866221619,-1.276246033,1.83292756
22.03878592,0.8716374207,1.13613739,-1.456471252,2.042515232
22.04872592,0.5275030518,1.550475769,-1.676962738,2.344021887
22.05866492,0.08562194824,1.973196716,-1.898651733,2.739655965
22.06860492,-0.3754193115,2.444716187,-1.991758118,3.175638092
22.07854492,-0.4697232056,2.867586823,-1.744921417,3.389460846
22.08848492,-0.3282673645,2.944227448,-1.331481171,3.247934241
22.09842492,-0.1146615601,2.887345734,-0.9213340759,3.032947269
22.10836492,0.2047741699,3.13582901,-0.01017883301,3.142524407
22.11830392,0.5852828979,3.734134827,1.291364594,3.994238537
22.12824392,0.7265890503,4.350852356,2.64904129,5.14541229
22.13818392,0.1338217163,4.466412048,3.277584229,5.541597533
22.14812392,-1.0285112,2.922073517,2.267484741,3.838988927
22.15806392,-0.9897418213,0.6557862854,2.180665283,2.482930849
22.16800292,0.2820135498,-1.999541931,8.581205292,8.815598893
22.17794292,4.251309357,-5.058730316,16.30125137,17.58963274
22.18788292,6.638245697,-4.091142426,5.694158936,9.655423257
22.19782292,4.77866272,-0.8090675354,-6.716532898,8.28263375
22.20776292,6.613696747,-1.209634552,-6.268813934,9.192509372
22.21770192,10.23781036,-2.0172052,-6.093229065,12.08343156
22.22764192,15.60355225,-2.884351959,-6.989714813,17.33915921
22.23758192,25.73493393,-4.285737762,-4.913681946,26.54804405
22.24752192,36.73810272,-5.446424103,-4.740342407,37.44092111
22.25746192,42.56219147,-6.834038544,-8.450227661,43.92778816
22.26740192,53.16419449,-8.763526154,-0.8081694031,53.887699
22.27734092,55.72117722,-9.065747681,23.89585831,61.30293154
22.28728092,35.90164215,-8.687783661,20.50316345,42.24671828
22.29722092,23.46625168,-8.516988831,-0.8258326721,24.97771139
22.30716092,15.71102875,-8.255033569,-3.197351074,18.03344275
22.31710092,10.49557434,-7.718848572,-3.71617218,13.54797548
22.32704092,4.753664703,-7.884404297,0.01916015625,9.206602323
22.33697992,1.302740936,-7.239096222,2.912942505,7.911187148
22.34691992,1.948947144,-5.121599579,1.438807983,5.665628441
22.35685992,2.772833862,-3.490291901,-0.04550537109,4.457893664
22.36679992,2.421514435,-2.272424469,-0.475411377,3.354647687
22.37673992,1.725312195,-1.449884949,-0.6909631348,2.35718022
22.38667892,0.7764353943,-0.8539741516,-0.7464976501,1.374548113
22.39661892,0.09804611206,-0.232616272,-0.8598120117,0.8961027093
22.40655892,-0.2019300842,0.3451821899,-1.151705017,1.219159936
22.41649892,-0.3558100891,0.7234455872,-1.417552185,1.63077544
22.42643892,-0.6240522766,0.8563691711,-1.671873322,1.979386219
22.43637792,-0.8232879639,1.004261627,-1.758094025,2.185689614
22.44631792,-0.8437953186,1.173260193,-1.603764954,2.15884044
22.45625792,-0.816252594,1.209335175,-1.493294678,2.087747316
22.46619792,-0.7607180786,1.143771515,-1.357826385,1.931475541
22.47613792,-0.6596781921,1.114432526,-1.15140564,1.732879141
22.48607792,-0.5694158936,1.046922913,-0.8045768738,1.437924195
22.49601692,-0.6481521606,1.027164001,0.2248324585,1.23519907
22.50595692,-2.480042725,1.10335556,7.984096985,8.432900454
22.51589692,-3.605851593,-0.1553768921,13.32753525,13.80758862
22.52583692,-1.809886322,-1.852547607,10.14874557,10.47399914
22.53577692,1.185834045,-2.784359894,5.861810303,6.596944931
22.54571592,3.782035217,-1.980681152,1.047371979,4.395893114
22.55565592,3.407064972,-0.2442919922,-4.038302307,5.289201814
22.56559592,3.59806778,-0.05179229736,-5.240452423,6.356973792
22.57553592,6.05401062,-0.4531077576,-5.34493515,8.088552589
22.58547592,11.29027176,-1.089733887,-6.09263031,12.87547671
22.59541592,22.47381546,-2.475701752,-5.625152435,23.299009
22.60535492,42.14994873,-5.433101807,-1.856738892,42.53920841
22.61529492,55.37569565,-8.644822998,-6.000122681,56.36667549
22.62523492,67.03584824,-12.85332138,-4.087998962,68.37926992
22.63517492,61.52865051,-13.63215179,12.02060303,64.15688033
22.64511492,30.76462463,-10.87473587,31.16339539,45.12071831
22.65505392,18.62741409,-9.863887939,10.50814819,23.55202793
22.66499392,14.27745987,-8.200846252,0.149539032,16.46578578
22.67493392,8.435857544,-6.253845062,-3.921545105,11.20949538
22.68487392,4.057013397,-4.538861389,-3.80044693,7.176629939
22.69481392,1.84985321,-2.84678009,-1.676513672,3.786398272
22.70475392,1.154399414,-1.505569153,-0.8161029053,2.065284589
22.71469292,0.7611671448,-0.8716374207,-0.7225474548,1.364258788
22.72463292,-0.01676513672,-0.5227130127,-0.462538147,0.6981772704
22.73457292,-0.6700067139,-0.2692900085,-0.4077520752,0.8292694738
22.74451292,-0.6670129395,-0.1363664246,-0.8466394043,1.086416285
22.75445292,0.04236190796,-0.004041595459,-1.312021637,1.312711561
22.76439192,0.3838018799,0.1416055298,-1.41111557,1.469218555
22.77433192,-0.1216969299,0.3951782227,-1.19466568,1.264200165
22.78427192,-0.6298901367,0.6439608765,-1.00515976,1.349738248
22.79421192,-0.9487271118,0.8318202209,-1.041534119,1.636093314
22.80415192,-1.147364044,0.9577084351,-1.098116455,1.85459145
22.81409192,-1.200802917,1.119521942,-0.819994812,1.835115396
22.82403092,-1.143771515,1.485361176,0.2448907471,1.890630207
22.83397092,-1.351240082,1.996997223,1.876048737,3.055062443
22.84391092,-1.720522156,2.342329102,2.959495697,4.147929229
22.85385092,-1.755249939,2.339335327,2.765349426,4.02499063
22.86379092,-1.586401062,1.998194733,1.924398193,3.195740748
22.87372992,-1.227746887,1.177002411,2.015558624,2.637266324
22.88366992,-0.05343887329,-0.3781137085,5.017565918,5.032076453
22.89360992,1.185235291,-2.162403259,10.90138046,11.17680037
22.90354992,2.862946472,-3.119662628,9.554331665,10.45055075
22.91348992,2.677332458,-1.209634552,-1.232536926,3.185980558
22.92342992,1.898801422,-0.005089416504,-5.107828217,5.449346918
22.93336892,3.452720032,-0.473764801,-4.599784698,5.770939956
22.94330892,7.370522919,-1.185384979,-4.014950867,8.476412927
22.95324892,17.97492096,-3.211122437,-1.840871887,18.35205438
22.96318892,30.58275284,-4.838238831,-5.426964569,31.43509616
22.97312942,46.47580307,-7.997868347,-7.876171417,47.81213492
22.98306842,65.10186996,-13.35268295,-6.122717743,66.73855923
22.99300842,74.50232162,-15.51209244,1.459315338,76.1140627
23.00294842,49.12619156,-10.64331711,17.27856903,53.15272189
23.01288842,21.90365112,-7.653434601,20.62785416,31.04598784
23.02282842,13.82480118,-7.508984985,5.49941391,16.66593941
23.03276842,9.050928497,-7.31423996,0.4306544495,11.6448648
23.04270742,5.441484375,-6.715185699,-0.3899391174,8.651908674
23.05264742,3.102747803,-6.063740387,0.6682104492,6.844157845
23.06258742,1.829944611,-4.92371109,1.09287735,5.36525946
23.07252742,1.091829529,-3.927083588,0.5436694336,4.112134929
23.08246742,0.2914439392,-3.105142822,-0.03053649902,3.118939562
23.09240642,-0.4387376404,-2.373614044,-0.3754193115,2.44284138
23.10234642,-0.9162446594,-1.758543091,-0.4701722717,2.037900891
23.11228642,-0.9367520142,-1.134041748,-0.409997406,1.52697508
23.12222642,-0.7268884277,-0.3023712158,-0.2971321106,0.8414764582
23.13216642,-0.5233117676,0.6295907593,-0.3122506714,0.8762078589
23.14210642,-0.4251159668,1.122815094,-0.7152127075,1.397485792
23.15204542,-0.5191204834,1.194965057,-1.479223938,1.971175036
23.16198542,-0.7505392456,1.269659729,-1.929038544,2.428278133
23.17192542,-0.959355011,1.490300903,-2.132764893,2.773093022
23.18186542,-0.9711804199,1.660047913,-2.236648865,2.949838745
23.19180542,-0.8078700256,1.971849518,-1.918260956,2.86715357
23.20174442,-0.4370910645,2.58826767,-0.6764433289,2.710674032
23.21168442,0.02439926147,3.526965637,1.925895081,4.018600974
23.22162442,0.03457809448,4.383035431,4.533023529,6.305592561
23.23156442,-0.5063969421,4.411775665,5.751190338,7.266112626
23.24150442,-0.337098999,3.017874298,5.239853668,6.056175978
23.25144442,0.8530760193,1.312021637,4.54230423,4.804338371
23.26138342,2.457439728,-0.3836521912,3.879931641,4.608694886
23.27132342,4.394112396,-1.52817215,2.842588806,5.451957904
23.28126342,5.523364105,-1.537153473,0.07080276489,5.733707777
23.29120342,6.940616913,-1.637444916,-2.423610077,7.53175111
23.30114342,12.94582901,-3.319197693,-0.4028123474,13.37063274
23.31108342,21.53541687,-5.012775879,-0.4101470947,22.11493438
23.32102242,32.12918701,-6.813980255,-2.539319458,32.94181428
23.33096242,48.06953888,-9.914033661,-1.027164001,49.09199219
23.34090242,59.77384964,-12.11700256,-0.8484356689,60.99553012
23.35084242,57.99240417,-12.08751389,1.025517426,59.24760434
23.36078242,35.08015045,-8.495134277,2.955005035,36.2148632
23.37072142,20.66991669,-6.276747437,2.180066528,21.71164905
23.38066142,13.80713791,-5.961203613,1.188678131,15.08595245
23.39060142,9.625284119,-6.045478363,1.113983459,11.4208083
23.40054142,7.253765717,-5.939498749,1.038690033,9.432583922
23.41048142,5.612578583,-5.23730896,0.6670129395,7.705540199
23.42042142,3.834875336,-4.110751648,0.6087840271,5.654658782
23.43036042,2.298919373,-2.944975891,1.176852722,3.917000844
23.44030042,1.408271484,-1.804198151,1.772763519,2.895004324
23.45024042,0.773890686,-0.9880952454,2.041903839,2.396791667
23.46018042,0.2314187622,-0.2525248718,2.071392517,2.099521473
23.47012042,-0.4053570557,0.3944297791,1.641486511,1.736193296
23.48005942,-1.178798676,1.111139374,0.841999054,1.825694233
23.48999942,-1.381327515,1.718725891,-0.06975494385,2.20611653
23.49993942,-0.7432044983,1.922152863,-1.746118927,2.701102712
23.50987942,-0.3201841736,1.922302551,-3.048410797,3.618089743
23.51981942,-0.2011816406,2.315385132,-3.299289093,4.035689641
23.52975942,0.2637515259,2.747835846,-2.971620483,4.055945636
23.53969842,0.765358429,3.190315704,-2.27811264,3.994206432
23.54963842,0.886456604,3.614234161,-1.555864563,4.033510682
23.55957842,0.6700067139,3.987108765,-0.846789093,4.130738078
23.56951842,0.2802172852,4.121678925,0.2758763123,4.140394501
23.57945842,-0.5791456604,3.597169647,2.109114075,4.209917024
23.58939842,-1.719624023,2.216740265,4.013304291,4.89669843
23.59933742,-1.822160797,0.1936972046,6.359824677,6.618546554
23.60927742,-0.3320095825,-2.061063995,8.659941559,8.908019025
23.61921742,2.545307007,-3.23881485,7.670349426,8.706478606
23.62915742,4.587061157,-2.40804245,1.598675537,5.421767422
23.63909742,4.848118286,-1.066382446,-4.362378387,6.608461821
23.64903642,8.13558197,-2.008972321,-4.261637878,9.401341457
23.65897642,17.37347168,-4.836592255,-2.510279846,18.20801054
23.66891642,26.7863475,-6.935677185,-5.375471649,28.18701343
23.67885642,38.83584045,-10.02704865,-6.69871994,40.66493646
23.68879642,51.22168396,-13.14596283,-4.155807953,53.04477341
23.69873642,61.17269073,-14.23045761,2.227517853,62.84557145
23.70867542,49.50205994,-9.546248474,9.458081818,51.29366539
23.71861542,27.79779419,-4.916526031,7.038962402,29.09358317
23.72855542,17.71536072,-4.047732697,1.437161407,18.22864719
23.73849542,12.65737885,-3.83442627,-0.2237846375,13.22732564
23.74843542,9.124874725,-3.573967896,1.935624847,9.989155561
23.75837442,6.381379852,-3.315006409,5.218298492,8.884926306
23.76831442,5.572312317,-3.30662384,4.768184509,8.044874722
23.77825442,5.103187866,-3.234773254,2.714305573,6.623725473
23.78819442,4.281845856,-3.084485779,0.9868977356,5.368633308
23.79813442,2.987337799,-2.683918762,0.4355941772,4.039473893
23.80807442,1.520088959,-2.095342712,0.436791687,2.62524637
23.81801342,0.2375559998,-1.546134796,0.03338058472,1.564634118
23.82795342,-0.1204994202,-1.008153534,-1.452878723,1.772498305
23.83789342,0.3180885315,-0.5773493958,-3.360960846,3.424992036
23.84783342,-0.02514770508,-0.168848877,-3.816613312,3.820429233
23.85777342,-0.9794132996,0.3135978699,-3.368295593,3.52179063
23.86771342,-1.368304596,0.7813751221,-3.027154999,3.412692769
23.87765242,-1.156794434,1.112935638,-2.628533936,3.0799334
23.88759242,-0.775537262,1.258433075,-2.2547612,2.696119418
23.89753242,-0.4387376404,1.381626892,-1.751208344,2.273348686
23.90747242,-0.1296304321,1.49883316,-1.191971283,1.919401061
23.91741242,0.1101708984,1.598076782,-0.7276368713,1.759386952
23.92735142,0.2233355713,1.622625732,-0.4263134766,1.692494084
23.93729142,0.1739382935,1.556762695,-0.05164260864,1.56730073
23.94723142,-0.4457730103,1.182091827,1.792672119,2.193109207
23.95717142,-3.514541473,-1.042432251,16.76423859,17.16037185
23.96711142,-3.222947845,-2.789898376,17.21270599,17.73268658
23.97705058,-0.2052232361,-1.237776031,-0.6777905273,1.426045609
23.98698958,1.159638519,-0.1586700439,-3.724854126,3.90441749
23.99692958,2.444716187,-0.6134243774,-2.811154175,3.77564756
24.00686958,4.632566528,-1.346899109,-2.627785492,5.493638725
24.01680958,10.3527713,-3.190315704,-1.712438965,10.96769963
24.02674958,17.50115616,-4.654421082,-4.30355072,18.61382957
24.03668958,29.55289444,-6.467450867,-6.650220795,30.97461746
24.04662858,46.12193893,-10.21999741,-6.497687988,47.68544377
24.05656858,64.11063126,-16.47429153,-5.375471649,66.41137717
24.06650858,76.16775833,-19.10626831,-3.577410736,78.60899927
24.07644858,54.3837085,-11.74367889,3.88472168,55.77268871
24.08638858,19.2231752,-4.520299988,37.30168076,42.20638535
24.09632758,10.13841705,-4.821024628,25.81127518,28.14696618
24.10626758,11.51181107,-5.384902039,1.792971497,12.8348631
24.11620758,9.86852829,-4.797224121,-3.929328918,11.65507768
24.12614758,6.275849304,-4.11524231,-3.219355316,8.166134484
24.13608758,2.645448761,-3.684288483,0.3517684937,4.54929905
24.14602758,0.05628295898,-3.304079132,2.599045258,4.204181601
24.15596658,-0.9500743103,-2.501298523,2.061513062,3.377716921
24.16590658,-0.3739224243,-1.573976898,-0.4564009094,1.680929221
24.17584658,0.5544470215,-0.8101153564,-3.123404846,3.274042795
24.18578658,-0.09310638428,-0.2680924988,-4.159101105,4.168772528
24.19572658,-1.710942078,0.2827619934,-4.131708069,4.480880349
24.20566658,-2.466121674,0.8551716614,-3.659290466,4.494828294
24.21560558,-2.416425018,1.24376358,-3.103346558,4.125144551
24.22554558,-2.051633606,1.453327789,-2.595901794,3.613871642
24.23548558,-1.649420013,1.632654877,-2.051034851,3.097239462
24.24542558,-1.179247742,1.829794922,-1.49658783,2.641694499
24.25536558,-0.7135661316,2.130519562,-1.095422058,2.499647918
24.26530458,-0.375718689,2.598596191,-0.8196954346,2.750593991
24.27524458,-0.2353106689,2.868185577,-0.6303392029,2.946046016
24.28518458,-0.2526745605,2.968626709,-0.4845423889,3.018504646
24.29512458,-0.4746629333,3.003953247,-0.2833607483,3.054395738
24.30506458,-0.7490423584,2.572700043,0.1478924561,2.683602456
24.31500458,-0.866098938,1.880389709,0.905766449,2.259735757
24.32494358,0.4445755005,0.9743238831,7.699389038,7.773515676
24.33488358,3.081042938,0.1601669312,9.112300873,9.620421312
24.34482358,1.757944336,0.6092330933,-0.8427474976,2.042487844
24.35476358,1.771116943,0.7098239136,-2.927312622,3.494261639
24.36470358,3.360960846,0.7072792053,-2.934497681,4.517474772
24.37464358,7.444169769,0.3712280273,-3.400778046,8.192604294
24.38458258,21.3745015,-1.684746552,-2.492466888,21.58518187
24.39452258,48.51441376,-7.353009338,-3.623215485,49.20206072
24.40446258,74.17195862,-15.8496405,-6.984026642,76.16736294
24.41440258,78.54122269,-24.08446609,-5.310207367,82.32243601
24.42434258,54.16695923,-22.16036728,15.70429276,60.59510014
24.43428258,14.18121002,-16.73983932,41.04374908,46.53942713
24.44422158,10.58074722,-13.13862808,12.5027504,20.99748859
24.45416158,10.43210632,-8.501421204,-2.347717896,13.66070218
24.46410158,9.553433533,-4.524940338,-7.604486389,13.02195802
24.47404158,8.785979462,-2.898871765,-8.045319672,12.26067132
24.48398158,5.958658905,-1.815724182,-6.378535767,8.915614885
24.49392158,2.456990662,-0.8746311951,-4.808450775,5.47019028
24.50386058,0.2076182556,-0.2583627319,-3.836970978,3.851259914
24.51380058,-1.186283112,0.256716156,-3.235970764,3.456107289
24.52374058,-2.205064545,0.5399272156,-2.950214996,3.722579693
24.53368058,-2.476150818,0.8018824768,-2.693199463,3.745352016
24.54362058,-2.468666382,1.204395447,-2.367776184,3.626464691
24.55355958,-2.472558289,1.424886932,-2.003583527,3.486860222
24.56349958,-2.412084045,1.447789307,-1.681752777,3.277580773
24.57343958,-2.30745163,1.998943176,-1.308429108,3.321459555
24.58337958,-2.333946533,3.107837219,-0.6102809143,3.934259955
24.59331958,-2.404599609,3.688330078,-0.06541397095,4.403425602
24.60325958,-2.121238861,3.668870544,-0.292641449,4.248047127
24.61319858,-2.144590302,3.032992859,-0.9907896423,3.844473613
24.62313858,-2.550396423,2.158960419,-1.2461586,3.56630667
24.63307858,-2.802621918,1.503174133,-0.829125824,3.286589679
24.64301858,-2.684068451,0.8520281982,-0.2357597351,2.825908377
24.65295858,-2.46073288,-0.1700463867,0.9644444275,2.648447684
24.66289858,-2.025587769,-2.665806427,13.37319031,13.78592575
24.67283758,0.243842926,-3.363056488,15.27992523,15.64754688
24.68277758,-1.055904236,-0.1743873596,-2.606380005,2.817545286
24.69271758,-0.8117619324,0.2812651062,-4.292174377,4.377308349
24.70265758,1.333277435,0.3662882996,-4.276007996,4.494000469
24.71259758,2.21614151,0.7387138367,-4.810396729,5.347606755
24.72253758,3.777993622,1.520088959,-5.572462006,6.901901119
24.73247658,11.22949814,2.257455597,-0.1869612122,11.45568369
24.74241658,23.28991837,1.192120972,-3.382066956,23.56437622
24.75235658,49.24160156,-7.938441925,-7.976013794,50.5110976
24.76229658,78.00982773,-26.97989502,-0.3863465881,82.5445166
24.77223658,76.97248489,-38.34037079,28.91058014,90.72248402
24.78217658,48.05232468,-25.80977829,12.79943344,56.02674414
24.79211558,18.32519257,-11.42349472,-5.525010681,22.28978818
24.80205558,9.1371492,-6.134543152,-7.01471283,13.05091228
24.81199558,3.434757385,-2.995720367,-5.405708771,7.070614268
24.82193558,-0.675844574,-2.164498901,-2.970722351,3.73724667
24.83187558,-3.622017975,-1.813478851,-0.9922865295,4.170413926
24.84181558,-4.387975159,-0.8129594421,-0.7569758606,4.526393874
