Time (s),Acceleration x (m/s^2),Acceleration y (m/s^2),Acceleration z (m/s^2),Absolute acceleration (m/s^2)
25.00544179,12.57609787,-34.51582397,-4.946763153,37.06711222
25.01544479,8.149952087,-47.44369034,-18.10036011,51.42906287
25.02544679,7.310497742,-49.37542328,-33.28059265,59.99144646
25.03544979,4.818629608,-30.46704346,-33.22835129,45.33854053
25.04545279,4.808301086,-18.16382813,-6.530170441,19.89189628
25.05545479,11.77855637,-15.96729584,-8.96051651,21.77107674
25.06545779,14.32476151,-19.24667633,-15.84395233,28.75176807
25.07545979,14.00742142,-22.05827957,-10.56338333,28.18440384
25.08546279,12.46562759,-24.36737778,-12.76635223,30.20166751
25.09546579,10.47057632,-26.51331528,-12.96304321,31.31500191
25.10546779,8.216114502,-27.80842209,-12.5531955,31.59739853
25.11547079,7.188052368,-27.38315643,-11.84352127,30.68834224
25.12547379,7.133116608,-24.92691422,-9.63920517,27.66128488
25.13547579,6.062692566,-20.25138702,-6.401737518,22.08748878
25.14547879,4.960085449,-15.57047104,-4.900808716,17.06047895
25.15548079,3.820804596,-11.86313049,-3.720513153,13.00671484
25.16548379,3.34883606,-7.95775177,-2.525847473,8.995577894
25.17548679,2.712359619,-4.583917694,-1.360221405,5.497217332
25.18548879,1.640289001,-3.429368591,-0.7432044983,3.873431279
25.19549179,0.3062631226,-3.074606323,-0.5282514954,3.134653216
25.20549479,-0.8946894836,-1.869013367,-0.6909631348,2.184287136
25.21549679,-1.466650085,-1.014290771,-1.975591736,2.661355096
25.22549979,-0.9740245056,0.1508862305,-2.194586334,2.405763823
25.23550279,-0.1890568542,0.918639679,-0.5601351929,1.092425187
25.24550479,0.439486084,1.279838562,0.8252339172,1.58497501
25.25550779,0.7271878052,1.421144714,1.467548218,2.168444644
25.26550979,0.7673043823,1.497935028,1.747316437,2.426042063
25.27551304,1.172212372,1.729952545,1.804048462,2.760689861
25.28551604,1.665436707,1.891466675,0.983454895,2.705274318
25.29551804,2.058369598,1.051712952,0.3266207886,2.334452115
25.30552104,2.000739441,-0.1097218323,0.02829116821,2.003945504
25.31552404,1.648222504,-0.6728507996,-0.1101708984,1.78367689
25.32552604,1.239721985,-1.052910461,-0.314046936,1.656549582
25.33552904,0.8503816223,-1.212778015,-1.173260193,1.889581673
25.34553204,0.3198847961,-0.9081614685,-2.07573349,2.288176798
25.35553404,-0.0008981323242,-0.5647755432,-1.608105927,1.704399276
25.36553704,-0.4691244507,-0.5002597046,-0.2468367004,0.7288798796
25.37554004,-1.620230713,-0.4722679138,0.1462458801,1.693981229
25.38554204,-1.66274231,-0.628692627,-0.1077758789,1.780893609
25.39554504,-0.6417155457,-0.443228302,-0.5224136353,0.9387045198
25.40554704,0.2550695801,-0.1707948303,-0.5137316895,0.5984576957
25.41555004,0.7845185852,-0.1905537415,-0.2342628479,0.8406302521
25.42555304,0.9138496399,-0.232616272,-0.1544787598,0.9555601402
25.43555504,0.7394622803,-0.3224295044,-0.3812571716,0.8922568465
25.44555804,0.4655319214,-0.3326083374,-0.7099736023,0.9118173018
25.45556104,0.3415896606,-0.3225791931,-0.8675958252,0.9866424621
25.46556304,0.2377056885,-0.4945715332,-0.9708810425,1.115219707
25.47556604,-0.04251159668,-0.8051756287,-1.17595459,1.425827558
25.48556804,-0.3109034729,-1.141077118,-1.481020203,1.895293856
25.49557104,-0.5194198608,-1.425335999,-1.638792114,2.233163517
25.50557404,-0.5408253479,-1.436113586,-1.811383209,2.374031049
25.51557604,-0.528999939,-1.23089035,-0.825383606,1.573591461
25.52557904,-0.4059558105,-1.204844513,2.298170929,2.626412009
25.53558204,-0.102387085,-1.869911499,5.304219818,5.625104444
25.54558404,1.003064117,-2.565514984,4.745282135,5.486866802
25.55558704,5.885760498,-5.70538559,-11.71299271,14.29642611
25.56559004,9.552236023,-15.76401855,-10.60155396,21.26364128
25.57559204,7.812853088,-24.55314148,8.012837219,26.98338359
25.58559504,15.0215625,-34.65518417,-18.17041443,41.91411565
25.59559704,18.82515289,-48.81289307,-24.80521729,57.89977302
25.60560004,9.16289566,-47.84320953,-35.41111221,60.22356867
25.61560304,1.848206635,-34.52989471,-31.95629654,47.08433269
25.62560504,3.721261597,-26.35075333,-10.13063324,28.47524747
25.63560804,8.86920639,-21.97205887,-6.891219635,24.67636726
25.64561104,11.60806091,-21.97086136,-8.134534149,26.14644283
25.65561304,11.7462236,-22.03882004,-8.360713806,26.33599994
25.66561604,8.798703003,-21.12586853,-9.73156311,24.86810842
25.67561904,7.930508423,-22.38100845,-12.24019638,26.71375883
25.68562104,8.219707031,-23.55905869,-12.32521957,27.82990958
25.69562404,7.490573273,-23.24111984,-9.809251556,26.31501008
25.70562704,5.263354797,-20.76212494,-7.082372131,22.55944881
25.71562904,3.524869995,-16.73639648,-5.316194916,17.91071199
25.72563204,3.270249481,-12.59435989,-4.305047607,13.70568742
25.73563404,2.451452179,-8.653804321,-2.739004211,9.402132263
25.74563704,1.372944946,-5.635630646,-0.9051676941,5.870659176
25.75564004,0.2588117981,-3.895499268,0.1835183716,3.908398276
25.76564204,-0.2264790344,-3.251837769,0.4195774841,3.286607201
25.77564504,-0.40251297,-2.085463257,0.1166075134,2.127150911
25.78564804,-0.5683680725,-0.7445516968,-0.9017248535,1.300195065
25.79565004,0.01362167358,-0.03382965088,-3.091820526,3.092035602
25.80565304,0.9635462952,0.6421646118,-2.436333618,2.697502243
25.81565604,1.135838013,1.051413574,-0.4418811035,1.609614055
25.82565804,0.8982820129,1.255139923,0.9066645813,1.790063536
25.83566104,0.5378315735,1.238973541,1.598226471,2.092521467
25.84566304,0.1332229614,1.216819611,1.258283386,1.755470137
25.85566604,-0.1053808594,1.202449493,0.3362008667,1.253004762
25.86566904,-0.2734812927,0.973276062,-0.409997406,1.090942796
25.87567104,-0.2023791504,0.04954696655,-0.6990463257,0.7294367607
25.88567404,-0.1058299255,-0.9345066833,-0.6381230164,1.136531433
25.89567704,-0.2281256104,-1.364562378,-0.5445675659,1.486817276
25.90567904,0.1463955688,-2.172432404,-2.690654755,3.461288376
25.91568204,1.285077667,-2.763104095,-4.858746185,5.735292786
25.92568504,0.5050497437,-1.795965271,-0.8015830994,2.030542283
25.93568704,-0.9044192505,-1.391805725,1.27894043,2.095420239
25.94569004,-0.7979905701,-0.9651928711,1.81243103,2.203018944
25.95569204,0.1231938171,-0.1728904724,0.96414505,0.9872403505
25.96569504,0.5083428955,0.2463876343,0.1986369324,0.5988121547
25.97569804,0.7405101013,0.4519102478,-0.5583389282,1.031659072
25.98570004,0.8870553589,0.506995697,-1.187330933,1.566418396
25.99570304,1.095871124,0.288899231,-1.564247131,1.931648357
26.00570604,0.7530839539,-0.04251159668,-1.646575928,1.811119809
26.01570804,0.0889151001,-0.4493655396,-1.474733276,1.544238816
26.02571104,-0.3939807129,-0.5944139099,-1.131946106,1.337853013
26.03571404,-0.9642947388,-0.7608677673,-0.6122268677,1.372445205
26.04571604,-1.326691132,-1.008153534,-0.2778222656,1.689280355
26.05571904,-1.538800049,-1.135838013,-0.1267863464,1.916796379
26.06572104,-1.464704132,-1.010847931,-0.2077679443,1.79174196
26.07572404,-0.746048584,-1.018182678,0.1240919495,1.268338783
26.08572704,0.3079096985,-1.378633118,2.339784393,2.733135317
26.09572904,1.005908203,-2.22781723,5.285658417,5.8235046
26.10573204,1.853745117,-2.885848846,2.141596527,4.043628347
26.11573504,5.816304932,-5.518424377,-10.06970993,12.87173138
26.12573704,8.479716339,-14.14408722,-5.247487793,17.30597933
26.13574004,8.583151245,-22.88575882,2.188299408,24.54011199
26.14574304,9.49176178,-30.92269592,-11.35448822,34.2816433
26.15574504,15.20088959,-46.47759933,-33.97335205,59.54345416
26.16574804,10.80587906,-56.08656738,-44.99762695,72.71352346
26.17575104,1.250050507,-40.74811386,-21.15191437,45.92793149
26.18575304,0.3739224243,-22.28176483,-3.599714355,22.57376365
26.19575604,7.858657837,-15.19415359,-6.223907318,18.20323677
26.20575804,11.27215942,-12.51756958,-3.921245728,17.29529688
26.21576104,10.3448378,-14.03990387,-3.778143311,17.84401683
26.22576404,6.953490143,-19.4036998,-8.90902359,22.45496142
26.23576604,5.935906219,-25.67999817,-18.5224823,32.21458737
26.24576904,7.260202332,-26.08325958,-15.80638046,31.35105471
26.25577204,6.404431915,-26.72856766,-7.29897171,28.4377929
26.26577404,4.571942596,-25.36325684,-7.960895233,26.97356686
26.27577654,2.835852814,-21.11179779,-8.327931976,22.87147827
26.28577954,2.710862732,-16.55197998,-5.223986664,17.56720964
26.29578154,2.956052856,-12.12792984,-2.820584564,12.79768057
26.30578454,2.909050598,-7.973618774,-2.049837341,8.731724049
26.31578654,2.66550705,-4.819827118,-1.46021347,5.698059727
26.32578954,2.776875458,-3.546724548,-0.9575587463,4.60512878
26.33579254,2.494263153,-2.977757721,-1.300495605,4.096300592
26.34579454,1.745669861,-1.581012268,-1.207089844,2.646512601
26.35579754,0.9678872681,0.1787283325,-0.8235873413,1.283372779
26.36580054,0.7707472229,1.220711517,-1.901645508,2.387560162
26.37580254,0.9376501465,1.442550201,-2.368973694,2.927827735
26.38580554,0.9605525208,1.506616974,-0.8839118958,1.993453308
26.39580854,1.060394897,1.527573395,0.8394543457,2.04024543
26.40581054,0.7147636414,1.361568604,1.730850677,2.315296999
26.41581354,0.2324665833,1.177750854,1.658251648,2.047177646
26.42581554,-0.4364923096,1.046324158,1.057999878,1.550704202
26.43581854,-1.001267853,0.8388555908,0.3109034729,1.342712547
26.44582154,-1.279988251,0.2839595032,-0.1893562317,1.3247108
26.45582354,-1.306183777,-0.4623884583,-0.3052153015,1.418828928
26.46582654,-1.382225647,-0.8259823608,-0.1330732727,1.615705139
26.47582954,-1.63924118,-1.147364044,0.1371148682,2.005581308
26.48583154,-1.773661652,-1.932631073,-0.790506134,2.739678533
26.49583454,-0.8893006897,-3.192710724,-2.676284637,4.259901049
26.50583754,0.07499404907,-3.771706696,-2.818937988,4.709331894
26.51583954,-0.2107617188,-2.615211639,-2.461631012,3.597690879
26.52584254,0.1330732727,-1.082249451,-2.028581543,2.303066531
26.53584454,1.015039215,0.03921844482,-1.124311981,1.515229397
26.54584754,1.14077774,0.6017486572,-0.462538147,1.370188614
26.55585054,1.000818787,0.7520361328,-0.1586700439,1.261892536
26.56585254,1.075962524,0.6491999817,-0.1016386414,1.260748343
26.57585554,1.054407349,0.1359173584,-0.254021759,1.093057839
26.58585854,1.115630035,-0.3541635132,-0.4348457336,1.248660475
26.59586054,1.095721436,-0.543968811,-0.4599934387,1.30694357
26.60586354,0.8924441528,-0.781973877,-0.3085084534,1.226016793
26.61586654,0.3995191956,-1.067879333,-0.07334747314,1.142524271
26.62586854,-0.04430786133,-1.242117004,-0.05448669434,1.244100735
26.63587154,-0.05014572144,-1.392554169,-0.5478607178,1.497288573
26.64587354,-0.08068222046,-1.671274567,0.03547622681,1.673596983
26.65587654,0.05448669434,-2.072440338,1.953587494,2.84859296
26.66587954,-0.07095245361,-3.385958862,2.971321106,4.505385753
26.67588154,-0.4709207153,-6.60516449,-3.098706207,7.311083669
26.68588454,0.7214996338,-13.6971167,-10.26131149,17.12968421
26.69588754,10.10952713,-22.51153702,-6.829248505,25.60489158
26.70588954,16.55871597,-30.76657059,-5.963149567,35.44477526
26.71589254,17.24144623,-45.97718994,-28.51151001,56.78094457
26.72589554,9.790241089,-55.43093079,-36.47345306,67.07271939
26.73589754,-1.194965057,-39.81929535,-18.48027008,43.91497018
26.74590054,1.091230774,-17.80442551,1.860032043,17.93454966
26.75590254,8.001460876,-9.753118286,-6.868017883,14.36371686
26.76590554,12.8385022,-8.179440765,-11.99515594,19.38076768
26.77590854,14.49914886,-10.37103333,-11.10465775,21.00231115
26.78591054,14.05292679,-16.30933456,-17.26165421,27.59427207
26.79591354,13.69996078,-23.42044693,-17.85008057,32.47817169
26.80591654,8.7522995,-28.23533432,-12.19858292,31.97877852
26.81591854,5.617967377,-26.54504929,-8.932524719,28.56555963
26.82592154,3.108585663,-23.83583313,-7.271878052,25.11355125
26.83592454,2.534978485,-21.93328949,-6.104006653,22.90751407
26.84592654,2.513123932,-18.62576752,-5.073998566,19.46742071
26.85592954,2.347268829,-14.6724884,-2.736309814,15.10890394
26.86593254,2.262245636,-10.79240707,-1.195713501,11.09159757
26.87593454,1.853745117,-6.830296326,-0.735869751,7.115533933
26.88593754,1.371448059,-4.638404388,-0.5551954651,4.868665839
26.89593954,0.5755531311,-3.978726196,-0.9416917419,4.128959541
26.90594254,-0.5016069031,-2.815944214,-1.503473511,3.231343977
26.91594554,-0.822689209,-1.063837738,-2.664159851,2.984345151
26.92594754,-0.3653901672,0.1161584473,-4.273762665,4.290926482
26.93595054,0.3161425781,0.4522096252,-4.602179718,4.635137305
26.94595354,1.595532074,0.6207591248,-2.977158966,3.434317982
26.95595554,2.105820923,0.6152206421,-1.161734161,2.482459357
26.96595854,1.807191925,0.7584727478,-0.06331832886,1.960926509
26.97596154,1.295855255,0.9776170349,0.4709207153,1.690189998
26.98596354,0.8816665649,1.121916962,0.3143463135,1.461111633
26.99596654,0.5783972168,0.9789642334,-0.1182540894,1.143196545
27.00596854,0.3942800903,0.01960922241,-0.3691323853,0.5404627916
27.01597154,0.2472857666,-1.278790741,-0.5519023132,1.414585513
27.02597454,0.06316864014,-2.176623688,-0.5745053101,2.252051799
27.03597654,-0.1354682922,-2.768642578,-0.4568499756,2.809349619
27.04597954,-0.6792874146,-2.898422699,-0.4731660461,3.014327726
27.05598254,-0.9086105347,-2.367476807,-1.465452576,2.928834373
27.06598454,-0.2537223816,-1.451681213,-3.19196228,3.515732725
27.07598754,0.5098397827,-0.9012757874,-3.003055115,3.176566491
27.08599054,0.9181906128,-0.3339555359,-1.349294128,1.665891637
27.09599254,1.075513458,0.2740800476,-0.7988887024,1.367505843
27.10599554,1.383423157,0.6878196716,-0.7418572998,1.713857574
27.11599754,1.437311096,1.130748596,-0.2450404358,1.845128828
27.12600054,1.051563263,1.390458527,0.07993377686,1.745150314
27.13600354,0.6248007202,1.172811127,0.2450404358,1.351261149
27.14600554,0.2034269714,0.6852749634,0.6231541443,0.9483171388
27.15600854,-0.3146456909,0.1193019104,1.114582214,1.164271605
27.16601154,-0.6351292419,-0.3559597778,1.341959381,1.526745394
27.17601354,-1.224453735,-1.024469604,1.975442047,2.539920511
27.18601654,-1.653162231,-1.534608765,1.806144104,2.889658448
27.19601954,-1.576970673,-1.400188293,0.4200265503,2.150299063
27.20602154,-1.275946655,-1.202299805,-1.433568878,2.26465989
27.21602454,-0.9970765686,-1.412013702,-2.740650787,3.240233189
27.22602754,-0.8360115051,-2.634820862,-1.158141632,2.997079954
27.23602954,-1.449286194,-5.172793121,1.122216339,5.487949404
27.24603254,0.1026864624,-10.08767258,-7.445816345,12.53841551
27.25603454,5.925577698,-19.17287979,-17.13591568,26.38847091
27.26603754,15.27842834,-28.96072586,-0.2163002014,32.74447741
27.27604117,16.34121826,-35.00350983,-5.915249176,39.08031841
27.28604317,10.33001862,-39.89803162,-30.43935104,51.23588882
27.29604617,3.348237305,-33.45572845,-22.35451355,40.37599207
27.30604917,7.821235657,-20.81795883,-12.85900955,25.688777
27.31605117,12.37461685,-15.72899139,-12.91050247,23.81624208
27.32605417,14.03526352,-16.13809067,-11.32245483,24.19968132
27.33605717,13.39384735,-20.25318329,-13.21841217,27.64621132
27.34605917,14.09439056,-23.18603439,-17.21989105,32.13671863
27.35606217,12.55888367,-23.80903885,-17.16914658,31.92766017
27.36606417,10.72504715,-23.96142197,-13.5258728,29.53177296
27.37606717,9.671537933,-24.42770233,-10.50680099,28.2956561
27.38607017,7.866890717,-23.3000972,-8.517587585,26.02559888
27.39607217,5.842799835,-20.59746735,-7.072941742,22.54818121
27.40607517,4.603826294,-18.11128738,-6.455775146,19.77096305
27.41607817,4.082610168,-15.33725601,-5.307063904,16.73511443
27.42608017,3.684138794,-12.06685684,-3.636537781,13.13035871
27.43608317,2.951412506,-8.30996933,-1.960173798,9.03375378
27.44608617,2.334245911,-5.844147034,-1.505419464,6.470629512
27.45608817,0.9472302246,-4.61714859,-1.619781647,4.983873873
27.46609117,-0.3315605164,-3.578757935,-2.127675476,4.176654602
27.47609417,-1.184037781,-2.082319794,-2.478396149,3.446802672
27.48609617,-1.319655762,-0.9574090576,-2.635269928,3.098833817
27.49609917,-0.203127594,0.1930984497,-2.285896454,2.303013337
27.50610117,0.4323010254,0.8960366821,-1.215023346,1.570365449
27.51610417,0.4743635559,0.969533844,0.3330574036,1.129576864
27.52610717,0.3833528137,1.072220306,1.587598572,1.953736162
27.53610917,0.2993774414,1.215322723,1.705403595,2.115428466
27.54611217,0.3216810608,1.338815918,1.288520508,1.885786803
27.55611517,0.5824388123,1.287472687,0.8167016602,1.632122082
27.56611717,1.278191986,0.3962260437,0.3778143311,1.39050836
27.57612017,1.579814758,-0.5087919617,0.170944519,1.668504108
27.58612317,1.452579346,-0.9214837646,0.1748364258,1.729071097
27.59612517,1.243613892,-1.002315674,0.2850073242,1.622480014
27.60612817,0.9547146606,-1.068627777,0.3891906738,1.484895548
27.61613117,0.7191046143,-1.006057892,0.366587677,1.289825745
27.62613317,0.4599934387,-0.6213578796,-0.748742981,1.076241437
27.63613617,0.7360194397,-0.1715432739,-1.700912933,1.861251331
27.64613817,0.8684939575,-0.3478765869,-0.2680924988,0.9732283709
27.65614117,0.3399430847,-0.4921765137,0.6828799438,0.9078127776
27.66614417,-0.3218307495,-0.283510437,0.8193960571,0.9248584203
27.67614617,-0.422870636,-0.01886077881,0.323177948,0.532559189
27.68614917,-0.2110610962,-0.1639091492,-0.1784289551,0.3213252052
27.69615217,0.07200027466,-0.2773731995,-0.3580554199,0.4586105266
27.70615417,0.4739144897,-0.1990859985,-0.4555027771,0.6868136271
27.71615717,0.7918533325,-0.416434021,-0.2965333557,0.9425396677
27.72616017,0.7011419678,-0.7282356262,0.2728825378,1.04708742
27.73616217,0.3989204407,-1.099164276,1.053359528,1.573806188
27.74616517,0.1131646729,-1.313668213,1.327738953,1.871208471
27.75616717,-0.03712280273,-1.05306015,0.8174501038,1.333618557
27.76617017,-0.05673202515,-0.7418572998,-0.337098999,0.8168270999
27.77617317,-0.05044509888,-1.041983185,-2.361489258,2.581647765
27.78617517,-0.4254153442,-2.345771942,-5.136418762,5.66272213
27.79617817,-0.4179309082,-4.088747406,-6.416107635,7.619642956
27.80618117,1.529070282,-5.51692749,-5.018014984,7.612819402
27.81618317,5.595065002,-8.555159454,-7.394772491,12.61658297
27.82618617,11.16962265,-14.66680023,-12.79449371,22.44046721
27.83618917,15.80757797,-22.7505899,-7.793243866,28.77852519
27.84619117,17.49980896,-34.79978348,-18.80733994,43.25487579
27.85619417,13.70295456,-38.45982239,-11.79906372,42.49878594
27.86619617,1.56439682,-29.95570679,-28.71912827,41.52806322
27.87619917,-3.466790771,-21.18739059,-30.83887024,37.57605722
27.88620217,2.092947693,-11.53710846,-2.283800812,11.94575438
27.89620417,4.809348907,-9.497449951,-8.643026733,13.7125236
27.90620717,7.679031372,-10.69510941,-10.97263229,17.13918165
27.91621017,12.65468445,-12.84044815,-10.28930328,20.75783971
27.92621217,14.99192413,-16.7295108,-19.07528275,29.47033649
27.93621517,14.67593124,-18.51095627,-18.08075089,29.74814301
27.94621817,12.42221786,-20.67350922,-12.56337433,27.1945556
27.95622017,10.48449738,-23.57058472,-12.99133438,28.88376565
27.96622317,8.478967896,-24.59744934,-13.00765045,29.0882516
27.97622617,6.604565735,-23.33542374,-11.48666336,26.83478572
27.98622817,6.074068909,-20.63908081,-9.865833893,23.66855822
27.99623117,5.601501617,-18.24061844,-8.337212677,20.82321053
28.00623417,5.602848816,-16.15440674,-6.482868805,18.28617948
28.01623617,5.640869751,-13.98526749,-4.999303894,15.88710665
28.02623917,4.605622559,-11.588302,-3.50675766,12.95368101
28.03624217,3.127446442,-8.949738922,-2.162852325,9.724025823
28.04624417,2.24308548,-6.182443542,-1.53401001,6.753312323
28.05624717,1.374292145,-3.855831757,-1.776805115,4.462415697
28.06624917,0.5348377991,-2.583327942,-2.3436763,3.528803384
28.07625217,-0.4014651489,-1.837279358,-2.08157135,2.80530016
28.08625517,-0.9541159058,-1.178349609,-1.567689972,2.180939433
28.09625717,-1.402583313,-0.5637277222,-0.4932243347,1.590062621
28.10626017,-1.636097717,-0.2903961182,-0.3348536682,1.695073044
28.11626317,-0.5942642212,-0.3050656128,-0.9187893677,1.135952858
28.12626517,-0.1987866211,-0.3517684937,-0.4676275635,0.6180070647
28.13626817,-0.1924996948,-0.02993774414,0.3559597778,0.4057829031
28.14627117,-0.1627116394,0.2432441711,1.055604858,1.095419747
28.15627317,-0.1676513672,0.2486329651,1.217268677,1.253661981
28.16627617,0.1782792664,-0.00209564209,0.6948550415,0.7173642152
28.17627917,1.129251709,-0.7159611511,-0.02903961182,1.337405358
28.18628117,1.864522705,-1.335522766,-0.3040177917,2.313545503
28.19628417,1.898801422,-1.61588974,-0.3315605164,2.515249266
28.20628717,1.596879272,-1.745370483,-0.1856140137,2.372929434
28.21628917,1.059047699,-1.565145264,0.001047821045,1.889778512
28.22629217,0.5144801331,-1.011296997,0.0462538147,1.13558392
28.23629417,-0.04041595459,-0.343535614,-0.6929090881,0.7744502385
28.24629717,-0.2615061951,0.1386117554,-2.069446564,2.090504195
28.25630017,-0.2056723022,0.3320095825,-1.21801712,1.279100138
28.26630217,-0.4965174866,0.3719764709,0.2053729248,0.653509103
28.27630454,-0.4562512207,0.001047821045,0.7554789734,0.882561473
28.28630754,-0.1850152588,-0.4056564331,1.020128632,1.113305983
28.29630954,0.3074606323,-0.4267625427,1.010548553,1.139239521
28.30631254,1.009949799,-0.340841217,0.693507843,1.271662085
28.31631554,1.657802582,-0.3887416077,0.2216889954,1.717141651
28.32631754,1.911674652,-0.4111949158,-0.076640625,1.956899338
28.33632054,1.65914978,-0.4656816101,-0.1246907043,1.727768829
28.34632354,1.128203888,-0.5075944519,-0.09175918579,1.240530487
28.35632554,0.3820056152,-0.4638853455,-0.2356100464,0.6454688201
28.36632854,-0.2023791504,-0.3878434753,-0.6982978821,0.8240144501
28.37633154,-0.6649172974,-0.3700305176,-2.012115784,2.151196765
28.38633354,-0.8813671875,-0.5789959717,-4.099674683,4.233128507
28.39633654,-0.8756790161,-1.398841095,-4.038751373,4.362921361
28.40633854,-0.1660047913,-2.507585449,-0.672102356,2.601396539
28.41634154,2.623743896,-5.356012115,-2.690654755,6.542974922
28.42634454,8.298742676,-13.69561981,-16.29975449,22.84996999
28.43634654,17.71521103,-25.76412323,-16.19826553,35.21366999
28.44634954,21.321362,-33.53027344,-1.879790955,39.77955918
28.45635254,15.48170563,-42.73717758,-22.27038849,50.61738595
28.46635454,-1.154998169,-41.41812057,-27.23735962,49.58496236
28.47635754,-4.977748718,-29.05143723,-16.22805359,33.64689749
28.48636054,2.531385956,-20.03373962,-6.25055191,21.13830734
28.49636254,7.994724884,-15.01303024,-4.53646637,17.60358572
28.50636554,13.28113174,-15.77838867,-9.154662781,22.56443795
28.51636854,12.96394135,-18.14077606,-8.72879837,23.9445913
28.52637054,12.44018051,-21.88508972,-15.42168045,29.5219151
28.53637354,12.87038589,-23.0080545,-22.53189468,34.6800185
28.54637654,9.458680573,-21.53287216,-15.95921265,28.42230972
28.55637854,5.367987213,-24.00004166,-10.80333435,26.8612978
28.56638154,3.19780014,-25.31221298,-8.878487091,27.01409974
28.57638454,2.523602142,-23.34500381,-7.54820343,24.66441051
28.58638654,1.695823517,-20.23746597,-5.659580841,21.08226036
28.59638954,1.52577713,-16.178806,-2.724484406,16.47739587
28.60639254,1.931583252,-11.235336,-2.201921082,11.61086755
28.61639454,2.615810394,-6.705156555,-1.37249588,7.327027596
28.62639754,2.27811264,-4.3316922,-0.2306703186,4.899649305
28.63640054,1.588796082,-4.246070251,-0.5471122742,4.566477571
28.64640254,0.6408174133,-3.654799805,-1.000968475,3.843194824
28.65640554,0.01691482544,-1.919308777,-0.5918692017,2.008567013
28.66640754,-0.3445834351,-0.975970459,-0.7297325134,1.266398682
28.67641054,-0.3109034729,-0.3552113342,-1.369651794,1.448717398
28.68641354,0.1836680603,0.01541793823,-1.952988739,1.961666813
28.69641554,0.798589325,0.2314187622,-1.555714874,1.763958141
28.70641854,1.080153809,0.552052002,-0.409997406,1.280465359
28.71642154,1.171014862,0.6917115784,0.05328918457,1.361095313
28.72642354,1.041534119,0.8710386658,0.004640350342,1.357764048
28.73642654,0.8646020508,1.000070343,-0.1384620667,1.329228777
28.74642954,0.9723779297,1.046473846,0.01811233521,1.428619756
28.75643154,1.126856689,0.5770500183,0.2543211365,1.291306301
28.76643454,1.183439026,-0.5460644531,0.2338137817,1.324153767
28.77643754,0.9916877747,-1.248703308,0.1899549866,1.605860359
28.78643954,0.7354206848,-1.668430481,0.1824705505,1.832429905
28.79644254,0.3369493103,-2.12019104,0.02589614868,2.146954935
28.80644554,-0.1625619507,-2.066003723,-0.6412664795,2.169336412
28.81644754,-0.3852987671,-1.261127472,-1.990410919,2.387599897
28.82645054,-0.222437439,-0.6973997498,-2.000290375,2.130024978
28.83645354,-0.4480183411,-0.4658312988,-0.8306227112,1.052451102
28.84645554,-1.078207855,-0.3710783386,0.07843688965,1.142971416
28.85645854,-0.9419911194,-0.384250946,0.4601431274,1.116569638
28.86646054,-0.1501377869,-0.3793112183,0.06780899048,0.4135413093
28.87646354,0.2371069336,-0.467328186,-0.08801696777,0.5313777546
28.88646654,0.4912783813,-0.5893244934,-0.1627116394,0.7843040763
28.89646854,0.5658233643,-0.7789801025,-0.155975647,0.9753432637
28.90647154,0.6475534058,-0.9144483948,-0.01960922241,1.120680954
28.91647454,0.7575746155,-0.8921447754,0.1519340515,1.180222671
28.92647654,0.7782316589,-0.8893006897,0.1193019104,1.187742892
28.93647954,0.6653663635,-0.6798861694,-0.2501298523,0.9836272384
28.94648254,0.8931925964,-0.3182382202,-1.116378479,1.464707987
28.95648454,0.9419911194,-0.4590953064,-2.768941956,2.9606005
28.96648754,-0.1984872437,-1.342558136,-1.979633331,2.400168257
28.97649054,-0.6023474121,-2.656675415,0.8577163696,2.855945384
28.98649254,0.9047186279,-5.66556839,-1.437909851,5.914792111
28.99649554,6.266418915,-12.3832988,-11.47828079,18.01013673
29.00649854,15.36988815,-21.92206284,-6.354585571,27.51710484
29.01650054,17.87777298,-34.03217972,-5.46663208,38.82895942
29.02650354,19.38573715,-44.16550735,-13.51075424,50.08931348
29.03650654,14.90061401,-44.22433502,-31.48253174,56.29360453
29.04650854,3.690874786,-31.83504868,-32.89783859,45.92777662
29.05651154,0.423918457,-21.76369217,-9.135502625,23.60710511
29.06651454,4.959187317,-17.84065018,-9.727970581,20.91687714
29.07651654,11.96267349,-16.85809341,-9.572593689,22.78015409
29.08651954,13.07860291,-20.35152878,-9.966424713,26.16417778
29.09652154,9.335037689,-23.3836235,-14.0607106,28.83817538
29.10652454,8.228388977,-23.43466736,-13.4568663,28.24849146
29.11652754,6.822512512,-23.199207,-9.588610382,26.01329144
29.12652954,5.230722656,-22.44836838,-8.632548523,24.61321995
29.13653254,3.937412109,-21.14652557,-8.626111908,23.1751713
29.14653554,2.943479004,-19.14638489,-7.122488708,20.63923371
29.15653754,2.165247345,-15.66731964,-5.280269623,16.674365
29.16654054,1.723815308,-11.28787674,-3.124302979,11.83845301
29.17654354,1.402733002,-7.707621918,-1.791025543,8.036346682
29.18654554,1.140328674,-5.777385864,-1.189725952,6.007826957
29.19654854,0.4703219604,-4.779710541,-0.5767506409,4.83730058
29.20655154,-0.3239263916,-3.012485504,-0.623303833,3.0933
29.21655354,-0.2549198914,-1.301842804,-1.199755096,1.788628281
29.22655654,0.399818573,-0.4559518433,-2.475252686,2.548454989
29.23655954,0.7388635254,-0.3879931641,-3.544628906,3.641545288
29.24656154,1.11158844,0.1730401611,-3.09840683,3.296315616
29.25656454,1.59134079,0.6182144165,-1.376687164,2.193130667
29.26656754,1.781744843,0.7414082336,-0.4797523499,1.988583207
29.27656942,1.607357483,0.858614502,-0.659229126,1.937885441
29.28657242,1.383572845,0.9478289795,-0.959355011,1.932101351
29.29657542,1.107846222,0.7379653931,-1.29884903,1.859818533
29.30657742,1.030008087,-0.2077679443,-1.442250824,1.78442473
29.31658042,1.19227066,-1.258582764,-1.977388,2.629753449
29.32658242,1.714235229,-2.506986694,-3.818708954,4.879151851
29.33658542,2.180814972,-3.222199402,-4.674928436,6.082226468
29.34658842,1.345252533,-2.513423309,-4.613406372,5.423146639
29.35659042,-1.118174744,-1.165476379,-3.089874573,3.486541958
29.36659342,-2.287692719,-1.014889526,-1.240470428,2.793260748
29.37659642,-2.014361115,-0.4674778748,-0.1242416382,2.071623095
29.38659842,-1.14781311,0.6336323547,0.3442840576,1.355542847
29.39660142,-0.4969665527,0.6580316162,1.088985443,1.365968762
29.40660442,-0.6279441833,0.5604345703,2.337988129,2.484872088
29.41660642,-0.4023632813,0.6939569092,2.383942566,2.515284191
29.42660942,-0.2538720703,0.5945635986,1.905537415,2.012220102
29.43661242,-0.3685336304,0.4825964355,1.202150116,1.34680409
29.44661442,-0.3748205566,0.3101550293,0.8104147339,0.9452294075
29.45661742,-0.45984375,-0.04864883423,0.7794291687,0.9062741376
29.46662042,-0.7949967957,-0.6673123169,1.068478088,1.489621112
29.47662242,-0.8824150085,-0.962049408,1.141226807,1.733953268
29.48662542,-0.6292913818,-0.910556488,0.7253915405,1.323372075
29.49662842,-0.6773414612,-1.104253693,0.2308200073,1.315844044
29.50663042,-0.7852670288,-1.464105377,-0.2414479065,1.678852571
29.51663342,-0.4306544495,-1.749412079,0.4381388855,1.854149821
29.52663542,0.6780899048,-1.845362549,2.206561432,2.955348069
29.53663842,1.953138428,-3.460803223,1.89670578,4.40333981
29.54664142,3.788172455,-9.111851807,-9.822573853,13.92332758
29.55664342,9.659712524,-19.09114975,-21.36836426,30.23886631
29.56664642,15.13457748,-28.27874405,-1.670975189,32.11751794
29.57664942,11.45986908,-32.0523967,5.173242188,34.43032338
29.58665142,14.28599213,-34.98360123,-20.85148911,43.15931561
29.59665442,9.7609021,-36.49411011,-25.80199448,45.74754858
29.60665742,8.228388977,-31.69613754,-18.30708023,37.51667239
29.61665942,10.36190231,-23.90424088,-11.1278595,28.33039019
29.62666242,12.10936844,-21.07961472,-10.9871521,26.67778986
29.63666542,14.02688095,-22.23012222,-11.95563812,28.87679009
29.64666742,12.79149994,-23.53346191,-13.09611649,29.81534114
29.65667042,10.22793091,-24.9562532,-15.15912643,30.93904101
29.66667342,7.594008179,-25.10279846,-13.53485413,29.5129078
29.67667542,6.210585022,-24.48997284,-12.33225494,28.11431393
29.68667842,4.650529175,-22.99922287,-9.801916809,25.42969224
29.69668142,3.525319061,-20.91136459,-6.778204651,22.26335783
29.70668342,2.871778107,-18.19825653,-4.974455566,19.08320881
29.71668642,2.558778992,-14.11804138,-3.547023926,14.77998042
29.72668942,2.341131592,-10.44782364,-3.30901886,11.20658386
29.73669142,2.039658508,-7.208110657,-2.674338684,7.954190937
29.74669442,1.358724518,-4.345912628,-2.129621429,5.02676599
29.75669742,0.4577481079,-2.119891663,-1.884281616,2.872976018
29.76669942,-0.4942721558,-0.759969635,-2.06869812,2.258621421
29.77670242,-0.960402832,0.3132984924,-2.435884552,2.637055763
29.78670442,-0.9949809265,0.9957293701,-2.679727478,3.026946213
29.79670742,-0.5025050354,1.206640778,-2.462379456,2.787795878
29.80671042,-0.05104385376,1.313668213,-1.423240356,1.937509422
29.81671242,0.2354603577,1.526525574,0.02634521484,1.544802893
29.82671542,0.2101629639,1.4239888,0.6867718506,1.59485678
29.83671842,0.1207987976,1.259331207,0.499511261,1.360154013
29.84672042,0.02035766602,1.187480621,-0.2451901245,1.212700646
29.85672342,-0.2806663513,0.9708810425,-0.6969506836,1.227649728
29.86672642,-0.5641767883,0.1014889526,-0.8807684326,1.050879864
29.87672842,-0.4345463562,-0.8890013123,-1.26367218,1.604998831
29.88673142,-0.4433779907,-1.74222702,-3.419638824,3.863401186
29.89673442,0.5080435181,-4.02977005,-6.297703857,7.493879419
29.90673642,2.269430695,-5.249583435,-5.286107483,7.787899219
29.91673942,1.088237,-2.640209656,-3.873644714,4.812493134
29.92674242,0.1663041687,-0.7833210754,-1.995799713,2.150457039
29.93674442,0.7438032532,-0.3525169373,-1.246457977,1.493709798
29.94674742,0.9702822876,0.03382965088,-0.6509962463,1.168926121
29.95675042,0.3712280273,0.314046936,-0.05822891235,0.4897206679
29.96675242,0.170944519,0.5801934814,0.7238946533,0.9433291968
29.97675542,-0.1863624573,0.7711962891,1.438957672,1.643190148
29.98675742,-0.4114942932,0.7174580383,1.676513672,1.869430844
29.99676042,-0.6023474121,0.4781057739,1.765877838,1.926066477
