Time (s),Acceleration x (m/s^2),Acceleration y (m/s^2),Acceleration z (m/s^2),Absolute acceleration (m/s^2)
20.0035515,-20.82783829,-37.10933075,6.957531738,43.11969996
20.0135545,-18.15709213,-32.13023483,3.747307434,37.09547544
20.0235565,-11.46525787,-29.55424164,-2.880160675,31.8308131
20.0335595,-6.429878998,-29.04080933,-1.904788971,29.80503601
20.0435615,-7.620952148,-28.06648544,6.389612732,29.77639447
20.0535645,-7.797734528,-25.40651688,8.433911591,27.88237128
20.0635665,-5.602699127,-21.89242447,7.638465729,23.85402786
20.0735685,-3.128194885,-18.56065292,6.399791565,19.88066328
20.0835715,-1.142723694,-15.23906021,5.220693512,16.1490066
20.0935735,0.1465452576,-11.98123489,4.265080719,12.71858399
20.1035765,1.183888092,-9.06110733,3.381767578,9.74379849
20.1135785,1.646126862,-6.526278534,2.530787201,7.190753021
20.1235805,1.535656586,-4.157005463,1.830693054,4.794827695
20.1335835,1.356778564,-2.070943451,1.229243774,2.76418073
20.1435855,1.146914978,-0.67045578,0.8511300659,1.577766557
20.1535885,0.962049408,0.1480421448,0.6020480347,1.144516219
20.1635905,1.234931946,0.9675878906,0.3303630066,1.603253864
20.1735935,2.052531738,2.733166351,0.04326004028,3.418326531
20.1835955,0.0130229187,8.404273224,0.1767823792,8.406142399
20.1935975,2.278561707,33.01250015,1.796564026,33.13977447
20.2036005,4.814588013,16.18838608,0.00209564209,16.88917126
20.2136025,3.54417984,4.980742493,-0.05523513794,6.113268965
20.2236055,2.826123047,1.66034729,0.4237687683,3.305042295
20.2336075,2.088906097,0.1851649475,0.7265890503,2.21940226
20.2436095,1.156944122,-0.8870553589,1.094823303,1.823190878
20.2536125,0.9596543884,-0.9939331055,1.085392914,1.756962533
20.2636145,0.8090675354,-0.8927435303,1.031355286,1.585961857
20.2736175,0.643661499,-0.8690927124,0.9337582397,1.428820044
20.2836195,0.4824467468,-0.9056167603,0.8976832581,1.36335315
20.2936225,0.3350033569,-0.9574090576,0.9891430664,1.41677922
20.3036245,0.2411485291,-0.9379495239,1.143023071,1.498133393
20.3136265,0.2222877502,-0.8298742676,1.272653503,1.53549669
20.3236295,0.3176394653,-0.5758525085,1.309027863,1.46494194
20.3336315,0.5066963196,-0.1555265808,1.20170105,1.313398299
20.3436345,0.6691085815,0.4337979126,1.077309723,1.340329498
20.3536365,0.9035211182,1.685794373,1.006806335,2.161460635
20.3636385,1.24376358,3.316353607,0.9533674622,3.667977455
20.3736415,1.024170227,2.780018921,0.9392967224,3.108007109
20.3836435,0.5593867493,1.278790741,0.9855505371,1.708662973
20.3936465,0.4291575623,0.6884184265,1.057251434,1.332620253
20.4036485,0.4195774841,0.553099823,1.05425766,1.262308953
20.4136515,0.3668870544,0.5138813782,0.9883946228,1.172861506
20.4236535,0.2981799316,0.5858816528,0.9458830261,1.151895517
20.4336555,0.2029779053,0.6086343384,0.9333091736,1.132564259
20.4436585,0.09984237671,0.5587879944,0.8411009216,1.014723255
20.4536605,0.07978408813,0.5113366699,0.7228468323,0.8890096927
20.4636635,0.1336720276,0.457149353,0.5986051941,0.7649718428
20.4736655,0.1273851013,0.3032693481,0.5287005615,0.6226745099
20.4836675,0.04999603271,-0.08771759033,0.5176235962,0.5273785797
20.4936705,-0.06197113037,-0.6288423157,0.5222639465,0.8197821106
20.5036725,-0.06706054688,-0.8978329468,0.6403683472,1.104840594
20.5136755,-0.1486408997,-1.06009552,0.8553213501,1.370208466
20.5236775,-0.2348616028,-1.958527222,1.075812836,2.24685605
20.5336805,0.3963757324,-6.412365417,2.019001465,6.73438274
20.5436825,-1.479373627,-23.57926666,9.08221344,25.31120233
20.5536845,-9.86493576,-64.50057037,24.2887912,69.6246071
20.5636875,-18.66618347,-91.32658539,32.2752832,98.64413571
20.5736895,-14.90705063,-62.04013687,20.02326141,66.87398402
20.5836925,-8.312963104,-35.85239456,7.942633209,37.65082965
20.5936945,-8.996890869,-32.31884262,3.546125793,33.73465046
20.6036975,-15.41524384,-38.0377002,-11.41092087,42.59936025
20.6136995,-22.23326569,-45.27949081,-37.68248886,62.96443725
20.6237015,-12.64585281,-38.15550522,5.698499908,40.59843683
20.6337045,-9.061556396,-35.67740845,11.37514526,38.52769403
20.6437065,-8.423583069,-35.47757401,9.485175476,37.67736141
20.6537095,-7.367828522,-31.35619446,8.218359833,33.24210081
20.6637115,-7.288792877,-25.78942062,6.060447235,27.47634871
20.6737135,-7.152276764,-21.35129974,4.741839294,23.01126036
20.6837165,-6.346053314,-17.83496201,3.338058472,19.22240611
20.6937185,-5.367538147,-14.7507756,2.213596802,15.85231395
20.7037215,-4.224515076,-11.88124283,1.325792999,12.67943949
20.7137235,-2.932102661,-8.947044525,0.8650511169,9.454900591
20.7237265,-1.941313019,-6.160139923,0.6601272583,6.492440843
20.7337285,-1.132993927,-3.626209259,0.5192701721,3.834411342
20.7437305,-0.4447251892,-1.646126862,0.4517605591,1.763973282
20.7537335,0.01002914429,-0.4418811035,0.4263134766,0.6140868617
20.7637355,0.3903881836,0.1791773987,0.4150868225,0.5973311848
20.7737385,0.7003935242,0.325872345,0.2092648315,0.8003347073
20.7837405,0.841999054,0.3062631226,0.1794767761,0.9137677059
20.7937435,1.405577087,1.167122955,0.276026001,1.847704872
20.8037455,7.869435425,28.24701004,-1.214424591,29.347852
20.8137475,8.768016815,30.9137146,-2.875520325,32.26150161
20.8237505,5.840704193,11.48696274,-0.6087840271,12.90095952
20.8337525,2.932701416,3.08089325,1.56319931,4.531692056
20.8437555,1.010398865,-0.7798782349,1.703757019,2.128826885
20.8537575,0.7282356262,-0.8746311951,1.342258759,1.759819715
20.8637595,0.5854325867,-0.9081614685,1.328936462,1.712764049
20.8737625,0.4691244507,-1.033301239,1.459614716,1.848854867
20.8837645,0.340841217,-1.063688049,1.529519348,1.893946789
20.8937675,0.200433197,-1.059646454,1.403631134,1.770085996
20.9037695,0.1068777466,-1.05545517,1.222058716,1.618281796
20.9137715,0.06152206421,-1.129850464,1.132544861,1.600938755
20.9237745,-0.002395019531,-1.299896851,1.278042297,1.822945329
20.9337765,-0.1779798889,-1.470392303,1.653012543,2.219500131
20.9437795,-0.2389031982,-1.497336273,1.935774536,2.458925316
20.9537815,-0.1637594604,-1.335822144,1.932331696,2.354812889
20.9637845,-0.02290237427,-0.9494755554,1.695224762,1.943145734
20.9737865,0.255668335,-0.4120930481,1.328188019,1.413955583
20.9837885,0.4273612976,0.03622467041,0.9565109253,1.048266691
20.9937915,0.554147644,0.730480957,0.7238946533,1.168206107
21.0037935,1.283131714,3.492986298,0.7866142273,3.803438209
21.0137965,2.050885162,5.880072327,0.6430627441,6.260583855
21.0237985,1.864822083,4.928052063,0.329614563,5.279384841
21.0338005,1.382824402,3.501817932,0.5285508728,3.801880874
21.0438035,0.8063731384,2.20207077,0.9434880066,2.527750568
21.0538055,0.2682421875,1.183888092,1.336869965,1.805759172
21.0638085,-0.4270619202,0.4453239441,1.544338531,1.663032411
21.0738105,-0.7580236816,-0.1872605896,1.715881805,1.885183493
21.0838135,-0.7352709961,-0.9044192505,2.060914307,2.367691998
21.0938155,-1.017733612,-1.497186584,2.382745056,2.99246109
21.1038175,-1.283431091,-2.028431854,2.410886536,3.402073638
21.1138205,-1.501677246,-2.555934906,2.383792877,3.803985578
21.1238225,-2.110461273,-3.597019958,2.341730347,4.78291756
21.1338255,-3.504512329,-7.13521225,2.93105484,8.472540527
21.1438275,-7.215595093,-20.5290596,6.029162292,22.58003318
21.1538305,-16.99865112,-49.64486298,11.5564183,53.73190266
21.16383212,-23.61354538,-76.01103424,14.71245529,80.94277727
21.17383413,-17.38020767,-63.92995697,10.29544052,67.04555998
21.18383712,-8.489895172,-38.41506546,4.700525208,39.62184387
21.19383913,-7.16440155,-31.99207214,1.737886047,32.83049767
21.20384213,-10.35396881,-38.83688828,-4.190236359,40.41121926
21.21384412,-9.23429718,-50.64223892,-48.57982773,70.78070549
21.22384613,-8.051157532,-51.66566071,-3.916006622,52.43564381
21.23384912,-8.618477783,-42.15803192,12.18002151,44.72058518
21.24385113,-6.552324371,-32.95951035,7.576793976,34.44807809
21.25385413,-6.386469269,-30.03998154,7.728728027,31.66892353
21.26385612,-6.625671844,-27.9675412,5.744154968,29.3100359
21.27385913,-7.217840424,-24.66046829,4.071533203,26.01563567
21.28386112,-8.125852203,-21.27914978,3.349883881,23.02288886
21.29386312,-8.299790497,-18.6233725,3.170107727,20.63410062
21.30386613,-7.542066193,-15.7833284,2.687810669,17.69803786
21.31386812,-6.255940704,-12.54660919,2.018103333,14.16428386
21.32387113,-4.915029144,-9.209299164,1.282682648,10.51731797
21.33387313,-3.777544556,-6.219416656,0.6210585022,7.303197935
21.34387612,-2.672093353,-3.761228485,0.2362088013,4.619817876
21.35387813,-1.654060364,-1.974543915,0.05703140259,2.576430077
21.36388012,-0.9354048157,-0.7940986633,0.0636177063,1.228666785
21.37388313,-0.3502716064,-0.01152603149,0.276026001,0.4461091805
21.38388513,0.02260299683,0.4177812195,0.4321513367,0.6015037993
21.39388812,0.09864486694,0.705333252,0.4870870972,0.8628323396
21.40389013,-1.132993927,17.23156677,-1.050665131,17.30070709
21.41389212,1.731299744,31.2999115,-0.1272354126,31.34801505
21.42389513,4.01689682,15.50580551,0.7370672607,16.03461047
21.43389713,2.074985046,3.624862061,1.415007477,4.409924496
21.44390012,1.53865036,-1.301393738,1.674867096,2.620353102
21.45390213,1.783690796,-1.252146149,1.51993927,2.656997971
21.46390412,1.938319244,-1.377285919,1.421144714,2.770135429
21.47390713,1.966610413,-1.534459076,1.510209503,2.915965349
21.48390913,2.004481659,-1.592238922,1.462758179,2.948361069
21.49391212,1.790875854,-1.617386627,1.287622375,2.735168589
21.50391413,1.36201767,-1.594334564,1.213825836,2.422884231
21.51391712,0.926124115,-1.523082733,1.077010345,2.082651717
21.52391913,0.5851332092,-1.517843628,0.960402832,1.88907484
21.53392113,0.2941383362,-1.444795532,0.9018745422,1.728389187
21.54392412,0.1886077881,-1.214723969,0.7896080017,1.461029779
21.55392613,0.3649411011,-0.7574249268,0.6852749634,1.084654923
21.56392912,0.809815979,-0.1826202393,0.5839356995,1.014954665
21.57393112,1.084494781,0.1317260742,0.5310955811,1.214719394
21.58393313,1.128353577,0.2562670898,0.4379891968,1.237210229
21.59393612,1.139280853,0.4656816101,0.3248245239,1.272922306
21.60393813,1.346300354,1.29884903,0.342487793,1.90179687
21.61394113,1.952689362,3.127446442,0.6864724731,3.750354842
21.62394312,2.1950354,3.576213226,1.294957123,4.391400164
21.63394613,1.667682037,2.329904938,1.487307129,3.228266236
21.64394812,1.211580505,1.233135681,1.115480347,2.057388474
21.65395013,1.032103729,0.5608836365,0.9449848938,1.507589139
21.66395313,0.8723858643,-0.05942642212,0.8526269531,1.221294934
21.67395512,0.8425978088,-0.3990701294,0.8391549683,1.254356048
21.68395813,0.8053253174,-0.5926176453,0.895587616,1.342319529
21.69396012,0.698896637,-0.7505392456,1.008003845,1.437997712
21.70396213,0.6159690857,-0.9656419373,1.111289062,1.59588397
21.71396513,0.519868927,-1.25079895,1.089733887,1.738471069
21.72396712,0.3653901672,-1.576970673,1.023571472,1.915214096
21.73397013,0.3020718384,-2.242486725,1.107546844,2.51925666
21.74397212,0.44697052,-4.279450836,1.621428223,4.598098693
21.75397513,0.3421884155,-11.34116592,3.614683228,11.90819349
21.76397713,-2.283651123,-32.4478743,10.99164276,34.33505234
21.77397912,-10.0780925,-65.04813171,22.56003616,69.58291902
21.78398213,-16.21024063,-75.3865329,24.56361969,80.92757661
21.79398412,-12.75018585,-51.98120453,14.68296661,55.49957092
21.80398713,-8.4948349,-35.70345428,7.192842407,37.3983402
21.81398913,-10.01642075,-33.33777374,3.240311737,34.9604843
21.82399212,-18.10784454,-40.13424042,-20.22728714,48.45404455
21.83399413,-20.31350784,-44.83252029,-17.20552094,52.14042028
21.84399613,-13.39220078,-39.56662079,12.55364456,43.61722726
21.85399912,-10.8066275,-34.24862961,11.02322708,37.56678537
21.86400113,-8.644074554,-31.13734955,8.2572789,33.35321898
21.87400412,-8.170908508,-27.6410701,6.414760437,29.52865817
21.88400613,-7.781268768,-24.35390579,4.980592804,26.04740247
21.89400913,-6.380332031,-21.40458893,4.276007996,22.74091705
21.90401112,-5.02205658,-19.24502975,3.868405609,20.26220088
21.91401313,-4.248315582,-17.13112564,3.438499603,17.98185003
21.92401612,-3.547323303,-14.38538544,2.664010162,15.05389541
21.93401813,-2.571203156,-11.3335318,2.037862244,11.79885212
21.94402113,-1.618135071,-8.281378784,1.446292419,8.561037171
21.95402312,-0.8978329468,-5.538482666,0.9006770325,5.682615011
21.96402513,-0.1983375549,-3.197949829,0.4843927002,3.240502613
21.97402812,0.4528083801,-1.378932495,0.2719844055,1.476640028
21.98403013,0.807121582,-0.3459306335,0.2076182556,0.9023406183
21.99403313,0.9503736877,0.2345622253,0.2044747925,1.000019762
22.00403512,0.9533674622,0.4393363953,0.04176315308,1.050557065
22.01403813,0.9750723267,0.5066963196,-0.005538482666,1.098880283
22.02404012,0.7337741089,9.223070526,-1.287772064,9.341403067
22.03404213,3.077151031,35.95283569,-3.175496521,36.22373574
22.04404513,5.353018341,13.20943085,-0.00643661499,14.25285621
22.05404712,3.193758545,1.48012207,0.4810995483,3.552789293
22.06405013,1.765129395,-0.7238946533,0.9876461792,2.14829007
22.07405212,1.880838776,-0.9883946228,1.147064667,2.414588118
22.08405412,1.832639008,-0.9943821716,1.299896851,2.457049747
22.09405713,1.609153748,-1.058448944,1.520837402,2.454106019
22.10405912,1.296753387,-1.053509216,1.436412964,2.203345915
22.11406213,0.940045166,-0.983454895,1.157093811,1.785982792
22.12406413,0.6497987366,-0.8628057861,0.8574169922,1.379070746
22.13406612,0.4415817261,-0.8161029053,0.68332901,1.152370127
22.14406913,0.3257226562,-0.7679031372,0.6438111877,1.053690335
22.15407112,0.2528242493,-0.7180567932,0.5737568665,0.9532694273
22.16407475,0.3198847961,-0.5646258545,0.5228627014,0.8333750914
22.17407675,0.4785548401,-0.17902771,0.5297483826,0.7360020413
22.18407975,0.5137316895,0.0513432312,0.4558021545,0.6887031147
22.19408175,0.4617897034,0.1526824951,0.3972738647,0.6280033424
22.20408375,0.3899391174,0.2246827698,0.3453318787,0.567264461
22.21408675,0.3448828125,0.2691403198,0.3338058472,0.550279029
22.22408875,0.3180885315,0.2968327332,0.3588038635,0.5639416617
22.23409175,0.2891986084,0.2893482971,0.3815565491,0.5594136862
22.24409375,0.2947370911,0.329614563,0.4294569397,0.616400013
22.25409675,0.408949585,0.8068222046,0.5260061646,1.0463672
22.26409875,0.6508465576,2.025138702,0.6001020813,2.210183366
22.27410075,0.6589297485,3.552562408,0.7556286621,3.691322629
22.28410375,0.2303709412,4.131109314,0.889151001,4.231988237
22.29410575,-0.08367599487,3.203787689,0.8063731384,3.304768504
22.30410875,-0.2198927307,1.911375275,0.7569758606,2.067539772
22.31411075,-0.3171903992,0.8529263306,0.8652008057,1.255653419
22.32411275,-0.3272195435,-0.03113525391,1.056203613,1.106168209
22.33411575,-0.3177891541,-0.8595126343,1.341360626,1.624499998
22.34411775,-0.2263293457,-1.224304047,1.437011719,1.901354268
22.35412075,-0.277073822,-1.376986542,1.504970398,2.058591202
22.36412275,-0.3290158081,-2.288890228,2.183808746,3.180611658
22.37412575,0.004939727783,-7.336244202,3.405268707,8.088037979
22.38412775,-4.367767181,-30.04192749,9.752220154,31.88574282
22.39412975,-16.1774588,-79.26676392,23.79272278,84.32688594
22.40413275,-19.46641937,-95.86829086,27.75169006,101.6849398
22.41413475,-9.844877472,-54.99443848,14.86947876,57.81359074
22.42413775,-5.572611694,-33.28074234,6.728957062,34.40843901
22.43413975,-6.407874756,-31.73296097,2.133513336,32.44369815
22.44414175,-15.39922714,-41.23834442,-47.41749481,64.70051052
22.45414475,-14.31218765,-44.14110809,-13.24296112,48.25611006
22.46414675,-8.451125793,-38.18843674,14.44630875,41.69501246
22.47414975,-7.065756683,-35.33611816,8.443940735,37.0117049
22.48415175,-7.116052094,-32.5686731,8.851094055,34.49200676
22.49415475,-7.251819763,-28.0842984,6.506070557,29.72617804
22.50415675,-7.704777832,-23.65006943,5.130580902,25.39709129
22.51415875,-8.253536682,-21.09263763,4.332440643,23.06057831
22.52416175,-7.794441376,-18.73159744,3.523971863,20.59233927
22.53416375,-6.558611298,-15.85428085,2.732717285,17.37358188
22.54416675,-5.129233704,-12.81485138,1.851649475,13.92688264
22.55416875,-3.775299225,-9.850116577,1.323098602,10.63147547
22.56417175,-2.617606659,-6.919211426,0.8217910767,7.443298459
22.57417375,-1.630110168,-4.318220215,0.3927832031,4.632338894
22.58417575,-0.806073761,-2.2348526,0.004041595459,2.375781427
22.59417875,-0.2580633545,-0.8548722839,-0.1380130005,0.9035767289
22.60418075,0.1850152588,0.009729766846,-0.07858657837,0.2012490115
22.61418375,0.5170248413,0.4550537109,-0.09999206543,0.6959791516
22.62418575,0.5984555054,1.187480621,-0.4237687683,1.395650095
22.63418775,2.986589355,28.83124512,-3.829336853,29.23737731
22.64419075,10.59272232,29.64854553,0.009131011963,31.48399755
22.65419275,8.051157532,11.50447632,0.305514679,14.04519321
22.66419575,2.820584564,3.219505005,0.4155358887,4.30041624
22.67419775,1.19346817,-0.6761439514,1.200653229,1.822938587
22.68420075,1.082997894,-0.7265890503,1.075064392,1.690141868
22.69420275,0.896635437,-0.9327104187,1.176703033,1.74886645
22.70420475,0.7866142273,-1.041683807,1.308429108,1.848202864
22.71420775,0.6041436768,-1.065184937,1.377734985,1.843301989
22.72420975,0.4059558105,-1.055904236,1.264570312,1.696723888
22.73421275,0.2113604736,-0.9957293701,1.094224548,1.494482382
22.74421475,0.0592767334,-0.9702822876,0.9614506531,1.367241313
22.75421675,-0.1697470093,-0.9788145447,0.8180488586,1.286893894
22.76421975,-0.460891571,-0.9524693298,0.7282356262,1.284502235
22.77422175,-0.6435118103,-0.7864645386,0.8110134888,1.300144915
22.78422475,-0.5322930908,-0.4647834778,0.9535171509,1.186825418
22.79422675,-0.329614563,-0.2145039368,1.019978943,1.093167299
22.80422975,-0.1561253357,-0.08352630615,1.086291046,1.100627095
22.81423175,-0.04805007935,-0.03637435913,1.195563812,1.197081757
22.82423375,-0.02514770508,0.001796264648,1.248403931,1.248658483
22.83423675,-0.0002993774414,0.2674937439,1.448388062,1.472881859
22.84423875,0.08831634521,0.8193960571,1.997595978,2.160925581
22.85424175,0.5038522339,1.476379852,2.321821747,2.79721661
22.86424375,0.9530680847,1.473835144,2.462828522,3.024244225
22.87424575,1.008153534,0.6200106812,2.645748138,2.898408185
22.88424875,1.090182953,-0.03802093506,2.852318573,3.053795295
22.89425075,1.676813049,0.01062789917,3.110980682,3.534121639
22.90425375,2.201322327,0.3833528137,2.936144257,3.689677826
22.91425575,2.44666214,0.6499484253,2.464924164,3.533332664
22.92425875,2.195334778,0.4951702881,1.60541153,2.76442301
22.93426075,1.30932724,-0.339793396,0.6378236389,1.495532135
22.94426275,0.4182302856,-1.032253418,-0.04834945679,1.114810011
22.95426575,0.0715512085,-1.519041138,0.1531315613,1.52841579
22.96426775,-0.05403762817,-2.778671722,0.9280700684,2.930059839
22.97427075,-0.03966751099,-8.05489975,2.758613434,8.5142781
22.98427275,-2.757565613,-28.6603006,8.568631439,30.04061323
22.99427475,-14.51890778,-71.01547256,20.59342575,75.35307035
23.00427775,-22.52650589,-88.10633194,25.39514053,94.41971382
23.01427975,-14.84058884,-56.72139725,16.2955632,60.85314587
23.02428275,-6.972201233,-36.31478302,7.88515274,37.80939949
23.03428475,-7.662266235,-37.28281998,-0.2836601257,38.0630983
23.04428775,-13.28158081,-48.28000122,-40.49768463,64.40047645
23.05428975,-13.77375732,-47.79845261,4.762646027,49.97090413
23.06429175,-8.775052185,-37.84340424,16.20589966,42.09223169
23.07429475,-6.178701324,-33.10455872,8.048762512,34.62471279
23.08429675,-5.288352814,-29.50050339,8.134234772,31.05498593
23.09429975,-5.020559692,-25.87384506,5.957611084,27.02138057
23.10430175,-5.31335083,-23.44694183,5.106181641,24.57771082
23.11430475,-5.266647949,-21.34770721,4.255949707,22.39587667
23.12430675,-4.642745361,-18.6140918,3.106040955,19.43417064
23.13430875,-3.697161713,-15.167509,2.140399017,15.75765344
23.14431175,-3.022514648,-11.55192764,1.538500671,12.03950212
23.15431375,-2.060016174,-7.939489746,1.01803299,8.265322452
23.16431675,-1.295705566,-4.889582062,0.4816983032,5.081230059
23.17431879,-0.6553372192,-2.482587433,0.1821711731,2.574081112
23.18432079,-0.05164260864,-0.827479248,0.09235794067,0.8342175101
23.19432379,0.5358856201,0.08038284302,0.1001417542,0.5510564129
23.20432579,1.014889526,0.4953199768,-0.1080752563,1.134470313
23.21432879,3.657344513,6.918313293,-0.2372566223,7.829145446
23.22433079,14.82921249,37.16291931,0.829125824,40.02093908
23.23433379,7.466623077,19.79229172,0.7580236816,21.16742477
23.24433579,1.640887756,3.905827789,-0.1835183716,4.240481381
23.25433779,0.7385641479,1.54688324,0.3059637451,1.74124627
23.26434079,-0.3091072083,-0.3683839417,0.5854325867,0.757618181
23.27434279,-0.4080514526,-0.578846283,0.6523434448,0.9628712153
23.28434579,-0.3863465881,-0.7062313843,0.8282276917,1.154983794
23.29434779,-0.4719685364,-0.9969268799,0.9767189026,1.473294715
23.30434979,-0.5272036743,-1.567989349,1.081351318,1.976323604
23.31435279,-0.6234535217,-2.393372955,1.529369659,2.907903016
23.32435479,-1.062191162,-3.16157547,2.396067352,4.106695542
23.33435779,-1.313518524,-3.910617828,2.799029388,4.985261099
23.34435979,-1.312321014,-3.86825592,2.672542419,4.881400751
23.35436279,-0.747096405,-2.473755798,2.06750061,3.309407736
23.36436479,-0.2378553772,-1.265019379,1.338217163,1.856791422
23.37436679,-0.01002914429,-0.6017486572,1.002016296,1.168862134
23.38436979,0.09056167603,-0.1110690308,0.8057743835,0.8184192715
23.39437179,0.0549357605,0.1959425354,0.6108796692,0.6438830524
23.40437479,0.07858657837,0.3712280273,0.4592449951,0.5957281797
23.41437679,-0.2293231201,1.592837677,0.450712738,1.671186085
23.42437879,-0.913250885,7.785010986,1.160836029,7.923885633
23.43438179,0.02559677124,11.15989288,0.7378157043,11.18428524
23.44438379,0.4312532043,4.735552368,-0.3143463135,4.765527165
23.45438679,0.1053808594,1.324445801,0.4504133606,1.402901992
23.46438879,-0.1628613281,0.3852987671,0.8514294434,0.9486364157
23.47439179,-0.4125421143,0.1374142456,0.9119036865,1.010268283
23.48439379,-0.5538482666,0.1978884888,1.170715485,1.310145985
23.49439579,-0.5575904846,0.2854563904,1.245110779,1.393805349
23.50439879,-0.6122268677,0.4117936707,1.329385529,1.520414959
23.51440079,-0.6023474121,0.2923420715,1.511856079,1.653479693
23.52440379,-0.595461731,-0.2677931213,1.57607254,1.705957936
23.53440579,-0.5589376831,-1.061143341,1.326242065,1.788114801
23.54440779,-0.5201683044,-1.415007477,0.8304730225,1.721193384
23.55441079,-0.4628375244,-1.635349274,0.6038442993,1.803666754
23.56441279,-0.3712280273,-2.488874359,0.6797364807,2.606596921
23.57441579,-0.3947291565,-5.832321625,1.573827209,6.053818524
23.58441779,-2.357297974,-20.62950073,5.059927826,21.37138329
23.59442079,-11.18863312,-58.83500198,14.06819504,61.51956665
23.60442279,-16.71963135,-92.52993301,21.09982269,96.36668041
23.61442479,-9.779463501,-68.99602203,14.11594574,71.10097669
23.62442779,-5.185217285,-39.37576767,-0.7213499451,39.72225955
23.63442979,-6.479725342,-32.32258484,-39.65493713,51.56791997
23.64443279,-11.73754166,-36.40010559,0.8029302979,38.25417975
23.65443479,-11.4357692,-39.59266663,11.94725555,42.90795944
23.66443779,-9.195228424,-38.24711472,7.12817688,39.97755515
23.67443979,-9.432634735,-35.91990417,6.591542816,37.7181992
23.68444179,-10.59227325,-32.36315048,4.352648621,34.3295108
23.69444479,-12.3672821,-29.81694534,1.978735199,32.34061362
23.70444679,-13.9041362,-27.74121185,-3.073109436,31.18242839
23.71444979,-12.2041214,-24.88634857,-5.309458923,28.22164557
23.72445179,-7.958500214,-21.65097656,0.4526586914,23.07178822
23.73445379,-5.564827881,-18.89775192,2.507585449,19.8590111
23.74445679,-3.737877045,-15.57166855,2.42914856,16.19720189
23.75445879,-2.229314117,-11.80385376,2.344125366,12.23910653
23.76446179,-1.028361511,-8.094567261,1.92364975,8.383315269
23.77446379,-0.1998344421,-4.809498596,1.496438141,5.040886595
23.78446679,0.1719923401,-2.290387115,1.201401672,2.592068765
23.79446879,0.3778143311,-0.7318281555,1.093027039,1.368584753
23.80447079,0.5713618469,0.1628613281,1.146615601,1.291396728
23.81447379,0.9978250122,1.150806885,1.013093262,1.829308393
23.82447579,8.123008118,26.44909882,0.8348139954,27.68095019
23.83447879,9.207203522,30.95757339,2.8678862,32.4248164
23.84448079,3.423081665,8.587492218,1.3841716,9.347643644
23.85448279,1.562450867,2.261646881,2.373464355,3.631753347
23.86448579,0.9946815491,0.5035528564,2.850971375,3.061208036
23.87448779,0.7198530579,-0.5698649597,2.461631012,2.62727268
23.88449079,0.6319857788,-1.374591522,2.414029999,2.848938173
23.89449279,0.5137316895,-1.906585236,2.395318909,3.104277723
23.90449579,0.126486969,-2.358345795,2.292033691,3.291080717
23.91449779,-0.3698808289,-2.636766815,2.190993805,3.448159642
23.92449979,-0.7689509583,-2.62329483,2.177222443,3.494747331
23.93450279,-1.018931122,-2.317780151,2.06166275,3.265084801
23.94450479,-0.7809260559,-1.201102295,1.801354065,2.301601333
23.95450779,-0.5168751526,0.8321195984,1.46844635,1.765196202
23.96450979,-0.5893244934,3.074306946,1.174457703,3.343354222
23.97451179,-0.572409668,3.888763275,1.193767548,4.107945179
23.98451479,-0.3600013733,2.895877991,1.342857513,3.212316396
23.99451679,0.1194515991,1.569186859,1.424737244,2.122850041
24.00451979,0.6515950012,0.6559359741,1.316961365,1.609103876
24.01452179,0.8940907288,0.2140548706,1.107696533,1.439517047
24.02452479,0.9611512756,0.07828720093,0.7774832153,1.238717405
24.03452679,0.8346643066,-0.1216969299,0.467328186,0.9642978176
24.04452879,0.7104226685,-0.2772235107,0.3430865479,0.8362186449
24.05453179,0.6204597473,-0.40251297,0.2426454163,0.7783725246
24.06453379,0.5201683044,-0.5623805237,0.1990859985,0.7915062559
24.07453679,0.4384382629,-0.6785389709,0.2716850281,0.8523238821
24.08453879,0.4197271729,-0.6933581543,0.3332070923,0.8763237964
24.09454079,0.4716691589,-0.5731581116,0.2915936279,0.7975016365
24.10454379,0.4701722717,-0.4086502075,0.1884580994,0.6508251781
24.11454579,0.4420307922,-0.2290237427,0.07379653931,0.5032782781
24.12454879,0.4596940613,-0.03562591553,0.01107696533,0.4612055236
24.13455079,0.4993615723,0.04311035156,-0.007933502197,0.5012817798
24.14455379,0.62599823,-0.03547622681,0.1155596924,0.6375628511
24.15455579,0.687071228,-0.4385879517,0.0672102356,0.8178896499
24.16455779,0.510737915,-1.231788483,-0.0687071228,1.33524408
24.17456038,0.4486170959,-2.79768219,0.4050576782,2.862228967
24.18456237,0.4366419983,-7.935148773,1.678309937,8.122435997
24.19456538,-2.049837341,-24.89024048,4.689897308,25.41104171
24.20456738,-9.74219101,-60.68919617,12.42131973,62.70867564
24.21456937,-17.42945526,-84.96586258,17.1939949,88.42294485
24.22457238,-13.98616562,-59.66457687,10.94314362,62.25132091
24.23457437,-8.412805481,-35.93651962,3.369044037,37.06155955
24.24457738,-8.424930267,-30.62496506,-4.006119232,32.01432376
24.25457938,-10.67894302,-32.69650726,-24.8528183,42.43540961
24.26458237,-12.60438904,-36.39546524,0.98989151,38.52895532
24.27458438,-11.92135941,-37.44583099,9.135502625,40.34558807
24.28458637,-8.931327209,-35.80823639,5.787864075,37.35636184
24.29458938,-7.534581757,-31.87486588,5.470523987,33.20698164
24.30459138,-6.903344421,-27.94643509,4.379442902,29.11767365
24.31459437,-6.281387787,-25.36580154,3.773203583,26.40296926
24.32459638,-5.881120148,-23.24456268,3.093317413,24.17572917
24.33459937,-5.939498749,-21.19906631,1.903591461,22.09755006
24.34460137,-5.281467133,-19.10222672,0.7062313843,19.83148313
24.35460338,-3.52427124,-16.44899414,0.5255570984,16.83051117
24.36460637,-2.097887421,-13.36899902,0.9961784363,13.56921656
24.37460838,-1.522783356,-10.29858398,1.226848755,10.48259792
24.38461138,-1.360969849,-7.444169769,1.178948364,7.65883945
24.39461337,-1.038240967,-4.802313538,0.9816586304,5.010370574
24.40461538,-0.5370831299,-2.549498291,0.7873626709,2.721826556
24.41461837,-0.02664459229,-0.9337582397,0.5936654663,1.106821156
24.42462038,0.4532574463,0.01631607056,0.440533905,0.6322805139
24.43462338,1.895957336,3.063529358,0.2719844055,3.613010084
24.44462537,12.05024139,31.50678131,0.6152206421,33.73816952
24.45462838,8.988358612,24.17577621,0.8635542297,25.80706244
24.46463037,2.437531128,5.383105774,0.1568737793,5.911344615
24.47463238,1.376986542,2.094743958,0.4379891968,2.544774788
24.48463538,0.8014334106,0.6337820435,0.4278103638,1.10769892
24.49463737,0.3918850708,-0.1923500061,0.4351451111,0.6163795107
24.50464038,0.3382965088,-0.6059399414,0.7744894409,1.03992386
24.51464237,0.3173400879,-1.134640503,1.124311981,1.628554953
24.52464438,0.1746867371,-1.750759277,1.507515106,2.316953884
24.53464738,-0.02709365845,-2.559377747,2.018103333,3.259430867
24.54464937,-0.3712280273,-3.555256805,2.61401413,4.428400509
24.55465238,-0.8452922058,-4.539160767,2.977308655,5.493893538
24.56465437,-1.534459076,-4.614753571,2.931653595,5.678477611
24.57465738,-1.516496429,-3.247646484,2.345023499,4.283235263
24.58465938,-0.8428971863,-1.769620056,1.493294678,2.464134697
24.59466137,-0.5498066711,-0.950223999,0.9422904968,1.446763424
24.60466438,-0.4059558105,-0.3733236694,0.6177653503,0.8281332685
24.61466638,-0.2194436646,0.04490661621,0.4070036316,0.4645687056
24.62466937,-0.106129303,0.7500901794,0.392334137,0.8531264744
24.63467138,0.0773890686,4.908592529,0.686023407,4.956904054
24.64467337,1.095422058,11.96162567,0.2814147949,12.01497534
24.65467638,1.551373901,8.868607635,-1.039288788,9.063061489
24.66467838,1.233884125,4.133803711,-0.3876937866,4.331409658
24.67468137,1.091230774,2.332898712,0.4707710266,2.618172332
24.68468338,1.042432251,1.557211761,0.5457650757,1.951776879
24.69468537,0.9587562561,1.029409332,0.5284011841,1.502699219
24.70468838,0.7244934082,0.3272195435,0.7217990112,1.073758418
24.71469038,0.5051994324,-0.276026001,1.063837738,1.20961463
24.72469337,0.3463796997,-0.7235952759,1.383423157,1.599196251
24.73469538,0.2965333557,-1.091979218,1.839225311,2.159421309
24.74469837,0.1974394226,-1.43925705,2.08980423,2.545137501
24.75470038,0.2118095398,-1.842219086,2.098635864,2.800519047
24.76470238,0.3128494263,-2.315235443,2.282752991,3.266366657
24.77470537,0.2877017212,-2.945275269,2.374512177,3.794170102
24.78470738,0.2710862732,-4.251908112,2.642904053,5.01369646
24.79471037,0.07948471069,-8.136330414,3.551364899,8.877971788
24.80471238,-0.9809101868,-17.2338121,5.99203949,18.2721373
24.81471538,-3.839515686,-33.84012909,9.695937195,35.41055514
24.82471737,-7.572003937,-51.29892334,13.34998856,53.54565317
24.83471938,-8.635991364,-56.59610779,14.74164459,59.11865906
24.84472237,-6.910828857,-47.95278168,12.85257294,50.12402076
24.85472437,-5.185366974,-40.3096756,9.874216461,41.82413332
24.86472738,-6.655759277,-40.7635318,9.388027496,42.35681429
24.87472937,-9.803264008,-44.06596436,7.890242157,45.82760217
24.88473238,-17.94183975,-44.76800446,-9.85445755,49.22595017
24.89473438,-20.48849396,-41.20690979,-7.582482147,46.63991675
24.90473637,-13.42049194,-35.73024857,9.990075531,39.45328726
24.91473938,-10.78207855,-31.91483276,8.333171082,34.70232713
24.92474137,-9.043294373,-29.06805267,7.229815521,31.2890251
24.93474438,-7.337292023,-26.74862595,6.452182617,28.4772805
24.94474638,-6.01419342,-24.43129486,5.688321075,25.7956525
24.95474837,-4.809199219,-21.69588318,5.048850861,22.78882707
24.96475138,-3.828887787,-18.89206375,4.39246582,19.77028605
24.97475337,-3.153641968,-16.14662292,3.811523895,16.88746884
24.98475638,-2.484832764,-13.31870361,3.14870224,13.9095861
24.99475838,-1.87559967,-10.49916687,2.445614319,10.94218481
