"Time (s)","Acceleration x (m/s^2)","Acceleration y (m/s^2)","Acceleration z (m/s^2)","Absolute acceleration (m/s^2)"
1.837999996E-3,-7.791297913E0,-8.316705322E-1,3.909719696E0,8.756820607E0
1.177799999E-2,-8.082741852E0,-5.719606018E-1,3.903881836E0,8.994339785E0
2.171700000E-2,-8.338559875E0,-2.779719543E-1,3.912713470E0,9.215105854E0
3.165699998E-2,-8.473878479E0,1.317260742E-2,3.961811371E0,9.354289889E0
4.159700000E-2,-8.439749451E0,2.628533936E-1,4.024081879E0,9.353699678E0
5.153599998E-2,-8.316705322E0,3.920347595E-1,4.147275696E0,9.301675890E0
6.147600000E-2,-8.476572876E0,2.107617188E-1,4.367318115E0,9.537828670E0
7.141499998E-2,-9.003028107E0,-2.652484131E-1,4.650828552E0,1.013681794E1
8.135500000E-2,-9.609267426E0,-9.015751648E-1,4.894222412E0,1.082147269E1
9.129399998E-2,-1.013991394E1,-1.639390869E0,5.041067047E0,1.144193227E1
1.012340000E-1,-1.041010208E1,-2.512076111E0,5.050647125E0,1.184017686E1
1.111730000E-1,-1.064526306E1,-3.146756287E0,5.088817749E0,1.221146047E1
1.211130000E-1,-1.077983322E1,-3.337160339E0,5.195695496E0,1.242323207E1
1.310520000E-1,-1.058044785E1,-3.057092743E0,5.377118225E0,1.225581874E1
1.409920000E-1,-1.043450134E1,-2.362537079E0,5.919590149E0,1.222709889E1
1.509310000E-1,-1.051263885E1,-1.414708099E0,6.780300293E0,1.258925918E1
1.608710000E-1,-1.082668579E1,-4.775070190E-1,7.682324524E0,1.328394701E1
1.708100000E-1,-1.152692963E1,2.468367004E-1,8.317004700E0,1.421631465E1
1.807496667E-1,-1.257969040E1,4.101470947E-1,7.775131531E0,1.479423879E1
1.906886667E-1,-1.352557343E1,-8.382568359E-2,6.077511749E0,1.482849663E1
2.006286667E-1,-1.356509125E1,-6.026467896E-1,4.449347534E0,1.428886200E1
2.105676667E-1,-1.276216095E1,-9.295669556E-1,3.226240997E0,1.319641913E1
2.205076667E-1,-1.175565399E1,-1.085392914E0,2.273771667E0,1.202262518E1
2.304466667E-1,-1.090227859E1,-1.083596649E0,1.455124054E0,1.105220549E1
2.403866667E-1,-1.024155258E1,-7.658074951E-1,8.054750061E-1,1.030168192E1
2.503256667E-1,-9.763297119E0,-1.202000427E-1,3.502716064E-1,9.770317747E0
2.602656667E-1,-9.591604156E0,5.957611084E-1,-1.347198486E-3,9.610088626E0
2.702046667E-1,-9.823322296E0,1.198108521E0,-1.541793823E-1,9.897317629E0
2.801446667E-1,-1.033031799E1,1.635648651E0,-2.510279846E-1,1.046201851E1
2.900836667E-1,-1.087039490E1,1.900148621E0,-4.311035156E-1,1.104363619E1
3.000236667E-1,-1.149235153E1,1.954335938E0,-6.997947693E-1,1.167832545E1
3.099636667E-1,-1.205952209E1,1.713187408E0,-1.061592407E0,1.222677646E1
3.199026667E-1,-1.219753510E1,1.217867432E0,-1.415755920E0,1.233966889E1
3.298426667E-1,-1.162093414E1,6.652166748E-1,-1.713486786E0,1.176540099E1
3.397816667E-1,-1.073208252E1,2.285746765E-1,-2.067799988E0,1.093186344E1
3.497216667E-1,-9.668693848E0,-5.643264771E-2,-1.869612122E0,9.847957902E0
3.596606667E-1,-8.742420044E0,-2.853067017E-1,-1.272952881E0,8.839214738E0
3.696006667E-1,-8.312813416E0,-4.646337891E-1,-5.739065552E-1,8.345544930E0
3.795396667E-1,-8.031099243E0,-5.992039490E-1,1.311273193E-1,8.054489109E0
3.894796667E-1,-7.739804993E0,-7.536827087E-1,8.137078857E-1,7.818870729E0
3.994186667E-1,-7.395820313E0,-9.452842712E-1,1.521436157E0,7.609631294E0
4.093586667E-1,-7.048841858E0,-1.131646729E0,2.303859100E0,7.501637329E0
4.192976667E-1,-6.748715973E0,-1.368603973E0,3.237317963E0,7.609104527E0
4.292376667E-1,-6.693480835E0,-1.599723358E0,4.278552704E0,8.103567964E0
4.391766667E-1,-6.802005157E0,-1.723366241E0,5.227728882E0,8.750223690E0
4.491166667E-1,-6.846612396E0,-1.757644958E0,5.941145325E0,9.233776306E0
4.590556667E-1,-6.709647217E0,-1.617386627E0,6.408323822E0,9.418169646E0
4.689956667E-1,-6.557563477E0,-1.164727936E0,6.293213196E0,9.163119678E0
4.789346667E-1,-6.699618073E0,-5.972579956E-1,5.212760010E0,8.509668992E0
4.888746667E-1,-7.036268005E0,-5.822891235E-2,3.785627747E0,7.990208726E0
4.988136667E-1,-7.244634705E0,2.667453003E-1,2.909649353E0,7.811654397E0
5.087536667E-1,-7.332501984E0,3.393443298E-1,2.577490082E0,7.779729753E0
5.186926667E-1,-7.391030273E0,2.017803955E-1,2.615810394E0,7.842863498E0
5.286326667E-1,-7.568261719E0,1.392105103E-2,2.981799316E0,8.134488700E0
5.385726667E-1,-7.792794800E0,-2.609074402E-1,3.586990814E0,8.582670131E0
5.485116667E-1,-8.046816559E0,-5.101391602E-1,4.105362854E0,9.047955728E0
5.584516667E-1,-8.319699097E0,-6.665638733E-1,4.476291504E0,9.470949587E0
5.683906667E-1,-8.534053345E0,-8.283773804E-1,4.747078400E0,9.800562683E0
5.783306667E-1,-8.673563232E0,-1.018781433E0,4.871769104E0,1.000013745E1
5.882696667E-1,-8.716523895E0,-1.267713776E0,4.901706848E0,1.008025878E1
5.982096667E-1,-8.732091522E0,-1.552571411E0,4.636159058E0,1.000769060E1
6.081486667E-1,-8.971443787E0,-1.729653168E0,4.154011688E0,1.003664868E1
6.180886667E-1,-9.349856873E0,-1.575922852E0,3.664978638E0,1.016540333E1
6.280276667E-1,-9.998009033E0,-7.370672607E-1,3.499123535E0,1.061825401E1
6.379676667E-1,-1.062834824E1,5.872288513E-1,3.885769501E0,1.133162956E1
6.479066667E-1,-1.120764359E1,1.554517365E0,4.526586914E0,1.218678744E1
6.578466667E-1,-1.151121231E1,2.193987579E0,5.194497986E0,1.281812778E1
6.677856667E-1,-1.131422195E1,2.772833862E0,5.647755432E0,1.294594019E1
6.777256667E-1,-1.104298599E1,2.692900085E0,6.055058441E0,1.287878035E1
6.876646666E-1,-1.061038559E1,1.892364807E0,6.218069458E0,1.244289816E1
6.976046667E-1,-1.058643539E1,6.306385803E-1,6.334078217E0,1.235276755E1
7.075436666E-1,-1.141885437E1,-6.029461670E-1,6.412515106E0,1.311007739E1
7.174836667E-1,-1.221519836E1,-1.630110168E0,5.815257111E0,1.362664836E1
7.274226667E-1,-1.293624893E1,-2.330354004E0,4.459226990E0,1.388026626E1
7.373626667E-1,-1.347737366E1,-2.257305908E0,2.952310638E0,1.398038514E1
7.473016667E-1,-1.304402481E1,-1.355131989E0,1.869761810E0,1.324684775E1
7.572416667E-1,-1.174562485E1,-5.664221191E-1,1.400936737E0,1.184243053E1
7.671806667E-1,-1.025367737E1,-2.312690735E-1,1.036893768E0,1.030856603E1
7.771206667E-1,-9.250164185E0,-2.486329651E-1,6.146218872E-1,9.273894320E0
7.870606667E-1,-8.634045410E0,-5.465135193E-1,2.594105530E-1,8.655212938E0
7.969996667E-1,-8.517138519E0,-1.068328400E0,-8.741821289E-2,8.584323856E0
8.069396667E-1,-8.937913513E0,-1.641336823E0,-4.538562012E-1,9.098696060E0
8.168786667E-1,-9.586065674E0,-2.071093140E0,-7.418572998E-1,9.835264824E0
8.268186667E-1,-1.030726593E1,-2.393822021E0,-8.726852417E-1,1.061751828E1
8.367576667E-1,-1.112351852E1,-2.543061676E0,-7.447013855E-1,1.143478934E1
8.466976667E-1,-1.165416504E1,-2.356250153E0,-1.948947144E-1,1.189157103E1
8.566366667E-1,-1.178274765E1,-1.858684845E0,6.822811890E-1,1.194794372E1
8.665766667E-1,-1.147453857E1,-1.399739227E0,1.673819275E0,1.168015310E1
8.765156667E-1,-1.078956299E1,-1.093925171E0,2.636617126E0,1.116078365E1
8.864556667E-1,-1.000489471E1,-8.143066406E-1,3.522624664E0,1.063813414E1
8.963946667E-1,-9.224118347E0,-4.885839844E-1,4.044140167E0,1.008355807E1
9.063346667E-1,-8.468938751E0,-2.368075562E-1,3.927083588E0,9.338146866E0
9.162736667E-1,-7.930957489E0,-2.924917603E-1,3.129841461E0,8.531210096E0
9.262136667E-1,-7.570057983E0,-4.857398987E-1,2.252815247E0,7.913083954E0
9.361526667E-1,-7.323820038E0,-4.947212219E-1,1.691332855E0,7.532841155E0
9.460926667E-1,-6.976542206E0,-4.290078735E-1,1.373543701E0,7.123398852E0
9.560316667E-1,-6.694828033E0,-3.540138245E-1,1.185085602E0,6.808118394E0
9.659716667E-1,-6.526428223E0,-2.773731995E-1,1.137035522E0,6.630539270E0
9.759106667E-1,-6.441405029E0,-2.625540161E-1,1.174308014E0,6.552833942E0
9.858506666E-1,-6.481072540E0,-2.906954956E-1,1.199605408E0,6.597564572E0
9.957896667E-1,-6.671476593E0,-3.365002441E-1,1.200204163E0,6.786922895E0
1.005729667E0,-7.006929016E0,-4.599934387E-1,1.170416107E0,7.118884889E0
1.015668667E0,-7.359296265E0,-7.096742249E-1,1.139131165E0,7.480675025E0
1.025608667E0,-7.673492889E0,-9.789642334E-1,1.184037781E0,7.825778527E0
1.035547667E0,-7.914342041E0,-1.126108246E0,1.411265259E0,8.117672040E0
1.045487667E0,-8.130492554E0,-1.027313690E0,1.814376984E0,8.393583646E0
1.055427667E0,-8.318202209E0,-8.402027893E-1,2.350112915E0,8.684552921E0
1.065366667E0,-8.524772644E0,-7.565267944E-1,2.933000793E0,9.046909698E0
1.075306667E0,-8.636141052E0,-7.078779602E-1,3.553011475E0,9.365250345E0
1.085245667E0,-8.778944092E0,-6.054908752E-1,4.252806244E0,9.773578644E0
1.095185667E0,-8.985664215E0,-4.037104797E-1,5.094505920E0,1.033726918E1
1.105124667E0,-8.986861725E0,-1.740879822E-1,5.923032990E0,1.076458592E1
1.115064667E0,-8.889863434E0,2.769241333E-2,6.315965881E0,1.090513016E1
1.125003667E0,-8.872200165E0,2.350112915E-2,5.933211823E0,1.067330739E1
1.134943667E0,-8.967851257E0,-2.977308655E-1,5.031337280E0,1.028714512E1
1.144882667E0,-9.113648071E0,-6.197113037E-1,4.246968384E0,1.007369663E1
1.154822667E0,-9.478738861E0,-7.358697510E-1,3.765419769E0,1.022577042E1
1.164761667E0,-9.887987823E0,-9.023236084E-1,3.461851044E0,1.051527003E1
1.174702000E0,-1.031969009E1,-1.379531250E0,3.306324463E0,1.092386798E1
1.184641000E0,-1.072384964E1,-1.990560608E0,3.380719757E0,1.141895568E1
1.194581000E0,-1.099912720E1,-2.326162720E0,3.694467316E0,1.183388866E1
1.204520000E0,-1.108669510E1,-2.123933258E0,4.306095428E0,1.208173657E1
1.214460000E0,-1.069271439E1,-1.558259583E0,5.220244446E0,1.200055273E1
1.224399000E0,-1.020592667E1,-1.094972992E0,6.237229614E0,1.201095076E1
1.234339000E0,-1.023391846E1,-8.337661743E-1,7.218439178E0,1.255125959E1
1.244278000E0,-1.099523529E1,-4.406835938E-1,7.765252075E0,1.346805632E1
1.254218000E0,-1.236219269E1,1.297801208E-1,7.276817780E0,1.434547761E1
1.264158000E0,-1.369861359E1,2.447410583E-1,5.742658081E0,1.485563981E1
1.274097000E0,-1.424048676E1,-2.357597351E-1,4.063450012E0,1.481076202E1
1.284037000E0,-1.396161667E1,-9.846524048E-1,2.777025146E0,1.426913274E1
1.293976000E0,-1.292322601E1,-1.474583588E0,1.753753052E0,1.312477875E1
1.303916000E0,-1.171553741E1,-1.588047638E0,9.065148926E-1,1.185738089E1
1.313855000E0,-1.091829529E1,-1.469494171E0,2.421963501E-1,1.101940308E1
1.323795000E0,-1.032552795E1,-9.723779297E-1,-2.748284912E-1,1.037485311E1
1.333734000E0,-9.812694397E0,-2.493814087E-1,-6.982978821E-1,9.840669812E0
1.343674000E0,-9.510323181E0,4.261637878E-1,-1.024319916E0,9.574815605E0
1.353613000E0,-9.561816101E0,9.553134155E-1,-1.240171051E0,9.689116322E0
1.363553000E0,-9.871222687E0,1.336720276E0,-1.380130005E0,1.005647141E1
1.373492000E0,-1.034453842E1,1.430425415E0,-1.488953705E0,1.054858167E1
1.383432000E0,-1.074016571E1,1.162482605E0,-1.621428223E0,1.092389833E1
1.393371000E0,-1.068103867E1,6.735992432E-1,-1.628912659E0,1.082551058E1
1.403311000E0,-1.026370651E1,1.799258423E-1,-1.509461060E0,1.037566949E1
1.413250000E0,-9.723180542E0,-1.661544800E-1,-1.350641327E0,9.817946789E0
1.423190000E0,-9.090446320E0,-4.318519592E-1,-1.109343109E0,9.168061547E0
1.433129000E0,-8.771908722E0,-6.354286194E-1,-7.563771057E-1,8.827358522E0
1.443069000E0,-8.582702179E0,-8.414002991E-1,-1.721420288E-1,8.625564563E0
1.453008000E0,-8.475375366E0,-9.903405762E-1,7.210505676E-1,8.563450004E0
1.462948000E0,-8.390950928E0,-9.527687073E-1,1.719773712E0,8.618204413E0
1.472887000E0,-8.131091309E0,-7.797285461E-1,2.520758057E0,8.548499497E0
1.482827000E0,-7.581284637E0,-6.168672180E-1,3.105891266E0,8.216018651E0
1.492767000E0,-6.996001740E0,-6.135740662E-1,3.556604004E0,7.872099181E0
1.502706000E0,-6.706952820E0,-6.030958557E-1,3.960164795E0,7.812160133E0
1.512646000E0,-6.543492737E0,-6.701564026E-1,4.113296356E0,7.757938754E0
1.522585000E0,-6.405479736E0,-7.939489746E-1,4.108057251E0,7.650925434E0
1.532525000E0,-6.459068298E0,-6.765930176E-1,4.045487366E0,7.651359972E0
1.542464000E0,-6.866520996E0,-3.493734741E-1,3.660637665E0,7.789187411E0
1.552404000E0,-7.362739105E0,1.188528442E-1,3.132236481E0,8.002184608E0
1.562343000E0,-7.820636902E0,5.267546082E-1,2.791844330E0,8.320710711E0
1.572283000E0,-8.107889557E0,6.421646118E-1,2.707569580E0,8.572116511E0
1.582222000E0,-8.225245514E0,4.712200928E-1,2.669548645E0,8.660438910E0
1.592162000E0,-8.333320770E0,1.733395386E-1,2.706072693E0,8.763396093E0
1.602101000E0,-8.304879913E0,-6.840774536E-2,2.843187561E0,8.778349817E0
1.612041000E0,-8.156538391E0,-4.126918030E-1,3.126997375E0,8.745144118E0
1.621980000E0,-8.192313995E0,-8.446934509E-1,3.589385834E0,8.983941579E0
1.631920000E0,-8.396788788E0,-1.134790192E0,4.264481964E0,9.485758649E0
1.641859000E0,-8.622369690E0,-9.892927551E-1,4.903652802E0,9.968438695E0
1.651799000E0,-8.799601135E0,-2.564167786E-1,5.122497711E0,1.018522030E1
1.661738000E0,-9.078620911E0,4.605921936E-1,5.027595062E0,1.038798416E1
1.671678000E0,-9.418563995E0,7.637118530E-1,4.818030853E0,1.060688573E1
1.681617000E0,-9.741292877E0,8.120613098E-1,4.576882324E0,1.079352038E1
1.691557000E0,-1.008318192E1,7.348219299E-1,4.425996094E0,1.103630202E1
1.701497000E0,-1.054048096E1,6.638694763E-1,4.313579865E0,1.140830543E1
1.711436000E0,-1.089449478E1,6.180647278E-1,4.179608459E0,1.168508226E1
1.721376000E0,-1.095002930E1,4.483177185E-1,4.127516785E0,1.171070131E1
1.731315000E0,-1.068208649E1,1.489402771E-1,4.383783875E0,1.154758485E1
1.741255000E0,-1.041369461E1,-2.017803955E-1,4.799319763E0,1.146818298E1
1.751194000E0,-1.040800644E1,-6.496490479E-1,5.031636658E0,1.157868772E1
1.761134000E0,-1.104148911E1,-1.003662872E0,4.772675171E0,1.207063582E1
1.771073000E0,-1.203302719E1,-1.324146423E0,4.180207214E0,1.280707771E1
1.781013000E0,-1.297606613E1,-1.765578461E0,3.389850769E0,1.352725574E1
1.790952000E0,-1.388198227E1,-2.082619171E0,2.340532837E0,1.423112182E1
1.800892000E0,-1.457983109E1,-1.961071930E0,1.352138214E0,1.477313627E1
1.810831000E0,-1.374217300E1,-1.118623810E0,9.681866455E-1,1.382157818E1
1.820771000E0,-1.140687927E1,-3.356021118E-1,1.056353302E0,1.146060233E1
1.830710000E0,-9.243428192E0,-3.881428528E-1,1.193468170E0,9.328235947E0
1.840650000E0,-7.526049500E0,-1.100212097E0,1.128054199E0,7.689238844E0
1.850589000E0,-6.871760101E0,-1.869013367E0,8.602610779E-1,7.173168545E0
1.860529000E0,-7.356003113E0,-2.402953033E0,5.668711853E-1,7.759272390E0
1.870468000E0,-8.653504944E0,-2.751128998E0,2.333647156E-1,9.083298832E0
1.880408000E0,-1.011641281E1,-2.624492340E0,-7.873626709E-2,1.045160120E1
1.890348000E0,-1.121587646E1,-2.179168396E0,-1.490899658E-1,1.142658687E1
1.900287000E0,-1.184097656E1,-1.718426514E0,1.516346741E-1,1.196598131E1
1.910227000E0,-1.186597458E1,-1.314266968E0,6.935078430E-1,1.195866228E1
1.920166000E0,-1.143322449E1,-9.794132996E-1,1.378932495E0,1.155765233E1
1.930106000E0,-1.071741302E1,-6.430627441E-1,2.052831116E0,1.093117502E1
1.940045000E0,-9.846224670E0,-3.103047180E-1,2.560126190E0,1.017834345E1
1.949985000E0,-9.230105896E0,-5.074447632E-2,2.903063049E0,9.676011829E0
1.959924000E0,-8.968150635E0,7.469467163E-2,3.048560486E0,9.472435069E0
1.969864000E0,-8.843010864E0,1.601669312E-2,2.923121338E0,9.313631732E0
1.979803000E0,-8.719667358E0,-3.562591553E-2,2.562371521E0,9.088433080E0
1.989743000E0,-8.406219177E0,1.137634277E-2,2.113754425E0,8.667906786E0
1.999682000E0,-7.992479553E0,5.433700562E-2,1.726509705E0,8.177011537E0
2.009622000E0,-7.617359619E0,1.074765015E-1,1.479074249E0,7.760372375E0
2.019561000E0,-7.339687042E0,1.441502380E-1,1.340312805E0,7.462454260E0
2.029501000E0,-7.299271088E0,1.145118713E-1,1.309327240E0,7.416657549E0
2.039440000E0,-7.388036499E0,1.886077881E-2,1.393601990E0,7.518348592E0
2.049380000E0,-7.387587433E0,-1.836680603E-1,1.460662537E0,7.532842563E0
2.059319000E0,-7.450606384E0,-4.595443726E-1,1.537901917E0,7.621539138E0
2.069259000E0,-7.594756622E0,-8.680448914E-1,1.749561768E0,7.841861798E0
2.079198000E0,-7.799530792E0,-1.243464203E0,2.050286407E0,8.159813610E0
2.089138000E0,-7.919581146E0,-1.426683197E0,2.437231750E0,8.408049065E0
2.099078000E0,-7.906707916E0,-1.472637634E0,2.853516083E0,8.533888077E0
2.109017000E0,-7.897277527E0,-1.382824402E0,3.319347382E0,8.677399536E0
2.118957000E0,-7.877967682E0,-1.164428558E0,3.832180939E0,8.837639923E0
2.128896000E0,-7.945177917E0,-9.349557495E-1,4.402045898E0,9.131155594E0
2.138836000E0,-8.008047180E0,-7.310797119E-1,4.998555450E0,9.468307862E0
2.148775000E0,-7.993377686E0,-4.215234375E-1,5.472320251E0,9.696290928E0
2.158715000E0,-7.941136322E0,-1.041833496E-1,5.477709045E0,9.647683486E0
2.168654000E0,-8.049660645E0,1.339714050E-1,4.818779297E0,9.382729813E0
2.178593250E0,-8.274044037E0,2.420466614E-1,3.953129425E0,9.173092366E0
2.188532250E0,-8.477770386E0,2.950364685E-1,3.364703064E0,9.125834972E0
2.198472250E0,-8.805289307E0,3.592529297E-1,3.083288269E0,9.336425922E0
2.208411250E0,-9.225016479E0,3.336561584E-1,2.959046631E0,9.693720258E0
2.218351250E0,-9.723479919E0,-2.694396973E-3,2.915337524E0,1.015112121E1
2.228290250E0,-1.025801834E1,-9.376501465E-1,2.869981842E0,1.069312507E1
2.238230250E0,-1.075857742E1,-1.996548157E0,3.187321930E0,1.139702653E1
2.248169250E0,-1.116872452E1,-2.708467712E0,3.914958801E0,1.214096813E1
2.258109250E0,-1.122021744E1,-2.828069000E0,4.856500854E0,1.254897821E1
2.268048250E0,-1.073552536E1,-2.168091431E0,5.841602325E0,1.241275324E1
2.277988250E0,-1.031804352E1,-1.062041473E0,6.891968079E0,1.245348056E1
2.287927250E0,-1.079510147E1,-1.472937012E-1,7.898175659E0,1.337673689E1
2.297867250E0,-1.220217545E1,6.749464417E-1,8.122109985E0,1.467369445E1
2.307807250E0,-1.378707962E1,1.251547394E0,7.069798279E0,1.554451617E1
2.317746250E0,-1.487471786E1,1.091380463E0,5.283263397E0,1.582280680E1
2.327686250E0,-1.496363297E1,1.413061523E-1,3.568728790E0,1.538395606E1
2.337625250E0,-1.409154648E1,-1.223106537E0,2.159858551E0,1.430848212E1
2.347565250E0,-1.267474274E1,-2.251917114E0,1.049617310E0,1.291595643E1
2.357504250E0,-1.097008759E1,-2.369871826E0,6.750961304E-2,1.122335385E1
2.367444250E0,-9.419911194E0,-1.792372742E0,-6.101312256E-1,9.608308231E0
2.377383250E0,-8.294551392E0,-8.400531006E-1,-9.626481628E-1,8.392375318E0
2.387323250E0,-7.806566162E0,1.630110168E-1,-1.096918945E0,7.884940013E0
2.397262250E0,-8.162975006E0,9.907896423E-1,-1.076710968E0,8.293077328E0
2.407202250E0,-9.266929321E0,1.616039429E0,-9.687854004E-1,9.456537825E0
2.417141250E0,-1.039034317E1,2.023941193E0,-7.939489746E-1,1.061536265E1
2.427081250E0,-1.126736938E1,2.199975128E0,-6.484515381E-1,1.149843436E1
2.437020250E0,-1.172362061E1,2.171833649E0,-6.743476868E-1,1.194214747E1
2.446960250E0,-1.147738266E1,2.063608704E0,-6.906637573E-1,1.168185816E1
2.456899250E0,-1.066427353E1,1.876048737E0,-5.990542603E-1,1.084459104E1
2.466839250E0,-9.901459808E0,1.586700439E0,-4.128414917E-1,1.003628232E1
2.476778250E0,-9.441166992E0,1.043929138E0,-9.086105347E-2,9.499140906E0
2.486718250E0,-9.256002045E0,3.981719971E-1,2.999761963E-1,9.269417485E0
2.496657250E0,-9.098529510E0,-2.100132751E-1,5.574407959E-1,9.118008833E0
2.506597250E0,-8.766669617E0,-7.842192078E-1,7.409591675E-1,8.832809090E0
2.516537250E0,-8.383017426E0,-1.270557861E0,9.403445435E-1,8.530741251E0
2.526476250E0,-7.979456635E0,-1.649569702E0,1.318907318E0,8.254230727E0
2.536416250E0,-7.600145416E0,-1.963466949E0,1.912123718E0,8.079209734E0
2.546355250E0,-7.299420776E0,-2.185305634E0,2.653082886E0,8.068206317E0
2.556295250E0,-7.085066528E0,-2.323318634E0,3.572920074E0,8.268115568E0
2.566234250E0,-6.921007690E0,-2.302362213E0,4.806205444E0,8.735034630E0
2.576174250E0,-6.627767487E0,-1.864223328E0,6.534960480E0,9.492541227E0
2.586113250E0,-6.228847046E0,-1.027463379E0,7.536527710E0,9.831249485E0
2.596053250E0,-6.678811340E0,-1.862127686E-1,6.140680389E0,9.074643341E0
2.605992250E0,-7.642207947E0,4.263134766E-1,4.408931580E0,8.833106088E0
2.615932250E0,-8.036188660E0,8.050259399E-1,3.263513489E0,8.710850431E0
2.625871250E0,-7.886799316E0,9.922865295E-1,2.646496582E0,8.377957995E0
2.635811250E0,-7.547155609E0,9.102571106E-1,2.479294281E0,7.995938089E0
2.645750250E0,-7.175777893E0,4.945715332E-1,2.785108337E0,7.713184675E0
2.655690250E0,-7.131619720E0,2.529739380E-2,3.361110535E0,7.884015717E0
2.665629250E0,-7.307803345E0,-3.953279114E-1,3.874991913E0,8.281052844E0
2.675569250E0,-7.602839813E0,-7.568261719E-1,4.177213440E0,8.707759253E0
2.685508250E0,-7.891589355E0,-9.608518982E-1,4.274361420E0,9.026105720E0
2.695448250E0,-8.232430573E0,-9.743238831E-1,4.230652313E0,9.307020960E0
2.705388250E0,-8.709638214E0,-7.378157043E-1,4.047583008E0,9.632502169E0
2.715327250E0,-9.049880676E0,-4.623884583E-1,3.771107941E0,9.815059778E0
2.725267250E0,-9.314380646E0,-1.812730408E-1,3.404969330E0,9.918889195E0
2.735206250E0,-9.633067932E0,3.471281433E-1,3.141367493E0,1.013827823E1
2.745146250E0,-1.018616776E1,1.089733887E0,3.162922668E0,1.072145574E1
2.755085250E0,-1.086171295E1,1.844464417E0,3.441343689E0,1.154217066E1
2.765025250E0,-1.148456772E1,2.509232025E0,3.942800903E0,1.239908142E1
2.774964250E0,-1.162362854E1,2.792592773E0,4.688550110E0,1.284094299E1
2.784904250E0,-1.135927826E1,2.255210266E0,5.396577759E0,1.277662817E1
2.794843250E0,-1.091604996E1,1.329834595E0,5.804928589E0,1.243486239E1
2.804783250E0,-1.093236603E1,2.559677124E-2,6.256090393E0,1.259587032E1
2.814722250E0,-1.174053543E1,-1.351838837E0,6.681805115E0,1.357623512E1
2.824662250E0,-1.295271469E1,-2.474653931E0,6.439010010E0,1.467506660E1
2.834601250E0,-1.419797516E1,-3.304977264E0,5.123695221E0,1.545178391E1
2.844541250E0,-1.509610748E1,-3.612737274E0,3.010090485E0,1.581154567E1
2.854480250E0,-1.521421188E1,-2.943928070E0,1.115480347E0,1.553651351E1
2.864420250E0,-1.373977798E1,-1.542093201E0,3.832031250E-1,1.383135551E1
2.874359250E0,-1.113878677E1,-3.373983765E-1,2.968327332E-1,1.114784814E1
2.884299250E0,-9.109606476E0,1.525328064E-1,2.004331970E-1,9.113087834E0
2.894238250E0,-7.631130981E0,2.163002014E-1,1.392105103E-1,7.635464976E0
2.904178250E0,-6.644233246E0,-1.504371643E-1,1.796264648E-2,6.645960384E0
2.914118250E0,-6.623576202E0,-8.270301819E-1,-2.540217590E-1,6.679840394E0
2.924057250E0,-7.654632111E0,-1.348246307E0,-7.584727478E-1,7.809381650E0
2.933997250E0,-8.979227600E0,-1.548978882E0,-1.318607941E0,9.206768748E0
2.943936250E0,-1.002525238E1,-1.575773163E0,-1.614991608E0,1.027603738E1
2.953876250E0,-1.077100159E1,-1.464704132E0,-1.510808258E0,1.097462414E1
2.963815250E0,-1.114193024E1,-1.152154083E0,-1.027762756E0,1.124839387E1
2.973755250E0,-1.123937759E1,-7.565267944E-1,-2.366578674E-1,1.126729552E1
2.983694250E0,-1.113833771E1,-4.549040222E-1,7.466473389E-1,1.117259982E1
2.993634250E0,-1.088850723E1,-1.733395386E-1,1.811233521E0,1.103948383E1
3.003573250E0,-1.047461792E1,1.440005493E-1,2.954256592E0,1.088420823E1
3.013513250E0,-9.964927826E0,5.763015747E-1,4.376748505E0,1.089898333E1
3.023452250E0,-9.404343567E0,7.991880798E-1,5.201832733E0,1.077680116E1
3.033392250E0,-8.930728455E0,2.763253784E-1,4.119433594E0,9.838902356E0
3.043331250E0,-8.452323303E0,-3.845503235E-1,2.923869781E0,8.952020033E0
3.053271250E0,-7.977959747E0,-6.517446899E-1,2.495610352E0,8.384550310E0
3.063210250E0,-7.507488098E0,-6.719526672E-1,2.257754974E0,7.868376926E0
3.073150250E0,-6.993307343E0,-6.583309937E-1,1.965712280E0,7.294091585E0
3.083089250E0,-6.577621765E0,-6.948550415E-1,1.656006317E0,6.818378732E0
3.093029250E0,-6.335126038E0,-7.694000244E-1,1.388811951E0,6.531048686E0
3.102969250E0,-6.304439850E0,-8.416996765E-1,1.231489105E0,6.478501801E0
3.112908250E0,-6.564598846E0,-9.300160217E-1,1.262923737E0,6.749360279E0
3.122848250E0,-6.889123993E0,-1.002315674E0,1.451381836E0,7.111341317E0
3.132787250E0,-7.112010498E0,-1.168619843E0,1.752555542E0,7.417399584E0
3.142727250E0,-7.437733154E0,-1.362616425E0,2.189047852E0,7.872009178E0
3.152666250E0,-7.779023438E0,-1.373693390E0,2.822530518E0,8.388499132E0
3.162606250E0,-8.014633484E0,-1.256038055E0,3.602708130E0,8.876456914E0
3.172545250E0,-8.116870880E0,-1.048270111E0,4.449796600E0,9.315747576E0
3.182486375E0,-8.186775513E0,-7.033872986E-1,5.303321686E0,9.779737619E0
3.192425375E0,-8.307873688E0,-2.231858826E-1,5.807024231E0,1.013864427E1
3.202365375E0,-8.463400269E0,2.342628479E-1,5.502407684E0,1.009754988E1
3.212304375E0,-8.649912415E0,3.829037476E-1,4.589007111E0,9.799315605E0
3.222244375E0,-8.809181213E0,2.636018372E-1,3.697012024E0,9.557146932E0
3.232183375E0,-9.065897369E0,-2.080673218E-2,3.042572937E0,9.562854078E0
3.242123375E0,-9.547745361E0,-2.856060791E-1,2.550097046E0,9.886556896E0
3.252062375E0,-1.010653336E1,-4.517605591E-1,2.229314117E0,1.035934098E1
3.262002375E0,-1.065828598E1,-6.333329773E-1,2.047891388E0,1.087170777E1
3.271942375E0,-1.110076584E1,-9.050180054E-1,2.151625671E0,1.134352471E1
3.281881375E0,-1.131871262E1,-1.162781982E0,2.772983551E0,1.171130885E1
3.291821375E0,-1.140987305E1,-1.144969025E0,3.964056702E0,1.213300880E1
3.301760375E0,-1.110151428E1,-8.885522461E-1,5.401816864E0,1.237791460E1
3.311700375E0,-1.047237259E1,-6.408174133E-1,6.544390869E0,1.236568989E1
3.321639375E0,-1.009036697E1,-3.929328918E-1,7.205565948E0,1.240524416E1
3.331579375E0,-1.023152344E1,-9.220825195E-2,7.492519226E0,1.268189334E1
3.341518375E0,-1.086395828E1,1.172062683E-1,7.481292572E0,1.319124958E1
3.351458375E0,-1.182076859E1,-4.370910645E-2,6.837481384E0,1.365590100E1
3.361397375E0,-1.290167084E1,-3.897894287E-1,5.704038391E0,1.411173626E1
3.371337375E0,-1.372436005E1,-4.293072510E-1,4.393962708E0,1.441697859E1
3.381276375E0,-1.382525024E1,-4.445755005E-1,3.168610840E0,1.419067604E1
3.391216375E0,-1.300166290E1,-1.181343384E0,2.151775360E0,1.323136227E1
3.401155375E0,-1.174951675E1,-2.345921631E0,1.370549927E0,1.205955635E1
3.411095375E0,-1.066247726E1,-2.843337250E0,7.093748474E-1,1.105785697E1
3.421034375E0,-9.705966339E0,-2.460882568E0,8.726852417E-2,1.001345801E1
3.430974375E0,-9.046587524E0,-1.398691406E0,-3.787124634E-1,9.161905185E0
3.440913375E0,-8.507259064E0,-7.424560547E-2,-7.773335266E-1,8.543021515E0
3.450853375E0,-8.020920410E0,1.071771240E0,-1.113534393E0,8.168464768E0
3.460792375E0,-7.979606323E0,2.016606445E0,-1.362766113E0,8.342538589E0
3.470732375E0,-8.572972412E0,2.791994019E0,-1.493893433E0,9.139081145E0
3.480672375E0,-9.644893341E0,3.367397461E0,-1.534908142E0,1.033050223E1
3.490611375E0,-1.065978287E1,3.665278015E0,-1.422342224E0,1.136170283E1
3.500551375E0,-1.141630966E1,3.665727081E0,-1.189127197E0,1.204922009E1
3.510490375E0,-1.152648056E1,3.176993408E0,-8.059240723E-1,1.198342834E1
3.520430375E0,-1.112426697E1,2.186203766E0,-4.875361633E-1,1.134753251E1
3.530369375E0,-1.058613602E1,1.273551636E0,-3.384461975E-1,1.066783743E1
3.540309375E0,-1.009066635E1,6.032455444E-1,-3.158432007E-2,1.010873138E1
3.550248375E0,-9.672436066E0,-1.571731567E-2,5.110372925E-1,9.685939582E0
3.560188375E0,-9.461374969E0,-6.451583862E-1,1.217568054E0,9.561188086E0
3.570127375E0,-9.272467804E0,-1.293011169E0,2.034120026E0,9.580614873E0
3.580067375E0,-8.835077362E0,-1.943857727E0,2.891537018E0,9.497271249E0
3.590006375E0,-8.237070923E0,-2.550097046E0,3.794908447E0,9.420916222E0
3.599946375E0,-7.671846313E0,-3.084934845E0,5.064418488E0,9.696513986E0
3.609885375E0,-6.968608704E0,-3.177741852E0,5.710475006E0,9.553484984E0
3.619825375E0,-6.617738342E0,-2.453847198E0,4.956792297E0,8.624709660E0
3.629764375E0,-6.867718506E0,-1.734742584E0,4.075125732E0,8.171997249E0
3.639704375E0,-7.041956177E0,-1.187630310E0,3.375031586E0,7.898762609E0
3.649644375E0,-6.887028351E0,-6.761439514E-1,2.858904877E0,7.487433956E0
3.659583375E0,-6.847211151E0,-1.654060364E-1,2.606829071E0,7.328520827E0
3.669523375E0,-6.962172089E0,3.932322693E-1,2.498454437E0,7.407344084E0
3.679462375E0,-7.045249329E0,8.039781189E-1,2.576891327E0,7.544686066E0
3.689402375E0,-7.194938049E0,9.063652039E-1,2.651286621E0,7.721266228E0
3.699341375E0,-7.621251526E0,6.637197876E-1,2.638413391E0,8.092294112E0
3.709281375E0,-8.160280609E0,2.543211365E-1,2.634521484E0,8.578785597E0
3.719220375E0,-8.600066071E0,-1.321751404E-1,2.828667755E0,9.054278986E0
3.729160375E0,-8.812474365E0,-4.932243347E-1,3.153941345E0,9.372850190E0
3.739099375E0,-8.702902222E0,-7.497908020E-1,3.600313110E0,9.448012903E0
3.749039375E0,-8.488997040E0,-8.536747742E-1,4.026776276E0,9.434339327E0
3.758978375E0,-8.287815399E0,-7.461982727E-1,4.530628510E0,9.474771271E0
3.768918375E0,-8.264314270E0,-4.134402466E-1,4.968018951E0,9.651478410E0
3.778857375E0,-8.441545715E0,-1.212478638E-1,5.271138611E0,9.952853730E0
3.788797375E0,-8.671467590E0,-1.257385254E-1,5.373675385E0,1.020228148E1
3.798736375E0,-8.928333435E0,-4.469705200E-1,5.223687286E0,1.035383163E1
3.808676375E0,-9.271569672E0,-5.528004456E-1,4.407584381E0,1.028077782E1
3.818615375E0,-9.764794006E0,1.010398865E-1,3.522025909E0,1.038104415E1
3.828555375E0,-1.048075516E1,1.466051331E0,3.373684387E0,1.110753265E1
3.838494375E0,-1.099508560E1,2.751877441E0,3.889511719E0,1.198303126E1
3.848434375E0,-1.103325623E1,3.558699646E0,4.861290894E0,1.257096795E1
3.858374375E0,-1.071352112E1,3.404520264E0,5.855673065E0,1.267514103E1
3.868313375E0,-1.046623535E1,2.041005707E0,6.119274902E0,1.229444232E1
3.878253375E0,-1.069466034E1,2.981799316E-1,5.997727661E0,1.226529283E1
3.888192375E0,-1.166494263E1,-9.765692139E-1,5.800587616E0,1.306412609E1
3.898132375E0,-1.328801743E1,-1.620979156E0,4.945865021E0,1.427096918E1
3.908071375E0,-1.452938599E1,-1.740580444E0,3.560795288E0,1.506027691E1
3.918011375E0,-1.521376282E1,-1.399290161E0,2.133812714E0,1.542626814E1
3.927950375E0,-1.459210556E1,-7.560777283E-1,1.291514282E0,1.466864709E1
3.937890375E0,-1.260199402E1,-3.089575195E-1,1.117276611E0,1.265519715E1
3.947829375E0,-1.036624329E1,-2.007325745E-1,1.022224274E0,1.041845650E1
3.957769375E0,-8.732989655E0,-4.637356567E-1,7.565267944E-1,8.777954879E0
3.967708375E0,-7.607929230E0,-9.611512756E-1,4.146377563E-1,7.679604378E0
3.977648375E0,-6.984326019E0,-1.459764404E0,1.052311707E-1,7.136020996E0
3.987587375E0,-7.016509094E0,-1.860331421E0,-1.332229614E-1,7.260163994E0
3.997527375E0,-7.735164642E0,-2.046693878E0,-3.863465881E-1,8.010679844E0
4.007466375E0,-8.950187988E0,-1.890269165E0,-6.176156616E-1,9.168447614E0
4.017406375E0,-1.002555176E1,-1.515598297E0,-5.739065552E-1,1.015569274E1
4.027346375E0,-1.077474380E1,-1.115630035E0,-1.353186035E-1,1.083319185E1
4.037285375E0,-1.140313705E1,-7.518864441E-1,6.375242615E-1,1.144566752E1
4.047225375E0,-1.183888092E1,-5.370831299E-1,1.602268066E0,1.195888049E1
4.057164375E0,-1.208511887E1,-5.761518860E-1,2.506238251E0,1.235569825E1
4.067104375E0,-1.197240326E1,-9.080117798E-1,3.044369202E0,1.238673117E1
4.077043375E0,-1.145313309E1,-1.259480896E0,3.079396362E0,1.192657669E1
4.086983375E0,-1.041534119E1,-1.486109619E0,2.850971375E0,1.090027025E1
4.096922375E0,-9.339678040E0,-1.606908417E0,2.492766266E0,9.799266513E0
4.106862375E0,-8.699309692E0,-1.488354950E0,2.248025208E0,9.107513761E0
4.116801375E0,-8.240364075E0,-1.182690582E0,2.140698395E0,8.595635329E0
4.126741375E0,-7.955057373E0,-7.833210754E-1,1.994452515E0,8.238590325E0
4.136680375E0,-7.582781525E0,-3.493734741E-1,1.786385193E0,7.798192709E0
4.146620375E0,-7.226672058E0,7.858657837E-2,1.619781647E0,7.406393013E0
4.156559375E0,-6.912176056E0,4.846920776E-1,1.494492188E0,7.088484403E0
4.166499375E0,-6.662046204E0,7.580236816E-1,1.371597748E0,6.843883393E0
4.176438375E0,-6.646179199E0,9.047186279E-1,1.254690857E0,6.823815860E0
4.186378000E0,-6.830296326E0,9.105564880E-1,1.208886108E0,6.995960737E0
4.196318000E0,-7.031028900E0,7.515870667E-1,1.261576538E0,7.182745010E0
4.206257000E0,-7.178771667E0,4.578977966E-1,1.405277710E0,7.329340931E0
4.216197000E0,-7.354506226E0,8.053253174E-2,1.613794098E0,7.529912264E0
4.226136000E0,-7.430099030E0,-3.885919189E-1,1.938319244E0,7.688592639E0
4.236076000E0,-7.411986694E0,-8.529263306E-1,2.450703735E0,7.853087220E0
4.246015000E0,-7.459587708E0,-1.232237549E0,3.113824768E0,8.176781936E0
4.255955000E0,-7.492070160E0,-1.549427948E0,3.873495026E0,8.575302092E0
4.265894000E0,-7.502698059E0,-1.807191925E0,4.727319489E0,9.050081235E0
4.275834000E0,-7.531288605E0,-1.924697571E0,5.571414185E0,9.563755790E0
4.285773000E0,-7.635921021E0,-1.839225311E0,6.184539185E0,9.996927753E0
4.295713000E0,-7.668702850E0,-1.578467560E0,6.227200470E0,1.000392868E1
4.305652000E0,-7.620203705E0,-1.029559021E0,5.401367798E0,9.396928773E0
4.315592000E0,-7.986042938E0,-5.010081482E-1,4.532724152E0,9.196384029E0
4.325531000E0,-8.607400818E0,-5.763015747E-2,4.161047058E0,9.560595311E0
4.335471000E0,-9.173822937E0,2.139051819E-1,4.014352112E0,1.001597752E1
4.345410000E0,-9.811347198E0,2.885998535E-1,3.960763550E0,1.058458651E1
4.355350000E0,-1.044976959E1,-4.924758911E-2,3.842659149E0,1.113400823E1
4.365289000E0,-1.095392120E1,-1.081950073E0,3.760030975E0,1.163171693E1
4.375229000E0,-1.118354370E1,-2.358046417E0,3.997137909E0,1.210822630E1
4.385169000E0,-1.152049301E1,-3.381617889E0,4.728217621E0,1.290399708E1
4.395108000E0,-1.178798676E1,-3.927532654E0,5.891298981E0,1.375098353E1
4.405048000E0,-1.148202301E1,-3.568579102E0,7.220085754E0,1.402502219E1
4.414987000E0,-1.104792572E1,-2.596051483E0,8.527916107E0,1.419582682E1
4.424927000E0,-1.111992599E1,-1.564696198E0,9.161997528E0,1.449286814E1
4.434866000E0,-1.208975922E1,-7.566764832E-1,8.403674469E0,1.474301807E1
4.444806000E0,-1.370415207E1,-3.194357300E-1,6.687642975E0,1.525222579E1
4.454745000E0,-1.477038483E1,2.122586060E-1,5.214256897E0,1.566517784E1
4.464685000E0,-1.465138229E1,2.757266235E-1,4.029171295E0,1.519780410E1
4.474624000E0,-1.395218628E1,-8.577163696E-1,2.960693207E0,1.428862777E1
4.484564000E0,-1.341914474E1,-2.111958160E0,2.087558899E0,1.374378824E1
4.494503000E0,-1.264240997E1,-2.807262268E0,1.205742645E0,1.300634717E1
4.504443000E0,-1.136302048E1,-2.675087128E0,2.225871277E-1,1.167578137E1
4.514382000E0,-9.816436615E0,-1.693129120E0,-4.797523499E-1,9.972927171E0
4.524322000E0,-8.355025635E0,-5.724096680E-1,-8.337661743E-1,8.416012846E0
4.534261000E0,-7.348967743E0,2.689906311E-1,-1.043031006E0,7.427489248E0
4.544201000E0,-6.918163605E0,1.009500732E0,-1.167272644E0,7.088201804E0
4.554141000E0,-6.968159637E0,1.644629974E0,-1.211281128E0,7.261353762E0
4.564080000E0,-7.554340668E0,2.179018707E0,-1.226100311E0,7.957355555E0
4.574020000E0,-8.657097473E0,2.557431793E0,-1.214274902E0,9.108252169E0
4.583959000E0,-9.859097900E0,2.707868958E0,-1.213077393E0,1.029591776E1
4.593899000E0,-1.049901718E1,2.592309265E0,-1.231189728E0,1.088417462E1
4.603838000E0,-1.036205200E1,2.099084930E0,-1.140029297E0,1.063381145E1
4.613778000E0,-9.965227203E0,1.423689423E0,-9.910890198E-1,1.011508291E1
4.623717000E0,-9.741592255E0,7.608677673E-1,-8.280780029E-1,9.806286381E0
4.633657000E0,-9.529483337E0,9.131011963E-2,-4.731660461E-1,9.541660040E0
4.643596000E0,-9.349707184E0,-5.797444153E-1,9.235794067E-2,9.368119235E0
4.653536000E0,-9.155860291E0,-1.196611633E0,6.635700989E-1,9.257536516E0
4.663475000E0,-8.848699036E0,-1.734293518E0,1.250499573E0,9.103350911E0
4.673415000E0,-8.460705872E0,-2.187251587E0,1.963317261E0,8.956686218E0
4.683354000E0,-8.111781464E0,-2.493365021E0,2.954555969E0,8.985948398E0
4.693294000E0,-8.007598114E0,-2.626737671E0,4.205803986E0,9.418607408E0
4.703233000E0,-8.043822784E0,-2.493365021E0,5.442083130E0,1.002677530E1
4.713173000E0,-7.881410522E0,-2.067051544E0,6.677314453E0,1.053450816E1
4.723113000E0,-7.103777618E0,-1.459914093E0,7.889344025E0,1.071619124E1
4.733052000E0,-6.656507721E0,-7.158114624E-1,6.775360565E0,9.525071752E0
4.742992000E0,-7.377109222E0,-1.642085266E-1,4.231101379E0,8.505934623E0
4.752931000E0,-7.862549744E0,3.002755737E-1,2.664309540E0,8.307129421E0
4.762871000E0,-7.895780640E0,8.767268372E-1,1.954635315E0,8.181234691E0
4.772810000E0,-7.519014130E0,1.305585022E0,1.761387177E0,7.832152355E0
4.782750000E0,-6.923702087E0,1.499581604E0,2.033072205E0,7.370195260E0
4.792689000E0,-6.678661652E0,1.363065491E0,2.673290863E0,7.321813507E0
4.802629000E0,-6.725663910E0,8.637039185E-1,3.391647034E0,7.581807772E0
4.812568000E0,-6.960226135E0,2.070195007E-1,4.083508301E0,8.072338259E0
4.822508000E0,-7.457941132E0,-4.411326599E-1,4.622238007E0,8.785247187E0
4.832447000E0,-7.998766479E0,-9.002279663E-1,5.045707397E0,9.499991512E0
4.842387000E0,-8.482859802E0,-1.138682098E0,5.319188690E0,1.007716605E1
4.852326000E0,-8.999585266E0,-1.052760773E0,5.292244720E0,1.049326900E1
4.862266000E0,-9.398655396E0,-7.756869507E-1,4.983436890E0,1.066635161E1
4.872205000E0,-9.440418549E0,-5.131329346E-1,4.656367035E0,1.053881216E1
4.882145000E0,-9.407936096E0,-1.083746338E-1,4.525539093E0,1.044037886E1
4.892084000E0,-9.612410889E0,5.586383057E-1,4.528383179E0,1.064033712E1
4.902024000E0,-1.018916153E1,1.429078217E0,4.450095978E0,1.121002370E1
4.911964000E0,-1.087069427E1,2.366578674E0,4.131408691E0,1.186765463E1
4.921903000E0,-1.143831390E1,3.272045746E0,3.949536896E0,1.253555543E1
4.931843000E0,-1.157153687E1,3.719315643E0,4.399950256E0,1.292645878E1
4.941782000E0,-1.111304031E1,3.022963715E0,5.425018616E0,1.273062456E1
4.951722000E0,-1.042761566E1,1.264869690E0,6.425088959E0,1.231327868E1
4.961661000E0,-1.039139099E1,-4.544549561E-1,7.065307617E0,1.257402512E1
4.971601000E0,-1.135897888E1,-1.602567444E0,6.781497803E0,1.332603978E1
4.981540000E0,-1.292532166E1,-2.233655090E0,5.342989197E0,1.416335725E1
4.991480000E0,-1.398481842E1,-2.791245575E0,3.832630005E0,1.476669397E1
5.001419000E0,-1.474149490E1,-3.275189209E0,2.813848572E0,1.536086847E1
5.011359000E0,-1.514385818E1,-3.226091309E0,2.086511078E0,1.562362424E1
5.021298000E0,-1.385144577E1,-1.909579010E0,1.514101410E0,1.406419372E1
5.031238000E0,-1.139849670E1,-6.542893982E-1,1.081051941E0,1.146832573E1
5.041177000E0,-9.510023804E0,-8.906478882E-2,5.854325867E-1,9.528442506E0
5.051117000E0,-8.302933960E0,1.616638184E-2,1.151106262E-1,8.303747597E0
5.061056000E0,-7.449408875E0,-2.809657288E-1,-3.291654968E-1,7.461969193E0
5.070996000E0,-7.049739990E0,-6.521937561E-1,-7.529342651E-1,7.119768299E0
5.080936000E0,-7.347919922E0,-8.536747742E-1,-1.245559845E0,7.501473664E0
5.090875000E0,-8.203241272E0,-7.991880798E-1,-1.756447449E0,8.427157088E0
5.100815000E0,-9.246122589E0,-6.801855469E-1,-1.969005432E0,9.477890994E0
5.110754000E0,-1.029259644E1,-5.876779175E-1,-1.713935852E0,1.045086039E1
5.120694000E0,-1.097023727E1,-5.869294739E-1,-1.044677582E0,1.103548564E1
5.130633000E0,-1.124551483E1,-7.662565613E-1,-1.582209778E-1,1.127270096E1
5.140573000E0,-1.117815491E1,-1.097368011E0,6.845265198E-1,1.125273035E1
5.150512000E0,-1.080812439E1,-1.330433350E0,1.372196503E0,1.097581564E1
5.160452000E0,-1.041788589E1,-1.206491089E0,1.922601929E0,1.066228706E1
5.170391000E0,-1.002465363E1,-7.575746155E-1,2.615660706E0,1.038793919E1
5.180331375E0,-9.595645752E0,-2.377056885E-1,3.259022827E0,1.013677223E1
5.190270375E0,-9.097182312E0,2.653981018E-1,3.826792145E0,9.872866873E0
5.200210375E0,-8.493038635E0,8.187973022E-1,4.265679474E0,9.539295344E0
5.210149375E0,-7.860304413E0,1.248553619E0,4.645140381E0,9.215237423E0
5.220089375E0,-7.235503693E0,1.440005493E0,4.738246765E0,8.767959393E0
5.230028375E0,-6.819219360E0,1.221010895E0,4.133204956E0,8.066969908E0
5.239968375E0,-6.841822357E0,6.620732117E-1,3.123105469E0,7.550010720E0
5.249907375E0,-7.101382599E0,2.145039368E-1,2.463127899E0,7.519484411E0
5.259847375E0,-7.272177429E0,-7.679031372E-2,2.151625671E0,7.584191080E0
5.269787375E0,-7.215744781E0,-4.050576782E-1,1.974693604E0,7.492026382E0
5.279726375E0,-7.104076996E0,-8.607101440E-1,1.894460449E0,7.402547690E0
5.289666375E0,-7.184908905E0,-1.331481171E0,1.957629089E0,7.564923644E0
5.299605375E0,-7.267537079E0,-1.760339355E0,2.082469482E0,7.762252829E0
5.309545375E0,-7.304210815E0,-2.074386292E0,2.343975677E0,7.946621678E0
5.319484375E0,-7.274722137E0,-2.211201782E0,2.757116547E0,8.087811023E0
5.329424375E0,-7.207362213E0,-2.129771118E0,3.337310028E0,8.223115791E0
5.339363375E0,-7.156018982E0,-1.956581268E0,3.981121216E0,8.419390956E0
5.349303375E0,-7.178023224E0,-1.735041962E0,4.619244232E0,8.710442313E0
5.359242375E0,-7.138954468E0,-1.451830902E0,5.158872070E0,8.926726438E0
5.369182375E0,-7.002588043E0,-1.113833771E0,5.515131226E0,8.982958166E0
5.379121375E0,-6.931336212E0,-6.391708374E-1,5.564378815E0,8.911468602E0
5.389061375E0,-7.102131042E0,-1.806742859E-1,5.233716431E0,8.824097473E0
5.399000375E0,-7.486232300E0,-6.691085815E-2,4.548142090E0,8.759780110E0
5.408940375E0,-8.125852203E0,-2.592608643E-1,3.912863159E0,9.022593215E0
5.418879375E0,-8.890611877E0,-4.808001709E-1,3.475173340E0,9.557770561E0
5.428819375E0,-9.582772522E0,-7.080276489E-1,3.332519989E0,1.017037471E1
5.438759375E0,-1.021610550E1,-1.251846771E0,3.510350189E0,1.087467197E1
5.448698375E0,-1.073911789E1,-2.224075012E0,3.922742615E0,1.164744918E1
5.458638375E0,-1.121348145E1,-3.110232239E0,4.543352051E0,1.249230798E1
5.468577375E0,-1.169428162E1,-3.412004700E0,5.431604919E0,1.333792827E1
5.478517375E0,-1.146914978E1,-2.426753540E0,6.523584137E0,1.341594870E1
5.488456375E0,-1.033660492E1,-1.007854156E0,7.676037598E0,1.291443860E1
5.498396375E0,-9.525142365E0,1.092727661E-2,8.928333435E0,1.305540480E1
5.508335375E0,-9.598489838E0,7.517367554E-1,9.710007935E0,1.367407655E1
5.518275375E0,-1.078492264E1,9.482780457E-1,9.062903595E0,1.411913627E1
5.528214375E0,-1.301019516E1,8.997789001E-1,7.376510468E0,1.498291316E1
5.538154375E0,-1.486678436E1,9.204359436E-1,5.727090454E0,1.595832211E1
5.548093375E0,-1.534010010E1,6.406677246E-1,4.334236908E0,1.595351797E1
5.558033375E0,-1.495450195E1,-1.558259583E-1,3.281027069E0,1.531099438E1
5.567972375E0,-1.425425812E1,-8.382568359E-1,2.399659882E0,1.447912002E1
5.577912375E0,-1.277832733E1,-1.096170502E0,1.763782196E0,1.294597106E1
5.587851375E0,-1.088371719E1,-1.160386963E0,1.140927429E0,1.100470414E1
5.597791375E0,-9.422605591E0,-1.055455170E0,5.474116516E-1,9.497322847E0
5.607731375E0,-8.582103424E0,-6.554869080E-1,3.233276367E-2,8.607160256E0
5.617670375E0,-8.250393219E0,-1.095721436E-1,-4.279600525E-1,8.262211818E0
5.627610375E0,-8.313711548E0,4.343966675E-1,-8.232879639E-1,8.365662152E0
5.637549375E0,-8.933871918E0,8.857081604E-1,-1.217717743E0,9.059877642E0
5.647489375E0,-9.952054596E0,1.191971283E0,-1.519490204E0,1.013770372E1
5.657428375E0,-1.097637451E1,1.400637360E0,-1.813778229E0,1.121304481E1
5.667368375E0,-1.158485916E1,1.515448608E0,-1.979783020E0,1.185010916E1
5.677307375E0,-1.145837219E1,1.440454559E0,-1.942061462E0,1.171071327E1
5.687247375E0,-1.076740906E1,1.153052216E0,-1.745370483E0,1.096872579E1
5.697186375E0,-9.863588562E0,6.890171814E-1,-1.472338257E0,9.996644634E0
5.707126375E0,-9.147777100E0,4.011657715E-2,-1.191372528E0,9.225118086E0
5.717065375E0,-8.848699036E0,-6.477030945E-1,-8.684939575E-1,8.914778498E0
5.727005375E0,-8.675808563E0,-1.237177277E0,-4.215234375E-1,8.773707531E0
5.736944375E0,-8.372239838E0,-1.774709473E0,1.511856079E-1,8.559605756E0
5.746884375E0,-7.967780914E0,-2.095342712E0,8.779243469E-1,8.285333122E0
5.756823375E0,-7.588918762E0,-2.219284973E0,1.699865112E0,8.087425744E0
5.766763375E0,-7.186555481E0,-2.147733765E0,2.714455261E0,7.976691505E0
5.776703375E0,-7.156318359E0,-1.883832550E0,4.024830322E0,8.423833846E0
5.786642375E0,-7.362888794E0,-1.383273468E0,5.380860443E0,9.223840631E0
5.796582375E0,-7.444020081E0,-8.288264465E-1,6.431675262E0,9.872529307E0
5.806521375E0,-7.259603577E0,-3.158432007E-1,7.027586060E0,1.010883608E1
5.816461375E0,-6.567143555E0,3.053649902E-1,7.544461212E0,1.000697343E1
5.826400375E0,-6.383625183E0,7.508386230E-1,6.054609375E0,8.830216521E0
5.836340375E0,-7.148235168E0,9.437873840E-1,3.526516571E0,8.026476174E0
5.846279375E0,-7.627688141E0,1.138233032E0,2.336042175E0,8.058181796E0
5.856219375E0,-7.656727753E0,1.216220856E0,1.969604187E0,7.999000794E0
5.866158375E0,-7.339836731E0,9.309141541E-1,2.451302490E0,7.794144488E0
5.876098375E0,-7.001540222E0,4.761598206E-1,3.487447815E0,7.836490664E0
5.886037375E0,-7.023993530E0,1.713935852E-1,4.388124847E0,8.283809543E0
5.895977375E0,-7.311994629E0,-1.020877075E-1,4.845423889E0,8.772332644E0
5.905916375E0,-7.711663513E0,-2.995271301E-1,4.719984741E0,9.046420651E0
5.915856375E0,-8.102500763E0,-3.769161987E-1,4.252207489E0,9.158266919E0
5.925795375E0,-8.344846802E0,-3.453318787E-1,3.853586426E0,9.198143867E0
5.935735375E0,-8.496631165E0,-2.040257263E-1,3.746858368E0,9.288342978E0
5.945674375E0,-8.608149261E0,5.433700562E-2,4.005520477E0,9.494597438E0
5.955614375E0,-8.698860626E0,2.170486450E-1,4.294270020E0,9.703506650E0
5.965554375E0,-9.070687408E0,2.869532776E-1,4.448000336E0,1.010665223E1
5.975493375E0,-9.702822876E0,4.040098572E-1,4.504882050E0,1.070523040E1
5.985433375E0,-1.039677979E1,8.232879639E-1,4.618046722E0,1.140601545E1
5.995372375E0,-1.099942657E1,1.525477753E0,4.974754944E0,1.216809986E1
6.005312375E0,-1.124910736E1,2.285896454E0,5.416037292E0,1.269256471E1
6.015251375E0,-1.122410934E1,2.921624451E0,5.691913605E0,1.291953561E1
6.025191375E0,-1.105675735E1,2.694696350E0,5.872737579E0,1.280633899E1
6.035130375E0,-1.051727921E1,1.281185760E0,5.902375946E0,1.212817549E1
6.045070375E0,-1.070394104E1,-1.224453735E-1,6.210435333E0,1.237573649E1
6.055009375E0,-1.191641968E1,-1.038839722E0,6.561605072E0,1.364312673E1
6.064949375E0,-1.317230804E1,-1.921404419E0,6.142776031E0,1.466066818E1
6.074888375E0,-1.428913559E1,-2.639461212E0,4.772226105E0,1.529445303E1
6.084828375E0,-1.519235733E1,-2.944377136E0,2.961890717E0,1.575594728E1
6.094767375E0,-1.565818863E1,-2.463726654E0,1.443598022E0,1.591643162E1
6.104707375E0,-1.411310165E1,-1.019380188E0,7.255412292E-1,1.416845737E1
6.114646375E0,-1.119147720E1,-2.230361938E-2,4.794529724E-1,1.120176480E1
6.124586375E0,-9.035360870E0,-2.020797729E-2,2.869532776E-1,9.039938971E0
6.134525375E0,-7.545958099E0,-3.439846802E-1,9.160949707E-2,7.554349833E0
6.144465375E0,-6.712341614E0,-8.351133728E-1,-1.368154907E-1,6.765475797E0
6.154405375E0,-6.774013367E0,-1.429527283E0,-4.213737488E-1,6.936019116E0
6.164344375E0,-7.780819702E0,-1.852098541E0,-7.517367554E-1,8.033463288E0
6.174284375E0,-9.027427368E0,-2.052681427E0,-1.019679565E0,9.313844123E0
6.184222750E0,-1.011117371E1,-2.056423645E0,-1.146166534E0,1.038163810E1
6.194162750E0,-1.091754684E1,-1.829046478E0,-1.026265869E0,1.111716968E1
6.204101750E0,-1.137993530E1,-1.467398529E0,-6.099815369E-1,1.149035523E1
6.214041750E0,-1.136466705E1,-1.175505524E0,5.897735596E-2,1.142545180E1
6.223980750E0,-1.113504456E1,-1.021475830E0,8.810678101E-1,1.121645713E1
6.233920750E0,-1.087653214E1,-8.638536072E-1,1.742376709E0,1.104903032E1
6.243859750E0,-1.044692551E1,-6.544390869E-1,2.619702301E0,1.079024482E1
6.253799750E0,-9.720186768E0,-3.219804382E-1,3.419339447E0,1.030910202E1
6.263738750E0,-8.955576782E0,1.199006653E-1,4.000580750E0,9.809249615E0
6.273678750E0,-8.159981232E0,5.634283447E-1,4.472100220E0,9.322147048E0
6.283617750E0,-7.490423584E0,8.521778870E-1,4.538112946E0,8.799268249E0
6.293557750E0,-7.109465790E0,6.950047302E-1,3.766617279E0,8.075576829E0
6.303496750E0,-6.996151428E0,3.376977539E-1,2.858755188E0,7.565226752E0
6.313436750E0,-6.983727264E0,7.334747314E-2,2.267035675E0,7.342838491E0
6.323376750E0,-6.933731232E0,-4.655319214E-2,1.986069946E0,7.212715842E0
6.333315750E0,-6.852150879E0,-1.326242065E-1,1.805245972E0,7.087204940E0
6.343255750E0,-6.819219360E0,-1.450483704E-1,1.673519897E0,7.023066322E0
6.353194750E0,-6.825655975E0,-2.414479065E-1,1.597777405E0,7.014325999E0
6.363134750E0,-6.938670959E0,-5.254074097E-1,1.613794098E0,7.143216294E0
6.373073750E0,-7.078180847E0,-9.331594849E-1,1.801054688E0,7.363099124E0
6.383013750E0,-7.270231476E0,-1.290466461E0,2.183659058E0,7.699995862E0
6.392952750E0,-7.362140350E0,-1.529369659E0,2.686762848E0,7.984909310E0
6.402892750E0,-7.363936615E0,-1.537003784E0,3.217259674E0,8.181729824E0
6.412831750E0,-7.314389648E0,-1.433718567E0,3.840713196E0,8.384922344E0
6.422771750E0,-7.201075287E0,-1.147064667E0,4.482877808E0,8.559639950E0
6.432710750E0,-7.161856842E0,-7.984396362E-1,5.129682770E0,8.845526813E0
6.442650750E0,-7.270979919E0,-3.396437073E-1,5.646707611E0,9.212372858E0
6.452589750E0,-7.533234558E0,1.660047913E-1,5.681585083E0,9.437032879E0
6.462529750E0,-7.868537292E0,4.432283020E-1,5.119653625E0,9.397935076E0
6.472468750E0,-8.161627808E0,5.596861267E-1,4.528083801E0,9.350345445E0
6.482408750E0,-8.478668518E0,4.493655396E-1,4.124373322E0,9.439290467E0
6.492347750E0,-8.969647522E0,2.155517578E-2,3.743116150E0,9.719360051E0
6.502287750E0,-9.600286102E0,-6.502478027E-1,3.361709290E0,1.019261521E1
6.512227750E0,-1.027792694E1,-1.515747986E0,3.093616791E0,1.083991416E1
6.522166750E0,-1.093565918E1,-2.522554321E0,3.054697723E0,1.163112635E1
6.532106750E0,-1.161060562E1,-3.458108826E0,3.526067505E0,1.261736231E1
6.542045750E0,-1.211445786E1,-3.845652924E0,4.644541626E0,1.353221720E1
6.551985750E0,-1.150282974E1,-3.020568695E0,6.151158600E0,1.338938682E1
6.561924750E0,-1.036878799E1,-1.650467834E0,7.524402924E0,1.291713776E1
6.571864750E0,-1.013377670E1,-7.961943054E-1,8.419541473E0,1.319909218E1
6.581803750E0,-1.116827545E1,-2.971321106E-1,8.505911865E0,1.404169508E1
6.591743750E0,-1.307381287E1,3.655398560E-1,7.724387054E0,1.518961348E1
6.601682750E0,-1.492531265E1,1.103205872E0,6.500681763E0,1.631688954E1
6.611622750E0,-1.574006836E1,1.190474396E0,5.121749268E0,1.659515884E1
6.621561750E0,-1.505643997E1,3.209326172E-1,3.788920898E0,1.552917589E1
6.631501750E0,-1.348770218E1,-6.848258972E-1,2.684218140E0,1.376924557E1
6.641440750E0,-1.204185883E1,-1.213077393E0,1.833088074E0,1.224083872E1
6.651380750E0,-1.091934311E1,-1.293759613E0,1.102457428E0,1.105084975E1
6.661319750E0,-9.900561676E0,-1.053509216E0,4.933740234E-1,9.968671983E0
6.671259750E0,-9.027726746E0,-4.766088867E-1,-2.125579834E-2,9.040324000E0
6.681199750E0,-8.434660034E0,1.681004333E-1,-4.342469788E-1,8.447503660E0
6.691138750E0,-8.418643341E0,7.051835632E-1,-7.861651611E-1,8.484626994E0
6.701078750E0,-8.906029816E0,1.103954315E0,-1.069675598E0,9.037714761E0
6.711017750E0,-9.573042755E0,1.317859497E0,-1.268013153E0,9.746166354E0
6.720957750E0,-1.035471725E1,1.329235840E0,-1.419797516E0,1.053578959E1
6.730896750E0,-1.099972595E1,1.170416107E0,-1.570384369E0,1.117273252E1
6.740836750E0,-1.114088242E1,9.583071899E-1,-1.617236938E0,1.129836577E1
6.750775750E0,-1.080363373E1,7.882608032E-1,-1.517693939E0,1.093815577E1
6.760715750E0,-1.015143997E1,6.319857788E-1,-1.376088409E0,1.026375949E1
6.770654750E0,-9.587263184E0,4.559518433E-1,-1.268911285E0,9.681613672E0
6.780594750E0,-9.379046173E0,1.995350647E-1,-1.212927704E0,9.459255519E0
6.790533750E0,-9.366472321E0,-1.829196167E-1,-1.004561005E0,9.421964027E0
6.800473750E0,-9.451046448E0,-5.902226257E-1,-5.951623535E-1,9.488143124E0
6.810412750E0,-9.394763489E0,-9.931846619E-1,-1.237925720E-1,9.447926830E0
6.820352750E0,-9.076974335E0,-1.389710083E0,4.242178345E-1,9.192535992E0
6.830291750E0,-8.620124359E0,-1.517095184E0,1.150058441E0,8.827839837E0
6.840231750E0,-8.007448425E0,-1.547182617E0,2.011367340E0,8.399916840E0
6.850171750E0,-7.429649963E0,-1.550775146E0,3.152594147E0,8.218482341E0
6.860110750E0,-7.178322601E0,-1.401385803E0,4.469256134E0,8.571257080E0
6.870050750E0,-7.048093414E0,-1.056353302E0,5.645959167E0,9.092214142E0
6.879989750E0,-6.867419128E0,-6.701564026E-1,6.954238586E0,9.796529457E0
6.889929750E0,-6.188730469E0,-1.486408997E-1,8.001760254E0,1.011684961E1
6.899868750E0,-6.443949738E0,3.342549133E-1,6.105503540E0,8.883320778E0
6.909808750E0,-7.813900909E0,5.123844910E-1,3.627706146E0,8.630170171E0
6.919747750E0,-8.405321045E0,7.930508423E-1,2.341730347E0,8.761395581E0
6.929687750E0,-8.121810608E0,9.895921326E-1,1.800006866E0,8.377536921E0
6.939626750E0,-7.713160400E0,9.710307312E-1,1.986369324E0,8.023802536E0
6.949566750E0,-7.558831329E0,6.583309937E-1,2.634072418E0,8.031666593E0
6.959505750E0,-7.457192688E0,2.790197754E-1,3.288960571E0,8.155049752E0
6.969445750E0,-7.480095062E0,-6.750961304E-2,3.752696228E0,8.368937129E0
6.979384750E0,-7.577692108E0,-4.017645264E-1,4.038901062E0,8.596252335E0
6.989324750E0,-7.738308105E0,-7.033872986E-1,4.200714569E0,8.833015845E0
6.999263750E0,-7.959847412E0,-8.167016602E-1,4.270319824E0,9.069829316E0
7.009203750E0,-8.148006134E0,-7.370672607E-1,4.273463287E0,9.230154959E0
7.019143750E0,-8.340356140E0,-3.978726196E-1,4.240232391E0,9.364796522E0
7.029082750E0,-8.692424011E0,2.231858826E-1,4.186045074E0,9.650441466E0
7.039022750E0,-9.119785309E0,7.132667542E-1,4.091441803E0,1.002093457E1
7.048961750E0,-9.526040497E0,9.994715881E-1,3.969894562E0,1.036843546E1
7.058901750E0,-1.002046234E1,1.288520508E0,3.955973511E0,1.084986991E1
7.068840750E0,-1.052521271E1,1.504521332E0,4.062252502E0,1.138180927E1
7.078780750E0,-1.084419937E1,1.555116119E0,4.293222198E0,1.176634195E1
7.088719750E0,-1.080093933E1,1.165476379E0,4.712500305E0,1.184171798E1
7.098659750E0,-1.051099228E1,2.767744446E-1,5.410798187E0,1.182515538E1
7.108598750E0,-1.040561142E1,-6.107299805E-1,6.204896851E0,1.213055996E1
7.118538750E0,-1.073732162E1,-1.139280853E0,6.914421387E0,1.282174948E1
7.128477750E0,-1.168979095E1,-1.397942963E0,6.890171814E0,1.364111156E1
7.138417750E0,-1.328681992E1,-1.611848145E0,5.718408508E0,1.455464990E1
7.148356750E0,-1.424871964E1,-1.832788696E0,3.661386108E0,1.482534566E1
7.158296750E0,-1.491393631E1,-1.916614380E0,1.682800598E0,1.513045686E1
7.168235750E0,-1.468850510E1,-1.514999542E0,5.327421570E-1,1.477603532E1
7.178175750E0,-1.271321274E1,-4.514611816E-1,2.221380615E-1,1.272316551E1
7.188115500E0,-1.042866348E1,3.293151855E-1,1.713935852E-1,1.043526934E1
7.198055500E0,-8.690328369E0,3.447331238E-1,1.028361511E-1,8.697771172E0
7.207995500E0,-7.619604950E0,-4.475692749E-2,-3.143463135E-2,7.619801238E0
7.217934500E0,-7.348518677E0,-6.051914978E-1,-2.095642090E-1,7.376374492E0
7.227874500E0,-8.003855896E0,-1.170416107E0,-5.370831299E-1,8.106789831E0
7.237813500E0,-9.315727844E0,-1.512754211E0,-8.690927124E-1,9.477686042E0
7.247753500E0,-1.054063065E1,-1.584904175E0,-1.030906219E0,1.070885537E1
7.257692500E0,-1.140373581E1,-1.497485962E0,-9.972262573E-1,1.154478734E1
7.267632500E0,-1.193617859E1,-1.179846497E0,-7.212002563E-1,1.201601127E1
7.277571500E0,-1.199635345E1,-7.029382324E-1,-2.177970886E-1,1.201890402E1
7.287511500E0,-1.164997375E1,-2.396516418E-1,4.933740234E-1,1.166287869E1
7.297450500E0,-1.115734818E1,5.104385376E-2,1.335223389E0,1.123707459E1
7.307390500E0,-1.064511337E1,1.722917175E-1,2.295775909E0,1.089122170E1
7.317329500E0,-1.014290771E1,1.859133911E-1,3.153641968E0,1.062349276E1
7.327269500E0,-9.503138123E0,-8.666976929E-2,3.689677277E0,1.019464880E1
7.337208500E0,-8.715476074E0,-4.858895874E-1,3.840413818E0,9.536476823E0
7.347148500E0,-7.856412506E0,-7.725434875E-1,3.583098907E0,8.669408209E0
7.357087500E0,-7.125482483E0,-8.767268372E-1,3.010988617E0,7.785062814E0
7.367027500E0,-6.738986206E0,-8.836125183E-1,2.466271362E0,7.230297407E0
7.376966500E0,-6.612798615E0,-9.514215088E-1,2.043251038E0,6.986356934E0
7.386906500E0,-6.683302002E0,-9.662406921E-1,1.754202118E0,6.976917070E0
7.396846500E0,-6.823710022E0,-8.740324402E-1,1.588796082E0,7.060539934E0
7.406785500E0,-6.945856018E0,-6.271957397E-1,1.558259583E0,7.146080271E0
7.416725500E0,-7.101083221E0,-3.302133179E-1,1.552870789E0,7.276388626E0
7.426664500E0,-7.229067078E0,-1.085243225E-1,1.533411255E0,7.390706219E0
7.436604500E0,-7.385042725E0,-7.723937988E-2,1.608405304E0,7.558557375E0
7.446543500E0,-7.611671448E0,-1.944456482E-1,1.869312744E0,7.840260294E0
7.456483500E0,-7.725734253E0,-3.835025024E-1,2.334245911E0,8.079774000E0
7.466422500E0,-7.783514099E0,-5.098397827E-1,2.938090210E0,8.335190605E0
7.476362500E0,-7.823930054E0,-4.799020386E-1,3.557651825E0,8.608198067E0
7.486301500E0,-7.811655579E0,-3.525169373E-1,4.158202972E0,8.856459960E0
7.496241500E0,-7.736511841E0,-2.326162720E-1,4.781656494E0,9.097909904E0
7.506180500E0,-7.670199738E0,-5.298980713E-2,5.205125885E0,9.269741497E0
7.516120500E0,-7.801776123E0,9.505233765E-2,5.088069305E0,9.314783673E0
7.526059500E0,-8.180189209E0,1.577719116E-1,4.627776489E0,9.399824610E0
7.535999500E0,-8.485703888E0,2.448907471E-1,4.267326050E0,9.501432185E0
7.545938500E0,-8.602461090E0,3.824546814E-1,4.068988495E0,9.523931739E0
7.555878500E0,-8.618777161E0,5.041516113E-1,3.904779968E0,9.475483903E0
7.565818500E0,-8.776549072E0,5.932164001E-1,3.755390625E0,9.564657760E0
7.575757500E0,-9.213939514E0,4.462220764E-1,3.500021667E0,9.866404978E0
7.585697500E0,-9.903106384E0,-3.218307495E-2,3.174149323E0,1.039941228E1
7.595636500E0,-1.060454773E1,-9.605525208E-1,2.905009003E0,1.103712694E1
7.605576500E0,-1.113205078E1,-2.291734314E0,2.831511841E0,1.171290144E1
7.615515500E0,-1.152528305E1,-3.536695404E0,3.191962280E0,1.247112613E1
7.625455500E0,-1.188498505E1,-4.299808502E0,4.140988770E0,1.329996281E1
7.635394500E0,-1.155716675E1,-4.002077637E0,5.603896637E0,1.345319242E1
7.645334500E0,-1.074091415E1,-2.543211365E0,7.208110657E0,1.318302015E1
7.655273500E0,-1.075034454E1,-7.767347717E-1,8.446784821E0,1.369384528E1
7.665213500E0,-1.213616272E1,7.006929016E-1,8.702303467E0,1.495016728E1
7.675152500E0,-1.409558807E1,1.410217438E0,7.353608093E0,1.596088558E1
7.685092500E0,-1.553574326E1,1.580862579E0,5.010380859E0,1.640007199E1
7.695031500E0,-1.583137848E1,1.330133972E0,3.028951263E0,1.617332207E1
7.704971500E0,-1.429871567E1,7.749385071E-1,1.759291534E0,1.442736657E1
7.714910500E0,-1.221519836E1,-3.124003601E-1,7.734416199E-1,1.224364639E1
7.724850500E0,-1.122201370E1,-1.160386963E0,-3.008743286E-2,1.128188790E1
7.734789500E0,-1.048554520E1,-9.765692139E-1,-6.619235229E-1,1.055170547E1
7.744729500E0,-9.387428741E0,-9.235794067E-2,-1.057550812E0,9.447262148E0
7.754669500E0,-8.240663452E0,6.707551575E-1,-1.255439301E0,8.362689427E0
7.764608500E0,-7.730224915E0,1.333576813E0,-1.414708099E0,7.970960002E0
7.774548500E0,-7.980354767E0,1.899849243E0,-1.556762695E0,8.349790383E0
7.784487500E0,-8.789122925E0,2.277064819E0,-1.703158264E0,9.237664967E0
7.794427500E0,-9.844428406E0,2.407593384E0,-1.839674377E0,1.030017856E1
7.804366500E0,-1.072639435E1,2.269281006E0,-2.002086639E0,1.114511206E1
7.814306500E0,-1.097382980E1,1.795665894E0,-2.109413452E0,1.131808207E1
7.824245500E0,-1.063253952E1,1.170266418E0,-2.055525513E0,1.089245635E1
7.834185500E0,-1.011252090E1,5.827381897E-1,-2.008523254E0,1.032651096E1
7.844124500E0,-9.579928436E0,9.580078125E-2,-1.957928467E0,9.778429859E0
7.854064500E0,-9.137149200E0,-4.035607910E-1,-1.806443481E0,9.322746102E0
7.864003500E0,-8.886121216E0,-9.330097961E-1,-1.516346741E0,9.062723927E0
7.873943500E0,-8.623267822E0,-1.444795532E0,-9.940827942E-1,8.799794467E0
7.883882500E0,-8.315956879E0,-1.870061188E0,-2.552192688E-1,8.527450060E0
7.893822500E0,-8.063132629E0,-2.172432404E0,5.842350769E-1,8.371075258E0
7.903761500E0,-7.921527100E0,-2.271825714E0,1.750160522E0,8.424656997E0
7.913701500E0,-8.145910492E0,-2.016606445E0,3.484004974E0,9.086300125E0
7.923640500E0,-8.259374542E0,-1.432820435E0,5.278772736E0,9.906345634E0
7.933580500E0,-7.773035889E0,-9.425898743E-1,6.592440948E0,1.023566511E1
7.943520500E0,-6.659950562E0,-6.622229004E-1,7.919281769E0,1.036863079E1
7.953459500E0,-5.424868927E0,-5.089416504E-1,8.881181488E0,1.041938622E1
7.963399500E0,-6.096971283E0,-2.766247559E-1,5.805677032E0,8.423506745E0
7.973338500E0,-7.639962616E0,3.472778320E-2,2.947819977E0,8.189009550E0
7.983278500E0,-8.363557892E0,3.730242920E-1,1.720372467E0,8.546808127E0
7.993217500E0,-8.301886139E0,6.638694763E-1,1.275946655E0,8.425560872E0
8.003157500E0,-7.919730835E0,8.222401428E-1,1.484163666E0,8.099441779E0
8.013096500E0,-7.374714203E0,8.723858643E-1,2.347867584E0,7.788449709E0
8.023036500E0,-7.016958160E0,8.414002991E-1,3.406316528E0,7.845294678E0
8.032975500E0,-7.091353455E0,5.667214966E-1,4.282594299E0,8.303558334E0
8.042915500E0,-7.550897827E0,1.772314453E-1,4.728816376E0,8.911182486E0
8.052854500E0,-8.030051422E0,-1.219963074E-1,4.753664703E0,9.332413249E0
8.062794500E0,-8.333021393E0,-1.718426514E-1,4.619992676E0,9.529591164E0
8.072733500E0,-8.442144470E0,-4.610412598E-2,4.514312439E0,9.573450039E0
8.082673500E0,-8.468339996E0,2.598596191E-1,4.444108429E0,9.567152609E0
8.092612500E0,-8.628955994E0,6.192622375E-1,4.212989044E0,9.622455193E0
8.102552500E0,-8.964258728E0,8.653504944E-1,3.678001556E0,9.728024541E0
8.112492500E0,-9.346563721E0,1.122366028E0,3.072660370E0,9.902484569E0
8.122431500E0,-9.862989807E0,1.479523315E0,2.688559113E0,1.032937110E1
8.132371500E0,-1.058658508E1,1.923949127E0,2.642155609E0,1.107963674E1
8.142310500E0,-1.132604736E1,2.394570465E0,2.917882233E0,1.193848204E1
8.152250500E0,-1.170969955E1,2.606230316E0,3.600612488E0,1.252493155E1
8.162189500E0,-1.173544601E1,2.009421387E0,4.613705750E0,1.276889769E1
8.172129500E0,-1.159054733E1,6.454577637E-1,5.702840881E0,1.293366914E1
8.182068250E0,-1.152707932E1,-6.050418091E-1,6.435267792E0,1.321560837E1
8.192008250E0,-1.191552155E1,-1.597927094E0,6.687942352E0,1.375723801E1
8.201947250E0,-1.320149734E1,-2.460283813E0,6.324198761E0,1.484345036E1
8.211887250E0,-1.454390579E1,-2.839744720E0,5.008584595E0,1.564209914E1
8.221826250E0,-1.528711029E1,-2.718796234E0,3.205583954E0,1.585444299E1
8.231766250E0,-1.515313889E1,-2.379900970E0,1.645677795E0,1.542691810E1
8.241705250E0,-1.352647156E1,-1.286125488E0,7.126679993E-1,1.360615476E1
8.251645250E0,-1.123758133E1,3.592529297E-2,2.517764282E-1,1.124045889E1
8.261584250E0,-9.382339325E0,7.738906860E-1,-1.137634277E-2,9.414208805E0
8.271524250E0,-7.993826752E0,1.061442719E0,-2.468367004E-1,8.067766428E0
8.281463250E0,-6.870562592E0,9.572593689E-1,-4.147874451E-1,6.949318272E0
8.291403250E0,-6.235283661E0,3.014730835E-1,-6.080355835E-1,6.272109344E0
8.301343250E0,-6.989116058E0,-6.435118103E-1,-9.563612366E-1,7.083535667E0
8.311282250E0,-8.841064911E0,-1.304836578E0,-1.340911560E0,9.036872859E0
8.321222250E0,-1.050904633E1,-1.500779114E0,-1.650018768E0,1.074313523E1
8.331161250E0,-1.170401138E1,-1.413660278E0,-1.712438965E0,1.191279837E1
8.341101250E0,-1.242131973E1,-9.951306152E-1,-1.406774597E0,1.254027446E1
8.351040250E0,-1.242146942E1,-4.273612976E-1,-8.252339172E-1,1.245618526E1
8.360980250E0,-1.174547516E1,-8.741821289E-2,-9.804611206E-2,1.174620967E1
8.370919250E0,-1.105301514E1,-6.706054688E-2,8.539741516E-1,1.108615860E1
8.380859250E0,-1.067939209E1,-1.115180969E-1,1.902843018E0,1.084816405E1
8.390798250E0,-1.025801834E1,-2.176473999E-1,2.835403748E0,1.064489667E1
8.400738250E0,-9.705367584E0,-4.556524658E-1,3.429368591E0,1.030351144E1
8.410677250E0,-9.161249084E0,-7.197033691E-1,3.751947784E0,9.925903984E0
8.420617250E0,-8.432714081E0,-7.955955505E-1,3.921096039E0,9.333736293E0
8.430556250E0,-7.640411682E0,-7.803273010E-1,3.846551056E0,8.589572539E0
8.440496250E0,-7.248526611E0,-6.466552734E-1,3.542084198E0,8.093556792E0
8.450435250E0,-7.237150269E0,-4.498146057E-1,3.076252899E0,7.876675002E0
8.460375250E0,-7.196584625E0,-2.514770508E-1,2.636617126E0,7.668495344E0
8.470314250E0,-7.129673767E0,-9.550140381E-2,2.219734039E0,7.467836886E0
8.480254250E0,-7.084318085E0,-6.122268677E-2,1.822310486E0,7.315198319E0
8.490194250E0,-7.131020966E0,-1.184037781E-1,1.523232422E0,7.292853795E0
8.500133250E0,-7.212002563E0,-2.659968567E-1,1.318607941E0,7.336379366E0
8.510073250E0,-7.364235992E0,-5.336402893E-1,1.242566071E0,7.487370309E0
8.520012250E0,-7.534282379E0,-8.502319336E-1,1.278042297E0,7.689063495E0
8.529952250E0,-7.592062225E0,-1.071471863E0,1.507964172E0,7.814180490E0
8.539891250E0,-7.529941406E0,-1.087787933E0,1.927242279E0,7.848411494E0
8.549831250E0,-7.516319733E0,-9.711804199E-1,2.487377472E0,7.976546898E0
8.559770250E0,-7.513475647E0,-8.193960571E-1,3.114423523E0,8.174555650E0
8.569710250E0,-7.481292572E0,-6.707551575E-1,3.688030701E0,8.367868395E0
8.579649250E0,-7.461084595E0,-4.821473694E-1,4.239783325E0,8.595115593E0
8.589589250E0,-7.488178253E0,-2.255809021E-1,4.774770813E0,8.883813180E0
8.599528250E0,-7.610473938E0,3.697311401E-2,4.966821442E0,9.087903818E0
8.609468250E0,-7.908055115E0,2.303709412E-1,4.476740570E0,9.090193210E0
8.619407250E0,-8.206534424E0,2.589614868E-1,3.694467316E0,9.003519148E0
8.629347250E0,-8.516689453E0,2.360591125E-1,3.175346832E0,9.092444702E0
8.639286250E0,-8.927135925E0,2.085163879E-1,2.837200012E0,9.369468439E0
8.649226250E0,-9.469607849E0,2.348616028E-1,2.621199188E0,9.828495204E0
8.659165250E0,-1.011416748E1,3.233276367E-2,2.511177979E0,1.042129762E1
8.669105250E0,-1.077803696E1,-8.238867188E-1,2.432292023E0,1.107975245E1
8.679045250E0,-1.136930740E1,-1.943408661E0,2.466870117E0,1.179505982E1
8.688984250E0,-1.191641968E1,-2.745291138E0,2.785856781E0,1.254187703E1
8.698924250E0,-1.220831268E1,-3.100502472E0,3.634292450E0,1.310969472E1
8.708863250E0,-1.157183624E1,-2.431842957E0,5.571114807E0,1.307128817E1
8.718803250E0,-1.029439270E1,-6.397695923E-1,8.165220337E0,1.315502373E1
8.728742250E0,-1.019380188E1,7.441026306E-1,9.265282745E0,1.379538872E1
8.738682250E0,-1.203871536E1,9.277706909E-1,9.029523010E0,1.507725810E1
8.748621250E0,-1.433718567E1,4.472698975E-1,7.517666931E0,1.619476024E1
8.758561250E0,-1.570159836E1,5.388793945E-3,5.469326477E0,1.662689845E1
8.768500250E0,-1.569396423E1,-2.466870117E-1,3.658092957E0,1.611654466E1
8.778440250E0,-1.403466476E1,-5.872288513E-1,2.217339020E0,1.422087357E1
8.788379250E0,-1.193243637E1,-1.144969025E0,1.165925446E0,1.204381061E1
8.798319250E0,-1.082743423E1,-1.662442932E0,3.745211792E-1,1.096071689E1
8.808258250E0,-1.015578094E1,-1.707199860E0,-3.635939026E-1,1.030468915E1
8.818198250E0,-9.478289795E0,-9.924362183E-1,-9.937834167E-1,9.581780240E0
8.828137250E0,-8.714577942E0,1.511856079E-2,-1.382974091E0,8.823645200E0
8.838077250E0,-8.266409912E0,9.300160217E-1,-1.656605072E0,8.481910339E0
8.848016250E0,-8.465495911E0,1.701661377E0,-1.897903290E0,8.840945049E0
8.857956250E0,-9.167236633E0,2.208058319E0,-2.114502869E0,9.663584812E0
8.867896250E0,-1.007000931E1,2.478545837E0,-2.273621979E0,1.061685612E1
8.877835250E0,-1.073896820E1,2.388882294E0,-2.386187897E0,1.125726829E1
8.887775250E0,-1.094987961E1,1.929637299E0,-2.347268829E0,1.136367170E1
8.897714250E0,-1.074570419E1,1.174757080E0,-2.190844116E0,1.102950637E1
8.907654250E0,-1.037028488E1,3.878434753E-1,-2.165397034E0,1.060104596E1
8.917593250E0,-9.994715881E0,-1.576222229E-1,-2.276166687E0,1.025183521E1
8.927533250E0,-9.618847504E0,-4.629872131E-1,-2.363584900E0,9.915801432E0
8.937472250E0,-9.290580139E0,-6.412664795E-1,-2.239642639E0,9.578209706E0
8.947412250E0,-9.086704102E0,-7.887098694E-1,-1.784289551E0,9.293758330E0
8.957351250E0,-8.790170746E0,-9.228309631E-1,-1.125659180E0,8.909872464E0
8.967291250E0,-8.430768127E0,-8.849597168E-1,-4.074526978E-1,8.486873548E0
8.977230250E0,-8.175548859E0,-7.584727478E-1,3.538641357E-1,8.218278401E0
8.987170250E0,-8.023614807E0,-5.715115356E-1,1.348096619E0,8.156125582E0
8.997109250E0,-7.997868347E0,-2.924917603E-1,2.561772766E0,8.403221361E0
9.007049250E0,-7.754923553E0,-9.699829102E-2,3.355721741E0,8.450391493E0
9.016988250E0,-7.278763733E0,-1.206491089E-1,3.835474091E0,8.228354586E0
9.026928250E0,-6.755901031E0,-2.017803955E-1,4.174369354E0,7.944071600E0
9.036867250E0,-6.488257599E0,-2.951861572E-1,4.605772247E0,7.962271003E0
9.046807250E0,-6.582561493E0,-5.053491211E-1,5.548062744E0,8.623600974E0
9.056747250E0,-7.032076721E0,-3.650907898E-1,5.134622498E0,8.714800198E0
9.066686250E0,-7.741301880E0,8.906478882E-2,3.780089264E0,8.615379398E0
9.076626250E0,-8.372988281E0,3.327580261E-1,3.033890991E0,8.911910862E0
9.086565250E0,-8.568631439E0,3.532653809E-1,2.730471954E0,9.000095459E0
9.096505250E0,-8.359965363E0,1.820214844E-1,2.617157593E0,8.761944222E0
9.106444250E0,-8.066874847E0,-7.484436035E-2,2.685864716E0,8.502584357E0
9.116384250E0,-7.904013519E0,-3.266207886E-1,2.787802734E0,8.387607224E0
9.126323250E0,-7.902067566E0,-6.027964783E-1,2.998414764E0,8.473283101E0
9.136263250E0,-8.008496246E0,-8.195457458E-1,3.375181274E0,8.729233414E0
9.146202250E0,-8.202792206E0,-9.536668396E-1,3.891307983E0,9.128940696E0
9.156142250E0,-8.454718323E0,-8.149053955E-1,4.476441193E0,9.601294625E0
9.166081250E0,-8.761280823E0,-3.134481812E-1,5.010231171E0,1.009755950E1
9.176021250E0,-9.173224182E0,5.463638306E-1,5.276377716E0,1.059654270E1
9.185960000E0,-9.656718750E0,1.309626617E0,4.960384827E0,1.093493285E1
9.195900000E0,-1.002435425E1,1.650467834E0,3.970643005E0,1.090769123E1
9.205839000E0,-1.018856277E1,1.812880096E0,2.854713593E0,1.073511692E1
9.215779000E0,-1.039513321E1,2.018402710E0,2.158810730E0,1.080709062E1
9.225718000E0,-1.088895630E1,2.361189880E0,2.128723297E0,1.134354661E1
9.235658000E0,-1.141915375E1,2.597997437E0,2.762205963E0,1.203230837E1
9.245597000E0,-1.153621033E1,2.096390533E0,3.873045959E0,1.234825846E1
9.255537000E0,-1.162168259E1,9.735754395E-1,4.890330505E0,1.264621239E1
9.265477000E0,-1.194800400E1,1.237925720E-1,5.492528229E0,1.315058898E1
9.275416000E0,-1.277308823E1,-6.033952332E-1,5.433401184E0,1.389380139E1
9.285356000E0,-1.373977798E1,-1.534309387E0,4.693789215E0,1.460024868E1
9.295295000E0,-1.470691681E1,-2.488724670E0,3.459456024E0,1.531192308E1
9.305235000E0,-1.586730377E1,-2.857857056E0,2.169139252E0,1.626787758E1
9.315174000E0,-1.556882446E1,-2.102976837E0,1.316661987E0,1.576529117E1
9.325114000E0,-1.274674301E1,-5.322930908E-1,9.720785522E-1,1.279483216E1
9.335053000E0,-1.017269577E1,5.673202515E-2,9.684860229E-1,1.021885135E1
9.344993000E0,-8.331075439E0,-3.849993896E-1,8.518785095E-1,8.383360872E0
9.354932000E0,-7.090305634E0,-1.212328949E0,4.743635559E-1,7.208827661E0
9.364872000E0,-6.778653717E0,-1.892813873E0,5.538482666E-2,7.038178603E0
9.374811000E0,-7.643106079E0,-2.449955292E0,-3.661386108E-1,8.034513610E0
9.384751000E0,-8.980275421E0,-2.730771332E0,-8.268804932E-1,9.422642414E0
9.394690000E0,-9.978250122E0,-2.625689850E0,-1.295406189E0,1.039893263E1
9.404630000E0,-1.062804886E1,-2.173031158E0,-1.542542267E0,1.095704904E1
9.414569000E0,-1.109223358E1,-1.413061523E0,-1.320254517E0,1.125954975E1
9.424509000E0,-1.100855759E1,-6.683601379E-1,-6.667135620E-1,1.104896160E1
9.434448000E0,-1.063777863E1,-1.100212097E-1,8.951385498E-2,1.063872415E1
9.444388000E0,-1.026011398E1,3.420387268E-1,8.180488586E-1,1.029835586E1
9.454328000E0,-9.922266541E0,6.571334839E-1,1.557810516E0,1.006528546E1
9.464267000E0,-9.795480194E0,7.866142273E-1,2.129621429E0,1.005512216E1
9.474207000E0,-9.730515289E0,7.993377686E-1,2.588567047E0,1.010062117E1
9.484146000E0,-9.520202637E0,6.530918884E-1,2.906206512E0,9.975310700E0
9.494086000E0,-9.067843323E0,4.520599365E-1,2.969973907E0,9.552532948E0
9.504025000E0,-8.566835175E0,3.300636292E-1,2.937790833E0,9.062572586E0
9.513965000E0,-8.143665161E0,2.451901245E-1,2.777773590E0,8.607870037E0
9.523904000E0,-7.761958923E0,2.465373230E-1,2.456092529E0,8.145009361E0
9.533844000E0,-7.356452179E0,3.115022278E-1,2.035616913E0,7.639251175E0
9.543783000E0,-6.967261505E0,2.582130432E-1,1.649270325E0,7.164460863E0
9.553723000E0,-6.937473450E0,1.784289551E-1,1.396595764E0,7.078902068E0
9.563662000E0,-7.011569366E0,3.981719971E-2,1.253044281E0,7.122767044E0
9.573602000E0,-7.063361664E0,-1.475930786E-1,1.190025330E0,7.164427541E0
9.583541000E0,-7.168293457E0,-3.757186890E-1,1.168170776E0,7.272566162E0
9.593481000E0,-7.251969452E0,-6.141728210E-1,1.208137665E0,7.377524368E0
9.603420000E0,-7.375312958E0,-9.228309631E-1,1.338815918E0,7.552435784E0
9.613360000E0,-7.552544403E0,-1.173409882E0,1.568737793E0,7.802483962E0
9.623299000E0,-7.693102112E0,-1.212628326E0,1.902992706E0,8.017210787E0
9.633239000E0,-7.731871490E0,-1.084195404E0,2.233355713E0,8.120664638E0
9.643178000E0,-7.671247559E0,-8.376580811E-1,2.653082886E0,8.160181307E0
9.653118000E0,-7.698041840E0,-5.171745300E-1,3.177442474E0,8.344067254E0
9.663058000E0,-7.780520325E0,-1.689985657E-1,3.826642456E0,8.672268995E0
9.672997000E0,-7.878416748E0,2.043251038E-1,4.501139832E0,9.075872354E0
9.682937000E0,-7.832312622E0,5.511538696E-1,5.275928650E0,9.459614935E0
9.692876000E0,-7.679779816E0,9.249266052E-1,5.838458862E0,9.691341967E0
9.702816000E0,-7.821684723E0,1.011895752E0,5.342540131E0,9.526039049E0
9.712755000E0,-8.417745209E0,5.550457764E-1,4.165537720E0,9.408411912E0
9.722695000E0,-9.179660797E0,1.116677856E-1,3.361709290E0,9.776488705E0
9.732634000E0,-9.935888214E0,-3.089575195E-1,2.887345734E0,1.035152620E1
9.742574000E0,-1.054766602E1,-8.997789001E-1,2.599494324E0,1.090046931E1
9.752513000E0,-1.106753494E1,-1.662891998E0,2.492017822E0,1.146584896E1
9.762453000E0,-1.153351593E1,-2.368374939E0,2.764750671E0,1.209442168E1
9.772392000E0,-1.174936707E1,-2.648292847E0,3.589385834E0,1.256760805E1
9.782332000E0,-1.122755219E1,-2.381697235E0,4.958887939E0,1.250283885E1
9.792271000E0,-1.042611877E1,-2.020049286E0,6.755751343E0,1.258668852E1
9.802211000E0,-1.030337402E1,-1.536854095E0,8.275091858E0,1.330408141E1
9.812150000E0,-1.124985580E1,-6.150709534E-1,8.488398285E0,1.410639831E1
9.822090000E0,-1.346060852E1,1.565744019E-1,7.308701477E0,1.531762431E1
9.832029000E0,-1.523741364E1,4.311035156E-1,5.634882202E0,1.625166213E1
9.841969000E0,-1.562121552E1,5.794450378E-1,4.096830597E0,1.615989331E1
9.851909000E0,-1.431099014E1,4.611909485E-1,2.866539001E0,1.460254025E1
9.861848000E0,-1.228585144E1,-2.362088013E-1,1.863175507E0,1.242857044E1
9.871788000E0,-1.112052475E1,-9.831555176E-1,1.007405090E0,1.120926093E1
9.881727000E0,-1.033675461E1,-9.517208862E-1,3.876937866E-1,1.038771269E1
9.891667000E0,-9.496701508E0,-2.213896179E-1,-5.658233643E-2,9.499450218E0
9.901606000E0,-8.654103699E0,5.900729370E-1,-4.484674072E-1,8.685782631E0
9.911546000E0,-8.374934235E0,1.217568054E0,-8.665480042E-1,8.507226390E0
9.921485000E0,-8.854387207E0,1.680555267E0,-1.217268677E0,9.094293917E0
9.931425000E0,-9.778715057E0,1.872605896E0,-1.571432190E0,1.007964881E1
9.941364000E0,-1.074779984E1,1.661245422E0,-2.041754150E0,1.106542804E1
9.951304000E0,-1.153950348E1,1.089584198E0,-2.590063934E0,1.187669000E1
9.961243000E0,-1.191043213E1,3.974235535E-1,-3.061284027E0,1.230397492E1
9.971183000E0,-1.170595734E1,-2.366578674E-1,-3.277883606E0,1.215853466E1
9.981122000E0,-1.111573471E1,-7.764353943E-1,-3.273542633E0,1.161371997E1
9.991062000E0,-1.034214340E1,-1.184337158E0,-2.964435425E0,1.082360670E1
1.000100100E1,-9.648036804E0,-1.484013977E0,-2.306254120E0,1.003024026E1
1.001094100E1,-9.249864807E0,-1.690434723E0,-1.593286743E0,9.537092384E0
1.002088000E1,-8.971892853E0,-1.769320679E0,-7.469467163E-1,9.175145036E0
1.003082000E1,-8.752598877E0,-1.665586395E0,2.442919922E-1,8.913015411E0
1.004075900E1,-8.556356964E0,-1.423539734E0,1.138532410E0,8.748369329E0
1.005069900E1,-8.372239838E0,-1.116827545E0,1.832040253E0,8.642804820E0
1.006063900E1,-8.135432281E0,-8.291258240E-1,2.678080902E0,8.604930294E0
1.007057800E1,-7.976462860E0,-4.833448792E-1,3.611240387E0,8.769186916E0
1.008051800E1,-7.386090546E0,1.025367737E-1,4.712200928E0,8.761831140E0
1.009045700E1,-6.726262665E0,3.809577942E-1,5.476960602E0,8.682444109E0
1.010039700E1,-6.060147858E0,4.813989258E-1,6.028862915E0,8.561794498E0
1.011033600E1,-5.143154755E0,6.438111877E-1,6.738387451E0,8.501317493E0
1.012027600E1,-5.340594177E0,8.405021667E-1,5.240302734E0,7.529220598E0
1.013021500E1,-6.702312469E0,9.804611206E-1,2.865191803E0,7.354700573E0
1.014015500E1,-7.628137207E0,1.203497314E0,1.771266632E0,7.923021426E0
1.015009400E1,-7.874824219E0,1.452878723E0,1.444945221E0,8.137049819E0
1.016003400E1,-7.528594208E0,1.505269775E0,1.685045929E0,7.860340172E0
1.016997300E1,-7.050638123E0,1.281485138E0,2.340083771E0,7.538547217E0
1.017991300E1,-6.726562042E0,9.199868774E-1,3.025508423E0,7.432813329E0
1.018985167E1,-6.556665344E0,6.179150391E-1,3.624712372E0,7.517327930E0
1.019979167E1,-6.630012817E0,3.112028503E-1,4.122577057E0,7.813421706E0
1.020973067E1,-6.886130219E0,-2.109114075E-1,4.434977417E0,8.193430155E0
1.021967067E1,-7.365583191E0,-7.366181946E-1,4.632267151E0,8.732257501E0
1.022960967E1,-7.847131805E0,-8.810678101E-1,4.617447968E0,9.147381253E0
1.023954967E1,-8.274942169E0,-1.791773987E-1,4.462220764E0,9.403094522E0
1.024948867E1,-8.847052460E0,1.054557037E0,4.349804535E0,9.914798397E0
1.025942867E1,-9.264683990E0,1.628912659E0,4.115841064E0,1.026780763E1
1.026936867E1,-9.445507965E0,1.563498688E0,3.659290466E0,1.024951489E1
1.027930767E1,-9.451046448E0,1.123413849E0,3.011138306E0,9.982549350E0
1.028924767E1,-9.720186768E0,7.949967957E-1,2.604733429E0,1.009448795E1
1.029918667E1,-1.029633865E1,5.523513794E-1,2.860401764E0,1.070054111E1
1.030912667E1,-1.085258194E1,4.805007935E-2,3.615581360E0,1.143911151E1
1.031906567E1,-1.139430542E1,-5.041516113E-1,4.547094269E0,1.227845394E1
1.032900567E1,-1.185609512E1,-7.409591675E-1,5.654790802E0,1.315646879E1
1.033894467E1,-1.210487778E1,-8.042774963E-1,6.700815582E0,1.385914347E1
1.034888467E1,-1.237805969E1,-1.099014587E0,7.073241119E0,1.429877389E1
1.035882367E1,-1.305734711E1,-1.706451416E0,6.243666229E0,1.457359454E1
1.036876367E1,-1.416788773E1,-2.225571899E0,4.452191620E0,1.501679803E1
1.037870267E1,-1.539054520E1,-2.236798553E0,2.692600708E0,1.578360693E1
1.038864267E1,-1.583227661E1,-1.382824402E0,1.764530640E0,1.599020808E1
1.039858167E1,-1.410980850E1,2.972817993E-1,1.336720276E0,1.417610290E1
1.040852167E1,-1.161374908E1,1.564097443E0,9.695338440E-1,1.175863787E1
1.041846067E1,-9.621541901E0,2.098785553E0,4.388873291E-1,9.857565188E0
1.042840067E1,-8.089328156E0,2.075733490E0,-2.275268555E-2,8.351432046E0
1.043833967E1,-7.161108398E0,1.513203278E0,-3.040177917E-1,7.325550114E0
1.044827967E1,-7.307503967E0,3.230282593E-1,-6.849755859E-1,7.346642297E0
1.045821967E1,-8.642577667E0,-7.848179626E-1,-1.137185211E0,8.752329871E0
1.046815867E1,-1.030876282E1,-1.258133698E0,-1.357527008E0,1.047360353E1
1.047809867E1,-1.187615341E1,-1.300645294E0,-1.233435059E0,1.201066443E1
1.048803767E1,-1.300690201E1,-9.865983582E-1,-6.914122009E-1,1.306257735E1
1.049797767E1,-1.340073303E1,-3.767665100E-1,2.817141724E-1,1.340898809E1
1.050791667E1,-1.277189072E1,1.046324158E-1,1.449435883E0,1.285429908E1
1.051785667E1,-1.153845566E1,2.459385681E-1,2.407593384E0,1.178952716E1
1.052779567E1,-1.030052994E1,2.552192688E-1,2.776127014E0,1.067112623E1
1.053773567E1,-9.389674072E0,2.457888794E-1,2.705923004E0,9.774886734E0
1.054767467E1,-8.895252228E0,1.963916016E-1,2.330952759E0,9.197685721E0
1.055761467E1,-8.554710388E0,2.089654541E-1,1.891316986E0,8.763778656E0
1.056755367E1,-8.112679596E0,2.200424194E-1,1.501677246E0,8.253424952E0
1.057749367E1,-7.643255768E0,1.437011719E-1,1.227896576E0,7.742592509E0
1.058743267E1,-7.302863617E0,2.574645996E-2,1.035845947E0,7.376005471E0
1.059737267E1,-7.139852600E0,-1.947450256E-1,9.538165283E-1,7.205913318E0
1.060731167E1,-7.061415710E0,-5.644761658E-1,9.412426758E-1,7.146199196E0
1.061725167E1,-7.029532013E0,-9.596543884E-1,9.271719360E-1,7.155061472E0
1.062719067E1,-7.111860809E0,-1.209484863E0,8.984317017E-1,7.269704074E0
1.063713067E1,-7.310797119E0,-1.277892609E0,9.066645813E-1,7.476817819E0
1.064706967E1,-7.536827087E0,-1.269060974E0,1.093176727E0,7.720706811E0
1.065700967E1,-7.848029938E0,-1.184636536E0,1.389410706E0,8.057629908E0
1.066694867E1,-8.035739594E0,-1.071322174E0,1.836680603E0,8.312294368E0
1.067688867E1,-8.117769012E0,-9.927355957E-1,2.374512177E0,8.515985309E0
1.068682867E1,-8.127798157E0,-8.851094055E-1,2.877615967E0,8.667479172E0
1.069676767E1,-8.150999908E0,-7.704478455E-1,3.417543182E0,8.871977840E0
1.070670767E1,-8.112529907E0,-6.453080750E-1,3.925586700E0,9.035474252E0
1.071664667E1,-8.039182434E0,-5.198689270E-1,4.305496674E0,9.134331914E0
1.072658667E1,-7.969876556E0,-5.057981873E-1,4.438569946E0,9.136501918E0
1.073652567E1,-8.005053406E0,-4.463717651E-1,4.387226715E0,9.139359170E0
1.074646567E1,-8.039781189E0,-2.471360779E-1,4.236639862E0,9.091109675E0
1.075640467E1,-8.110883331E0,2.469863892E-2,4.047133942E0,9.064564611E0
1.076634467E1,-8.163723450E0,3.076103210E-1,3.841611328E0,9.027678676E0
1.077628367E1,-8.171806641E0,4.724176025E-1,3.610641632E0,8.946414654E0
1.078622367E1,-8.337062988E0,4.436773682E-1,3.402574310E0,9.015596531E0
1.079616267E1,-8.696914673E0,9.430389404E-2,3.201991425E0,9.268115619E0
1.080610267E1,-9.325008545E0,-6.394702148E-1,2.945574646E0,9.800056965E0
1.081604167E1,-1.002540207E1,-1.560205536E0,2.746338959E0,1.051119906E1
1.082598167E1,-1.065304688E1,-2.449655914E0,2.811603241E0,1.128686558E1
1.083592067E1,-1.116677856E1,-3.103945312E0,3.387306061E0,1.207498498E1
1.084586067E1,-1.137349869E1,-3.265758820E0,4.415368195E0,1.263000908E1
1.085579967E1,-1.086470673E1,-2.843936005E0,5.600603485E0,1.254976429E1
1.086573967E1,-9.854307861E0,-2.127974854E0,6.827452240E0,1.217578599E1
1.087567867E1,-9.253157959E0,-9.656419373E-1,8.162226562E0,1.237640251E1
1.088561867E1,-9.576635284E0,3.576063538E-1,8.847501526E0,1.304293329E1
1.089555867E1,-1.089359665E1,9.843530273E-1,8.194409637E0,1.366703143E1
1.090549767E1,-1.262220200E1,7.917036438E-1,6.311026154E0,1.413420776E1
1.091543767E1,-1.382210678E1,1.755848694E-1,3.952380981E0,1.437716180E1
1.092537667E1,-1.391910507E1,-5.490582275E-1,2.040856018E0,1.407863787E1
1.093531667E1,-1.289313858E1,-1.031355286E0,9.038204956E-1,1.296586317E1
1.094525567E1,-1.145657593E1,-1.191522217E0,1.031355286E-1,1.151883215E1
1.095519567E1,-1.065708847E1,-1.038540344E0,-4.721182251E-1,1.071797538E1
1.096513467E1,-1.063283890E1,-6.328839111E-1,-9.613009644E-1,1.069494762E1
1.097507467E1,-1.082219513E1,4.864883423E-2,-1.457968140E0,1.092007075E1
1.098501367E1,-1.093131821E1,9.578581238E-1,-2.110910339E0,1.117439718E1
1.099495367E1,-1.075962524E1,1.785337372E0,-2.752176819E0,1.124861957E1
1.100489267E1,-1.049856812E1,2.431842957E0,-3.279829559E0,1.126459385E1
1.101483267E1,-1.030876282E1,2.799478455E0,-3.723057861E0,1.131233090E1
1.102477167E1,-1.034947815E1,2.748135223E0,-3.854933624E0,1.138088127E1
1.103471167E1,-1.075618240E1,2.216291199E0,-3.774251404E0,1.161259576E1
1.104465067E1,-1.079899338E1,1.329684906E0,-3.305276642E0,1.137150709E1
1.105459067E1,-1.036399796E1,4.330494690E-1,-2.470163269E0,1.066309955E1
1.106452967E1,-1.008737320E1,-5.114863586E-1,-1.755100250E0,1.025168734E1
1.107446967E1,-9.918075256E0,-1.419647827E0,-1.117725677E0,1.008131576E1
1.108440867E1,-9.776918793E0,-2.215093689E0,-4.650828552E-1,1.003549118E1
1.109434867E1,-9.690099335E0,-2.825075226E0,1.645079041E-1,1.009485701E1
1.110428867E1,-9.531429291E0,-3.153492279E0,6.962022400E-1,1.006366511E1
1.111422767E1,-9.274114380E0,-3.115022278E0,1.185983734E0,9.854903284E0
1.112416767E1,-8.829987946E0,-2.599644012E0,1.674717407E0,9.355827836E0
1.113410667E1,-8.230484619E0,-1.731299744E0,2.405797119E0,8.747921790E0
1.114404667E1,-7.649093628E0,-6.418652344E-1,3.464994507E0,8.421805700E0
1.115398567E1,-7.135661316E0,1.953437805E-1,4.519252167E0,8.448636680E0
1.116392567E1,-6.587950287E0,8.515791321E-1,5.237159271E0,8.458966440E0
1.117386467E1,-5.694158936E0,1.380130005E0,6.176156616E0,8.513114316E0
1.118380504E1,-4.437073059E0,1.893412628E0,6.960824890E0,8.469103368E0
1.119374404E1,-5.235961761E0,1.721120911E0,4.606520691E0,7.183145943E0
1.120368404E1,-6.836882629E0,1.582509155E0,2.455344086E0,7.434784052E0
1.121362304E1,-7.626191254E0,1.630559235E0,1.679357758E0,7.977327807E0
1.122356304E1,-8.072563019E0,1.722318420E0,1.544937286E0,8.397588085E0
1.123350204E1,-8.208779755E0,1.613943787E0,1.945953369E0,8.589273201E0
1.124344204E1,-7.936645660E0,1.202898560E0,2.639012146E0,8.449952331E0
1.125338104E1,-7.390581207E0,8.660989380E-1,3.462449799E0,8.207275831E0
1.126332104E1,-7.010371857E0,5.556445312E-1,4.230352936E0,8.206700943E0
1.127326004E1,-6.969506836E0,1.495390320E-1,4.755460968E0,8.438648972E0
1.128320004E1,-7.286697235E0,-1.712438965E-1,5.133724365E0,8.915178457E0
1.129313904E1,-7.840994568E0,-3.260220337E-1,5.379962311E0,9.514803237E0
1.130307904E1,-8.314010925E0,-4.348457336E-1,5.288352814E0,9.862988592E0
1.131301904E1,-8.725954285E0,-4.002676392E-1,4.795278168E0,9.964797292E0
1.132295804E1,-9.015901337E0,-2.682421875E-1,3.989503784E0,9.862787194E0
1.133289804E1,-9.220525818E0,-7.095245361E-2,3.172053680E0,9.751156606E0
1.134283704E1,-9.423354034E0,2.532733154E-1,2.656825104E0,9.794001647E0
1.135277704E1,-9.980794830E0,1.000519409E0,2.674039307E0,1.038112666E1
1.136271604E1,-1.073507629E1,1.854493561E0,3.313659210E0,1.138689364E1
1.137265604E1,-1.101694016E1,2.304457855E0,4.152365112E0,1.199690095E1
1.138259504E1,-1.090407486E1,2.207160187E0,5.088967438E0,1.223388713E1
1.139253504E1,-1.050260971E1,1.673819275E0,5.962850189E0,1.219270536E1
1.140247404E1,-1.034019745E1,8.297245789E-1,6.526278534E0,1.225562882E1
1.141241404E1,-1.077668976E1,-4.143383789E-1,6.784790955E0,1.274135420E1
1.142235304E1,-1.194486053E1,-1.517693939E0,6.534361725E0,1.369967048E1
1.143229304E1,-1.335522766E1,-2.086361389E0,5.206024017E0,1.448508529E1
1.144223204E1,-1.442101135E1,-2.328707428E0,2.978955231E0,1.490847480E1
1.145217204E1,-1.508368332E1,-2.455643463E0,9.964778137E-1,1.531472022E1
1.146211104E1,-1.435619614E1,-2.123484192E0,-6.646179199E-2,1.451254526E1
1.147205104E1,-1.226235031E1,-1.112187195E0,-4.370910645E-1,1.232044009E1
1.148199004E1,-1.027208908E1,-2.344125366E-1,-5.366340637E-1,1.028876763E1
1.149193004E1,-8.902137909E0,1.179547119E-1,-5.863307190E-1,8.922205802E0
1.150186904E1,-8.148305511E0,1.907034302E-1,-6.709048462E-1,8.178102703E0
1.151180904E1,-7.939789124E0,2.724334717E-2,-8.812174988E-1,7.988587973E0
1.152174804E1,-8.398585052E0,-3.742218018E-1,-1.211131439E0,8.493710155E0
1.153168804E1,-9.521849213E0,-7.255412292E-1,-1.548380127E0,9.674166813E0
1.154162804E1,-1.080962128E1,-7.689509583E-1,-1.591640167E0,1.095319662E1
1.155156704E1,-1.192375443E1,-4.704716492E-1,-1.240769806E0,1.199736525E1
1.156150704E1,-1.266201920E1,-4.849914551E-2,-4.561015320E-1,1.267032402E1
1.157144604E1,-1.285781204E1,2.378553772E-1,8.897497559E-1,1.289075484E1
1.158138604E1,-1.232806366E1,1.721420288E-1,2.326162720E0,1.254678522E1
1.159132504E1,-1.157827286E1,-2.245330811E-3,3.182082825E0,1.200758338E1
1.160126504E1,-1.084120560E1,-1.047821045E-3,3.427722015E0,1.137018109E1
1.161120404E1,-1.005249573E1,1.193019104E-1,3.470532990E0,1.063538916E1
1.162114404E1,-9.287137299E0,2.761756897E-1,3.398981781E0,9.893445778E0
1.163108304E1,-8.403674469E0,3.338058472E-1,3.117866364E0,8.969629958E0
1.164102304E1,-7.439080353E0,3.564088440E-1,2.784060516E0,7.950970803E0
1.165096204E1,-6.680457916E0,1.604663086E-1,2.514770508E0,7.139911632E0
1.166090204E1,-6.577172699E0,-1.504371643E-1,2.264640656E0,6.957760369E0
1.167084104E1,-6.835236053E0,-4.161346436E-1,1.952689362E0,7.120857792E0
1.168078104E1,-6.943161621E0,-6.068380737E-1,1.706601105E0,7.175530160E0
1.169072004E1,-6.966662750E0,-7.584727478E-1,1.540147247E0,7.175076608E0
1.170066004E1,-7.161108398E0,-8.292755127E-1,1.463057556E0,7.355930178E0
1.171059904E1,-7.469916229E0,-8.653504944E-1,1.454824677E0,7.659307723E0
1.172053904E1,-7.705675964E0,-9.354048157E-1,1.507814484E0,7.907333859E0
1.173047804E1,-7.890092468E0,-1.018032990E0,1.689386902E0,8.132894837E0
1.174041804E1,-7.960895233E0,-1.016985168E0,2.007475433E0,8.272851344E0
1.175035804E1,-7.918233948E0,-8.957373047E-1,2.412233734E0,8.325842045E0
1.176029704E1,-7.902067566E0,-8.122109985E-1,2.947221222E0,8.472807767E0
1.177023704E1,-7.934400330E0,-7.644602966E-1,3.539539490E0,8.721665434E0
1.178017604E1,-7.940088501E0,-7.238946533E-1,4.065845032E0,8.949867300E0
1.179011604E1,-7.864795074E0,-7.265890503E-1,4.474195862E0,9.077519585E0
1.180005504E1,-7.771089935E0,-7.021897888E-1,4.776417389E0,9.148610406E0
1.180999504E1,-7.746391296E0,-5.429209900E-1,4.913083191E0,9.189109193E0
1.181993404E1,-7.695048065E0,-2.089654541E-1,4.922214203E0,9.137046785E0
1.182987404E1,-7.605683899E0,1.621128845E-1,4.763993225E0,8.975986832E0
1.183981304E1,-7.564968567E0,4.272116089E-1,4.509073334E0,8.817199187E0
1.184975304E1,-7.798932037E0,6.231541443E-1,4.207899628E0,8.883584934E0
1.185969204E1,-8.217012634E0,5.819897461E-1,3.776496735E0,9.062005092E0
1.186963204E1,-8.770411835E0,2.192939758E-1,3.262615356E0,9.360174815E0
1.187957104E1,-9.389524384E0,-2.830613708E-1,2.790497131E0,9.799498259E0
1.188951104E1,-9.951455841E0,-8.385562134E-1,2.480791168E0,1.029023686E1
1.189945004E1,-1.041354492E1,-1.507964172E0,2.336042175E0,1.077835641E1
1.190939004E1,-1.078971268E1,-2.056124268E0,2.531385956E0,1.127179939E1
1.191932904E1,-1.094748459E1,-2.187850342E0,3.407214661E0,1.167232709E1
1.192926904E1,-1.073896820E1,-1.994153137E0,4.841382294E0,1.194742932E1
1.193920804E1,-1.035576508E1,-1.817520447E0,6.624025269E0,1.242670357E1
1.194914804E1,-1.023107437E1,-1.462458801E0,8.289611664E0,1.324882372E1
1.195908704E1,-1.132514923E1,-8.904981995E-1,8.780590668E0,1.435795127E1
1.196902704E1,-1.380908386E1,-7.042854309E-1,7.413184204E0,1.568891695E1
1.197896604E1,-1.570953186E1,-7.914042664E-1,5.547763367E0,1.667913038E1
1.198890604E1,-1.613225281E1,-8.569679260E-1,4.195625153E0,1.669093302E1
1.199884604E1,-1.455318649E1,-1.111139374E0,2.937491455E0,1.488820754E1
1.200878504E1,-1.201027451E1,-1.291514282E0,1.714384918E0,1.220056632E1
1.201872504E1,-1.050575317E1,-9.512718201E-1,7.885601807E-1,1.057816596E1
1.202866404E1,-9.591604156E0,-2.466870117E-1,2.131567383E-1,9.597143355E0
1.203860404E1,-8.881331177E0,4.375401306E-1,-2.276765442E-1,8.895016664E0
1.204854304E1,-8.565038910E0,9.702822876E-1,-6.355783081E-1,8.643222723E0
1.205848304E1,-8.809630280E0,1.463806000E0,-1.013542328E0,8.987746198E0
1.206842204E1,-9.454788666E0,1.868115234E0,-1.321002960E0,9.727688937E0
1.207836204E1,-1.014694931E1,2.133213959E0,-1.535057831E0,1.048177393E1
1.208830104E1,-1.071397018E1,2.189646606E0,-1.752106476E0,1.107490797E1
1.209824104E1,-1.108040817E1,1.974693604E0,-1.891316986E0,1.141279720E1
1.210818004E1,-1.108100693E1,1.525477753E0,-1.813778229E0,1.133161896E1
1.211812004E1,-1.072579559E1,9.404942322E-1,-1.650617523E0,1.089273881E1
1.212805904E1,-1.012793884E1,3.809577942E-1,-1.504072266E0,1.024609718E1
1.213799904E1,-9.707463226E0,-1.972897339E-1,-1.340911560E0,9.801622791E0
1.214793804E1,-9.646539917E0,-9.093589783E-1,-1.084794159E0,9.749843306E0
1.215787804E1,-9.674382019E0,-1.642384644E0,-6.030958557E-1,9.831318293E0
1.216781704E1,-9.533225555E0,-2.298021240E0,8.936416626E-2,9.806695522E0
1.217775704E1,-9.276808777E0,-2.840044098E0,8.309220886E-1,9.737323199E0
1.218769613E1,-8.938512268E0,-2.936743011E0,1.922152863E0,9.602923134E0
1.219763612E1,-8.766070862E0,-2.456391907E0,3.361858978E0,9.704635766E0
1.220757612E1,-8.360264740E0,-1.622176666E0,4.791386261E0,9.771533450E0
1.221751512E1,-7.453151093E0,-7.610174561E-1,5.689518585E0,9.407402963E0
1.222745512E1,-6.506819000E0,1.107696533E-2,6.063590698E0,8.894152481E0
1.223739412E1,-5.703888702E0,7.231462097E-1,6.126459961E0,8.401833039E0
1.224733412E1,-5.408552856E0,1.081201630E0,4.897216187E0,7.375918068E0
1.225727312E1,-5.998326416E0,1.107247467E0,2.838098145E0,6.727608626E0
1.226721312E1,-6.659800873E0,1.376836853E0,1.587598572E0,6.983487425E0
1.227715212E1,-7.189998322E0,1.762434998E0,1.038690033E0,7.475368216E0
1.228709212E1,-7.500752106E0,2.047592010E0,1.009800110E0,7.840510918E0
1.229703112E1,-7.582631836E0,1.937720490E0,1.618733826E0,7.991956297E0
1.230697112E1,-7.671397247E0,1.329684906E0,2.696342926E0,8.239457679E0
1.231691012E1,-7.769892426E0,6.438111877E-1,3.770509186E0,8.660396104E0
1.232685012E1,-7.833210754E0,-5.239105225E-3,4.628375244E0,9.098410607E0
1.233678912E1,-7.958799591E0,-4.972659302E-1,5.337899780E0,9.595985536E0
1.234672912E1,-8.089028778E0,-9.548643494E-1,5.937852173E0,1.007979369E1
1.235666812E1,-8.195607147E0,-1.386267242E0,6.384074249E0,1.048074985E1
1.236660812E1,-8.430169373E0,-1.551224213E0,6.481521606E0,1.074635634E1
1.237654712E1,-8.671617279E0,-1.138083344E0,6.219566345E0,1.073197025E1
1.238648712E1,-8.895850983E0,-2.739303589E-1,5.604495392E0,1.051767898E1
1.239642612E1,-8.997938690E0,4.143383789E-1,4.753365326E0,1.018474638E1
1.240636613E1,-8.875343628E0,7.759863281E-1,3.723506927E0,9.656002441E0
1.241630512E1,-8.847052460E0,1.064137115E0,2.664459229E0,9.300648795E0
1.242624513E1,-8.984915771E0,1.428778839E0,1.900597687E0,9.294212821E0
1.243618412E1,-9.447453918E0,1.866917725E0,1.830842743E0,9.802640077E0
1.244612413E1,-1.033675461E1,2.522554321E0,2.728675690E0,1.098441838E1
1.245606412E1,-1.109807144E1,3.040626984E0,4.205504608E0,1.225148445E1
1.246600313E1,-1.149938690E1,2.930605774E0,5.778283997E0,1.319897402E1
1.247594312E1,-1.174532547E1,2.151925049E0,6.797364807E0,1.374000073E1
1.248588213E1,-1.180265625E1,1.295406189E0,6.917265472E0,1.374151860E1
1.249582212E1,-1.175490555E1,3.278182983E-1,6.664291534E0,1.351658429E1
1.250576113E1,-1.231444199E1,-8.339158630E-1,6.606960754E0,1.399974384E1
1.251570112E1,-1.333516937E1,-1.896107025E0,6.137985992E0,1.480192001E1
1.252564013E1,-1.405891434E1,-2.658172302E0,4.733606415E0,1.507069945E1
1.253558012E1,-1.454884552E1,-3.046165466E0,3.016676788E0,1.516734548E1
1.254551913E1,-1.394724655E1,-2.634222107E0,1.651515656E0,1.428958769E1
1.255545912E1,-1.204799606E1,-1.483714600E0,7.831713867E-1,1.216424990E1
1.256539813E1,-1.006791367E1,-6.280938721E-1,2.320175171E-1,1.009015459E1
1.257533812E1,-8.465196533E0,-5.770500183E-1,-1.932481384E-1,8.487042118E0
1.258527713E1,-7.495513000E0,-8.798703003E-1,-6.807843018E-1,7.577621932E0
1.259521712E1,-7.124284973E0,-1.035097504E0,-1.140328674E0,7.288841657E0
1.260515613E1,-7.347021790E0,-1.044078827E0,-1.626517639E0,7.596998710E0
1.261509612E1,-8.272247772E0,-8.469387817E-1,-2.209555206E0,8.604041069E0
1.262503513E1,-9.513616333E0,-5.587879944E-1,-2.703527985E0,9.906069014E0
1.263497512E1,-1.070498886E1,-2.769241333E-1,-2.800975342E0,1.106882723E1
1.264491413E1,-1.163814835E1,-1.139131165E-1,-2.356250153E0,1.187482159E1
1.265485412E1,-1.209619583E1,-1.571731567E-1,-1.478325806E0,1.218721068E1
1.266479313E1,-1.184486847E1,-4.713697815E-1,-3.833528137E-1,1.186044088E1
1.267473312E1,-1.128937363E1,-9.759704590E-1,9.934840393E-1,1.137494992E1
1.268467312E1,-1.084360062E1,-1.410367126E0,2.793640594E0,1.128615247E1
1.269461212E1,-1.069436096E1,-1.416803741E0,4.268972626E0,1.160175920E1
1.270455213E1,-1.036115387E1,-8.699908447E-1,5.514532471E0,1.176947161E1
1.271449112E1,-9.539662170E0,-1.110690308E-1,5.847140808E0,1.118957311E1
1.272443113E1,-8.993298340E0,-4.370910645E-2,3.712729340E0,9.729629215E0
1.273437012E1,-8.570128326E0,-2.781216431E-1,2.065854034E0,8.819988893E0
1.274431013E1,-8.048762512E0,-3.126997375E-1,1.592089233E0,8.210670328E0
1.275424912E1,-7.592960358E0,-3.059637451E-1,1.466051331E0,7.739248498E0
1.276418913E1,-7.288792877E0,-2.550695801E-1,1.422192535E0,7.430625391E0
1.277412812E1,-7.055877228E0,-2.550695801E-1,1.313967590E0,7.181711131E0
1.278406813E1,-6.878645782E0,-3.282673645E-1,1.173559570E0,6.985754743E0
1.279400712E1,-6.854545898E0,-3.564088440E-1,1.074016571E0,6.947325984E0
1.280394713E1,-7.039112091E0,-1.881587219E-1,1.115031281E0,7.129361647E0
1.281388612E1,-7.249275055E0,-6.182144165E-2,1.294957123E0,7.364287112E0
1.282382613E1,-7.541168060E0,-1.100212097E-1,1.610051880E0,7.711912048E0
1.283376512E1,-7.841743011E0,-2.143542480E-1,2.010020142E0,8.098090032E0
1.284370513E1,-8.032596130E0,-2.576142883E-1,2.425406342E0,8.394734161E0
1.285364412E1,-8.098908234E0,-2.577639771E-1,2.924767914E0,8.614698149E0
1.286358413E1,-7.993976440E0,-2.327659607E-1,3.479214935E0,8.721397588E0
1.287352312E1,-7.828720093E0,-2.363584900E-1,4.109554138E0,8.844951037E0
1.288346313E1,-7.670349426E0,-4.490661621E-1,4.705015869E0,9.009611261E0
1.289340212E1,-7.576344910E0,-8.250842285E-1,5.061275024E0,9.148675918E0
1.290334213E1,-7.576494598E0,-1.134341125E0,4.834795990E0,9.058987386E0
1.291328112E1,-7.712112579E0,-1.156495056E0,4.310735779E0,8.910477215E0
1.292322113E1,-7.875123596E0,-1.021924896E0,3.926035767E0,8.858648824E0
1.293316112E1,-7.980803833E0,-8.834628296E-1,3.572620697E0,8.788478539E0
1.294310013E1,-8.281079407E0,-7.453001404E-1,3.200644226E0,8.909313773E0
1.295304012E1,-8.838071136E0,-6.664141846E-1,2.727328491E0,9.273291216E0
1.296297913E1,-9.382788391E0,-7.661068726E-1,2.225422211E0,9.673476198E0
1.297291912E1,-9.730515289E0,-1.099912720E0,1.861528931E0,9.967849605E0
1.298285813E1,-1.002016296E1,-1.569935303E0,1.680854645E0,1.028074098E1
1.299279812E1,-1.037732025E1,-2.045945435E0,1.796114960E0,1.072849930E1
1.300273713E1,-1.091724747E1,-2.417622528E0,2.517015839E0,1.146152519E1
1.301267712E1,-1.144100830E1,-2.387535095E0,4.093238068E0,1.238352101E1
1.302261613E1,-1.152827682E1,-1.795067139E0,6.450835419E0,1.333179321E1
1.303255612E1,-1.128129044E1,-7.970924377E-1,8.431815948E0,1.410667893E1
1.304249513E1,-1.141660904E1,-7.214996338E-2,8.813522186E0,1.442297961E1
1.305243512E1,-1.239527390E1,2.234852600E-1,8.217910767E0,1.487369550E1
1.306237413E1,-1.379142059E1,3.266207886E-1,6.972350922E0,1.545715499E1
1.307231412E1,-1.505314682E1,2.417472839E-1,5.234913940E0,1.593925955E1
1.308225313E1,-1.563184341E1,-8.786727905E-2,3.482807465E0,1.601537377E1
1.309219312E1,-1.508098892E1,-8.464897156E-1,2.017205200E0,1.523882832E1
1.310213213E1,-1.357182724E1,-1.698817291E0,9.647438049E-1,1.371171781E1
1.311207212E1,-1.204964264E1,-2.277813263E0,2.140548706E-1,1.226491502E1
1.312201113E1,-1.109238327E1,-2.462080078E0,-4.848417664E-1,1.137268115E1
1.313195112E1,-1.033944901E1,-2.065554657E0,-1.062490540E0,1.059715093E1
1.314189012E1,-9.577683105E0,-9.440867615E-1,-1.520987091E0,9.743547363E0
1.315183012E1,-8.741521912E0,2.706372070E-1,-1.903890839E0,8.950544685E0
1.316176912E1,-8.297994232E0,1.381926270E0,-2.252216492E0,8.708553704E0
1.317170912E1,-8.232430573E0,2.285746765E0,-2.502945099E0,8.902936907E0
1.318164913E1,-8.411757660E0,2.887046356E0,-2.651136932E0,9.280152511E0
1.319158779E1,-8.821455688E0,3.268153839E0,-2.682421875E0,9.782346196E0
1.320152779E1,-9.470505981E0,3.441044312E0,-2.654579773E0,1.042007981E1
1.321146679E1,-9.989626465E0,3.383264465E0,-2.559826813E0,1.085319440E1
1.322140679E1,-1.004441254E1,2.972368927E0,-2.404000854E0,1.074729828E1
1.323134579E1,-9.915530548E0,2.152823181E0,-2.278412018E0,1.039920935E1
1.324128579E1,-9.864037628E0,1.187630310E0,-2.075284424E0,1.014970490E1
1.325122479E1,-9.638007660E0,2.176473999E-1,-1.671873322E0,9.784361116E0
1.326116479E1,-9.210945740E0,-6.414161682E-1,-1.177601166E0,9.308043867E0
1.327110379E1,-8.858578491E0,-1.307830353E0,-6.933581543E-1,8.981401820E0
1.328104379E1,-8.715775452E0,-1.776505737E0,-1.423539734E-1,8.896121571E0
1.329098279E1,-8.544980621E0,-2.088007965E0,7.361691284E-1,8.827140877E0
1.330092279E1,-8.458610229E0,-2.080224152E0,2.251617737E0,8.996955150E0
1.331086179E1,-8.670868835E0,-1.963017883E0,3.987408142E0,9.743553216E0
1.332080179E1,-8.421038361E0,-1.782942352E0,6.320905609E0,1.067926113E1
1.333074079E1,-7.468419342E0,-1.765877838E0,1.033780243E1,1.287500567E1
1.334068079E1,-6.867119751E0,-1.514400787E0,8.576564941E0,1.109090662E1
1.335061979E1,-8.224497070E0,-1.125359802E0,5.037175140E0,9.709887751E0
1.336055979E1,-9.058113556E0,-6.971003723E-1,3.110531616E0,9.602644274E0
1.337049879E1,-8.761280823E0,-1.594184875E-1,2.070644073E0,9.004055908E0
1.338043879E1,-8.163274384E0,3.960763550E-1,1.704655151E0,8.348758849E0
1.339037779E1,-7.225773926E0,8.946894836E-1,1.745669861E0,7.487298669E0
1.340031779E1,-6.438710632E0,1.127605133E0,2.058968353E0,6.853308589E0
1.341025679E1,-6.341862030E0,8.870553589E-1,2.481689301E0,6.867667945E0
1.342019679E1,-6.556066589E0,4.204756165E-1,3.001408539E0,7.222690779E0
1.343013579E1,-7.088808746E0,-1.170565796E-1,3.555406494E0,7.931319375E0
1.344007579E1,-7.707023163E0,-6.391708374E-1,4.041894836E0,8.726033421E0
1.345001579E1,-8.165819092E0,-9.466314697E-1,4.457730103E0,9.351367293E0
1.345995479E1,-8.483907623E0,-8.734336853E-1,4.686903534E0,9.731733643E0
1.346989479E1,-8.619375916E0,-4.680766296E-1,4.622687073E0,9.791934062E0
1.347983379E1,-8.598868561E0,1.371148682E-1,4.214336243E0,9.577054400E0
1.348977379E1,-8.631949768E0,6.984475708E-1,3.527414703E0,9.350991407E0
1.349971279E1,-8.835975494E0,1.072669373E0,2.808160400E0,9.333319204E0
1.350965279E1,-9.153315582E0,1.366059265E0,2.258952484E0,9.526393357E0
1.351959179E1,-9.546996918E0,1.710343323E0,2.045945435E0,9.912432454E0
1.352953179E1,-1.000908600E1,2.064357147E0,2.208956451E0,1.045575734E1
1.353947079E1,-1.050829788E1,2.144889679E0,2.837200012E0,1.109389832E1
1.354941079E1,-1.068522995E1,1.539847870E0,3.745660858E0,1.142695260E1
1.355934979E1,-1.071337143E1,4.610412598E-1,4.540807343E0,1.164507697E1
1.356928979E1,-1.110660370E1,-3.180885315E-1,5.118156738E0,1.223328878E1
1.357922879E1,-1.156779465E1,-6.162684631E-1,5.613626404E0,1.287270217E1
1.358916879E1,-1.216355576E1,-6.245013428E-1,5.836961975E0,1.350600665E1
1.359910779E1,-1.335358109E1,-6.701564026E-1,5.057233429E0,1.429485388E1
1.360904779E1,-1.439556427E1,-1.066532135E0,3.227288818E0,1.479138785E1
1.361898679E1,-1.521780441E1,-1.519190826E0,1.382075958E0,1.535576914E1
1.362892679E1,-1.549817139E1,-1.474134521E0,1.221459961E-1,1.556860008E1
1.363886579E1,-1.379426468E1,-5.652246094E-1,-2.362088013E-1,1.380786050E1
1.364880579E1,-1.125823837E1,1.475930786E-1,3.083587646E-2,1.125924801E1
1.365874479E1,-9.295819244E0,1.136137390E-1,3.113525391E-1,9.301725857E0
1.366868479E1,-7.765551453E0,-3.603007507E-1,4.370910645E-1,7.786183570E0
1.367862479E1,-6.904092865E0,-1.014440460E0,3.270698547E-1,6.985883081E0
1.368856379E1,-7.405400391E0,-1.470691681E0,-4.864883423E-2,7.550182493E0
1.369850279E1,-8.995543671E0,-1.418001251E0,-6.646179199E-1,9.130840622E0
1.370844279E1,-1.046518753E1,-8.518785095E-1,-1.303040314E0,1.058034787E1
1.371838279E1,-1.147438889E1,-2.746788025E-1,-1.658101959E0,1.159682503E1
1.372832179E1,-1.204949295E1,1.311273193E-1,-1.537452850E0,1.214789019E1
1.373826179E1,-1.213271988E1,3.600013733E-1,-9.629475403E-1,1.217619648E1
1.374820079E1,-1.179382462E1,3.806584167E-1,-1.790277100E-1,1.180132411E1
1.375814079E1,-1.111348938E1,1.913021851E-1,6.415658569E-1,1.113363595E1
1.376807979E1,-1.032627640E1,6.107299805E-2,1.437311096E0,1.042600486E1
1.377801979E1,-9.731563110E0,2.155517578E-2,2.116448822E0,9.959073291E0
1.378795879E1,-9.477241974E0,-4.101470947E-2,2.605631561E0,9.828993513E0
1.379789879E1,-9.455387421E0,-6.511459351E-2,2.868335266E0,9.881089939E0
1.380783779E1,-9.297765198E0,-3.487747192E-2,2.641706543E0,9.665829896E0
1.381777779E1,-8.896300049E0,-7.948471069E-2,1.922452240E0,9.101994012E0
1.382771679E1,-8.649762726E0,-6.017486572E-2,1.457818451E0,8.771958211E0
1.383765679E1,-8.450976105E0,4.760101318E-2,1.295256500E0,8.549792534E0
1.384759579E1,-8.114176483E0,1.166075134E-1,1.236129456E0,8.208621891E0
1.385753579E1,-7.858208771E0,1.332229614E-1,1.201102295E0,7.950587410E0
1.386747479E1,-7.757019196E0,5.688171387E-2,1.158441010E0,7.843249830E0
1.387741479E1,-7.690258026E0,-1.016386414E-1,1.071172485E0,7.765166413E0
1.388735379E1,-7.604336700E0,-3.454815674E-1,9.741741943E-1,7.674262800E0
1.389729379E1,-7.562573547E0,-6.607260132E-1,9.539662170E-1,7.651086790E0
1.390723279E1,-7.629634094E0,-9.300160217E-1,1.077160034E0,7.761218973E0
1.391717279E1,-7.724836121E0,-1.109941864E0,1.338366852E0,7.918098879E0
1.392711179E1,-7.787256317E0,-1.118324432E0,1.707050171E0,8.050219300E0
1.393705179E1,-7.783065033E0,-9.752220154E-1,2.154170380E0,8.134347504E0
1.394699079E1,-7.835306396E0,-8.378077698E-1,2.693349152E0,8.327549330E0
1.395693079E1,-7.856861572E0,-6.945556641E-1,3.237767029E0,8.526184180E0
1.396687079E1,-7.796686707E0,-6.459068298E-1,3.812571716E0,8.702943314E0
1.397680979E1,-7.738308105E0,-6.985972595E-1,4.565056915E0,9.011614456E0
1.398674979E1,-7.639513550E0,-7.454498291E-1,5.196893005E0,9.269604071E0
1.399668879E1,-7.608827362E0,-6.653663635E-1,5.188809814E0,9.233672807E0
1.400662879E1,-7.797584839E0,-4.254153442E-1,4.457580414E0,8.991848013E0
1.401656779E1,-8.036188660E0,-2.019300842E-1,3.747008057E0,8.869113446E0
1.402650779E1,-8.015531616E0,1.252894592E-1,3.201242981E0,8.632056601E0
1.403644679E1,-8.014334106E0,3.971241760E-1,2.702929230E0,8.467176932E0
1.404638679E1,-8.284671936E0,4.848417664E-1,2.267035675E0,8.602924583E0
1.405632579E1,-8.798253937E0,5.366340637E-1,1.919458466E0,9.021173386E0
1.406626579E1,-9.433981934E0,5.773493958E-1,1.701960754E0,9.603646071E0
1.407620479E1,-1.001821701E1,4.629872131E-1,1.597927094E0,1.015541236E1
1.408614479E1,-1.056922119E1,-8.412506104E-2,1.731299744E0,1.071041140E1
1.409608379E1,-1.114851654E1,-8.153544617E-1,2.312990112E0,1.141508420E1
1.410602379E1,-1.166075134E1,-1.343605957E0,3.471580811E0,1.224051764E1
1.411596279E1,-1.184606598E1,-1.670077057E0,5.345833282E0,1.310329615E1
1.412590279E1,-1.158994858E1,-1.896705780E0,7.682474213E0,1.403370268E1
1.413584179E1,-1.129970215E1,-1.812281342E0,9.105115814E0,1.462432105E1
1.414578179E1,-1.210517715E1,-1.359023895E0,8.307723999E0,1.474450874E1
1.415572079E1,-1.418345535E1,-9.177415466E-1,6.485413513E0,1.562284365E1
1.416566079E1,-1.575099564E1,-2.869532776E-1,4.889881439E0,1.649506430E1
1.417559979E1,-1.627011612E1,4.721182251E-1,3.566633148E0,1.666314635E1
1.418553979E1,-1.533980072E1,5.905220032E-1,2.369572449E0,1.553296739E1
1.419547925E1,-1.346285385E1,-1.727407837E-1,1.218166809E0,1.351895719E1
1.420541925E1,-1.230366440E1,-8.672964478E-1,2.137554932E-1,1.233604686E1
1.421535825E1,-1.131781448E1,-8.255332947E-1,-6.221063232E-1,1.136492174E1
1.422529825E1,-9.803114319E0,-8.622070312E-2,-1.179397430E0,9.874181620E0
1.423523725E1,-8.235873413E0,6.294410706E-1,-1.416504364E0,8.380470843E0
1.424517725E1,-7.442972260E0,1.106199646E0,-1.583407288E0,7.689518343E0
1.425511725E1,-7.510930939E0,1.471589813E0,-1.729952545E0,7.846808010E0
1.426505625E1,-8.124355316E0,1.725910950E0,-1.879790955E0,8.515722632E0
1.427499625E1,-8.976383514E0,1.759291534E0,-2.080523529E0,9.380785993E0
1.428493525E1,-9.833650818E0,1.455573120E0,-2.352957001E0,1.021546808E1
1.429487525E1,-1.023975632E1,8.858578491E-1,-2.513123932E0,1.058079134E1
1.430481425E1,-1.018946091E1,4.242178345E-1,-2.609972534E0,1.052696685E1
1.431475425E1,-9.862391052E0,1.863624573E-1,-2.754721527E0,1.024158088E1
1.432469325E1,-9.489516449E0,8.831634521E-3,-2.709515533E0,9.868762580E0
1.433463325E1,-9.401050415E0,-2.644999695E-1,-2.418969727E0,9.710876566E0
1.434457225E1,-9.511969757E0,-6.083349609E-1,-1.774110718E0,9.695107474E0
1.435451225E1,-9.477541351E0,-9.244775391E-1,-9.716294861E-1,9.571964931E0
1.436445125E1,-9.344318390E0,-1.160386963E0,-2.421963501E-1,9.419206078E0
1.437439125E1,-9.176217957E0,-1.358724518E0,5.150788879E-1,9.290555127E0
1.438433025E1,-8.859027557E0,-1.560205536E0,1.480870514E0,9.116446021E0
1.439427025E1,-8.601113892E0,-1.523082733E0,3.036735077E0,9.247740325E0
1.440420925E1,-8.373287659E0,-1.436113586E0,4.744384003E0,9.730547159E0
1.441414925E1,-7.826474762E0,-1.482068024E0,6.149811401E0,1.006332018E1
1.442408825E1,-6.660399628E0,-1.545685730E0,8.533454590E0,1.093480292E1
1.443402825E1,-6.018684082E0,-1.195563812E0,7.279212799E0,9.520549873E0
1.444396725E1,-7.159611511E0,-5.114863586E-1,3.658542023E0,8.056462314E0
1.445390725E1,-8.082143097E0,9.430389404E-3,1.934277649E0,8.310388438E0
1.446384625E1,-8.213569794E0,5.619314575E-1,1.251996460E0,8.327424023E0
1.447378625E1,-7.906558228E0,1.168619843E0,1.228046265E0,8.086249623E0
1.448372525E1,-7.363637238E0,1.660047913E0,1.660946045E0,7.729013792E0
1.449366525E1,-7.007378082E0,1.807341614E0,2.238744507E0,7.575078103E0
1.450360425E1,-6.903643799E0,1.524729309E0,2.718796234E0,7.574757430E0
1.451354425E1,-6.973548431E0,9.592053223E-1,3.055595856E0,7.673794277E0
1.452348325E1,-7.343878326E0,2.749781799E-1,3.351829834E0,8.077309274E0
1.453342325E1,-7.765850830E0,-3.906875610E-1,3.814667358E0,8.660990875E0
1.454336325E1,-8.096064148E0,-1.044378204E0,4.330345001E0,9.240609739E0
1.455330225E1,-8.356073456E0,-1.406026154E0,4.620591431E0,9.651463014E0
1.456324225E1,-8.620274048E0,-1.087338867E0,4.678670654E0,9.868200928E0
1.457318125E1,-9.035660248E0,1.796264648E-2,4.406087494E0,1.005271534E1
1.458312125E1,-9.265881500E0,1.074166260E0,3.746558990E0,1.005221853E1
1.459306025E1,-9.275012512E0,1.577569427E0,3.004701691E0,9.876376595E0
1.460300025E1,-9.411678314E0,1.819017334E0,2.363884277E0,9.873016845E0
1.461293925E1,-9.825417938E0,2.051783295E0,2.078876953E0,1.025038447E1
1.462287925E1,-1.041668839E1,2.293829956E0,2.362088013E0,1.092467448E1
1.463281825E1,-1.097622482E1,2.193239136E0,3.175795898E0,1.163501134E1
1.464275825E1,-1.117770584E1,1.615290985E0,4.369413757E0,1.210958502E1
1.465269725E1,-1.132844238E1,6.411167908E-1,5.594915314E0,1.265099660E1
1.466263725E1,-1.175415710E1,-1.434017944E-1,6.460714874E0,1.341348612E1
1.467257625E1,-1.245964005E1,-5.950126648E-1,6.571634216E0,1.409904417E1
1.468251625E1,-1.322215439E1,-1.042432251E0,5.714516602E0,1.444187424E1
1.469245525E1,-1.380549133E1,-1.704954529E0,4.252656555E0,1.454591175E1
1.470239525E1,-1.475811035E1,-2.362686768E0,2.477797394E0,1.515003597E1
1.471233425E1,-1.571402252E1,-2.511926422E0,6.842271423E-1,1.592822793E1
1.472227425E1,-1.545476166E1,-1.805994415E0,-3.122506714E-1,1.556305800E1
1.473221325E1,-1.331960175E1,-6.571334839E-1,-4.950205994E-1,1.334498634E1
1.474215325E1,-1.079285614E1,-1.751358032E-2,-4.992118835E-1,1.080440942E1
1.475209225E1,-8.520880737E0,-4.041595459E-2,-4.553530884E-1,8.533134736E0
1.476203225E1,-6.746021576E0,-4.128414917E-1,-5.090913391E-1,6.777788665E0
1.477197125E1,-6.115233307E0,-7.339237976E-1,-7.364685059E-1,6.202991891E0
1.478191125E1,-6.669380951E0,-9.163943481E-1,-1.101259918E0,6.821524337E0
1.479185025E1,-7.894433441E0,-7.673043823E-1,-1.495240631E0,8.071343130E0
1.480179025E1,-9.001381531E0,-3.848497009E-1,-1.768871613E0,9.181605826E0
1.481172925E1,-9.885143738E0,-5.912704468E-2,-1.824106750E0,1.005221011E1
1.482166925E1,-1.061816940E1,1.185534668E-1,-1.575922852E0,1.073513434E1
1.483160825E1,-1.102128113E1,1.821711731E-1,-1.034648438E0,1.107123848E1
1.484154825E1,-1.117965179E1,1.097218323E-1,-3.617976379E-1,1.118604267E1
1.485148825E1,-1.135119507E1,3.203338623E-2,3.629951477E-1,1.135704280E1
1.486142725E1,-1.139490417E1,9.280700684E-3,1.357676697E0,1.147550493E1
1.487136725E1,-1.124297012E1,6.915618896E-2,2.387385406E0,1.149385788E1
1.488130625E1,-1.068493057E1,1.068777466E-1,3.108136597E0,1.112832770E1
1.489124625E1,-9.925709381E0,4.595443726E-2,3.420836334E0,1.049875896E1
1.490118525E1,-9.196575623E0,-6.316864014E-2,3.445385284E0,9.820981276E0
1.491112525E1,-8.496331787E0,-1.251397705E-1,3.215313721E0,9.085238363E0
1.492106425E1,-7.919132080E0,-1.457968140E-1,2.777174835E0,8.393247862E0
1.493100425E1,-7.525899811E0,-1.954934692E-1,2.343825989E0,7.884852942E0
1.494094325E1,-7.372768250E0,-2.381547546E-1,1.960323486E0,7.632646823E0
1.495088325E1,-7.400909729E0,-2.561174011E-1,1.653162231E0,7.587621914E0
1.496082225E1,-7.495363312E0,-2.222877502E-1,1.470541992E0,7.641490481E0
1.497076225E1,-7.563321991E0,-1.507365417E-1,1.332828369E0,7.681340541E0
1.498070125E1,-7.555089111E0,-1.627116394E-1,1.285676422E0,7.665429565E0
1.499064125E1,-7.519313507E0,-2.957849121E-1,1.334924011E0,7.642616466E0
1.500058025E1,-7.553592224E0,-5.577401733E-1,1.483115845E0,7.717995996E0
1.501052025E1,-7.526498566E0,-9.168434143E-1,1.735191650E0,7.778153545E0
1.502045925E1,-7.548053741E0,-1.243015137E0,2.066452789E0,7.923915007E0
1.503039925E1,-7.590715027E0,-1.390757904E0,2.512674866E0,8.115830034E0
1.504033825E1,-7.553292847E0,-1.324296112E0,3.030448151E0,8.245581181E0
1.505027825E1,-7.491022339E0,-1.184037781E0,3.581751709E0,8.387270501E0
1.506021725E1,-7.429500275E0,-9.982740784E-1,4.090393982E0,8.539633973E0
1.507015725E1,-7.447612610E0,-7.658074951E-1,4.540657654E0,8.756195900E0
1.508009625E1,-7.535479889E0,-4.117936707E-1,4.740192719E0,8.911927861E0
1.509003625E1,-7.820936279E0,-9.999206543E-2,4.445605316E0,8.996691021E0
1.509997525E1,-8.288863220E0,-8.996292114E-2,3.867357788E0,9.147119933E0
1.510991525E1,-8.652157745E0,-3.809577942E-1,3.350183258E0,9.285940467E0
1.511985425E1,-8.910221100E0,-8.927435303E-1,2.935844879E0,9.423811130E0
1.512979425E1,-9.223818970E0,-1.412911835E0,2.595901794E0,9.685755642E0
1.513973425E1,-9.612111511E0,-1.672023010E0,2.328857117E0,1.003054954E1
1.514967325E1,-1.015637970E1,-1.769021301E0,2.247875519E0,1.055151313E1
1.515961325E1,-1.081261505E1,-1.878294067E0,2.545007629E0,1.126577546E1
1.516955225E1,-1.143576920E1,-1.755848694E0,3.353326721E0,1.204593798E1
1.517949225E1,-1.173320068E1,-1.182091827E0,4.658462677E0,1.267937750E1
1.518943088E1,-1.170595734E1,-6.020480347E-1,6.238576813E0,1.327824309E1
1.519937087E1,-1.142918289E1,-2.550695801E-1,7.434739380E0,1.363695830E1
1.520930988E1,-1.138637192E1,-9.295669556E-2,7.501799927E0,1.363580245E1
1.521924987E1,-1.230950226E1,1.871109009E-2,6.670877838E0,1.400088594E1
1.522918888E1,-1.367825592E1,1.776805115E-1,5.695206757E0,1.481761234E1
1.523912887E1,-1.500389923E1,3.436853027E-1,4.635260925E0,1.570734718E1
1.524906788E1,-1.598720444E1,4.047583008E-1,3.483705597E0,1.636736814E1
1.525900787E1,-1.618015320E1,-9.924362183E-2,2.359243927E0,1.635155157E1
1.526894688E1,-1.545895294E1,-1.266366577E0,1.270108795E0,1.556265038E1
1.527888687E1,-1.366672989E1,-2.093546448E0,3.311114502E-1,1.383011487E1
1.528882588E1,-1.139714951E1,-1.915416870E0,-4.481680298E-1,1.156566873E1
1.529876587E1,-9.603279877E0,-8.469387817E-1,-9.113049316E-1,9.683530677E0
1.530870488E1,-8.044571228E0,1.115180969E-1,-1.096769257E0,8.119757714E0
1.531864487E1,-7.189698944E0,7.005432129E-1,-1.187929688E0,7.320772407E0
1.532858388E1,-7.294331360E0,1.087488556E0,-1.281485138E0,7.485459605E0
1.533852387E1,-8.195158081E0,1.255888367E0,-1.408870239E0,8.409684115E0
1.534846288E1,-9.242979126E0,1.165177002E0,-1.561852112E0,9.446146441E0
1.535840287E1,-1.004171814E1,1.040336609E0,-1.780846710E0,1.025133252E1
1.536834188E1,-1.043285477E1,8.677455139E-1,-1.969604187E0,1.065254812E1
1.537828187E1,-1.035411850E1,6.905140686E-1,-1.993404694E0,1.056684635E1
1.538822088E1,-9.969418488E0,6.261479187E-1,-1.892215118E0,1.016670272E1
1.539816087E1,-9.476792908E0,5.945635986E-1,-1.842219086E0,9.672480594E0
1.540809987E1,-9.235644379E0,4.900808716E-1,-1.877845001E0,9.437351758E0
1.541803987E1,-9.096433868E0,2.540217590E-1,-1.799857178E0,9.276266600E0
1.542797887E1,-8.903335419E0,-8.367599487E-2,-1.490600281E0,9.027639362E0
1.543791887E1,-8.656947784E0,-4.584965515E-1,-1.036893768E0,8.730871246E0
1.544785787E1,-8.409362640E0,-8.132588196E-1,-5.400769043E-1,8.465840359E0
1.545779787E1,-8.174950104E0,-1.075064392E0,1.847158813E-1,8.247405204E0
1.546773788E1,-8.034392395E0,-1.279239807E0,1.166673889E0,8.218822519E0
1.547767687E1,-7.864346008E0,-1.327738953E0,1.903292084E0,8.199594479E0
1.548761688E1,-7.604785767E0,-1.238075409E0,2.698737946E0,8.163870637E0
1.549755587E1,-7.454198914E0,-1.139580231E0,3.780987396E0,8.435614396E0
1.550749588E1,-7.436086578E0,-9.330097961E-1,5.354215851E0,9.210511292E0
1.551743487E1,-7.068002014E0,-5.206173706E-1,7.500303040E0,1.031902324E1
1.552737488E1,-6.857389984E0,1.562750244E-1,5.886958008E0,9.039053815E0
1.553731387E1,-7.829169159E0,7.482939148E-1,3.235671387E0,8.504434304E0
1.554725388E1,-8.327782288E0,1.053060150E0,1.994003448E0,8.627684699E0
1.555719287E1,-8.319998474E0,1.332229614E0,1.478026428E0,8.554634561E0
1.556713288E1,-7.964936829E0,1.477727051E0,1.404379578E0,8.221689481E0
1.557707187E1,-7.433092804E0,1.262175293E0,1.769320679E0,7.744317321E0
1.558701188E1,-7.285350037E0,6.978488159E-1,2.380050659E0,7.695970326E0
1.559695087E1,-7.454049225E0,1.158590698E-1,3.015329590E0,8.041671823E0
1.560689088E1,-7.807464294E0,-4.568499756E-1,3.583098907E0,8.602546622E0
1.561682987E1,-8.248147888E0,-1.012793884E0,4.065695343E0,9.251355234E0
1.562676988E1,-8.770711212E0,-1.422641602E0,4.424199829E0,9.925866633E0
1.563670887E1,-9.170529785E0,-1.488504639E0,4.597689056E0,1.036595424E1
1.564664888E1,-9.380842438E0,-9.080117798E-1,4.442761230E0,1.041934823E1
1.565658787E1,-9.376950531E0,2.769241333E-2,3.852538605E0,1.013755502E1
1.566652788E1,-9.163793793E0,5.926176453E-1,3.247796173E0,9.740353809E0
1.567646688E1,-9.020691376E0,7.162605286E-1,2.957998810E0,9.520276204E0
1.568640688E1,-9.265881500E0,5.245092773E-1,3.019969940E0,9.759707393E0
1.569634588E1,-9.852511597E0,4.272116089E-1,3.253484344E0,1.038458737E1
1.570628587E1,-1.060948746E1,7.092251587E-1,3.653153229E0,1.124320919E1
1.571622488E1,-1.120360199E1,1.159189453E0,4.275409241E0,1.204755336E1
1.572616487E1,-1.137694153E1,1.328936462E0,4.990172882E0,1.249410645E1
1.573610388E1,-1.127724884E1,1.101559296E0,5.541925507E0,1.261359238E1
1.574604387E1,-1.114417557E1,7.756869507E-1,5.632187805E0,1.251063063E1
1.575598288E1,-1.138846756E1,3.481759644E-1,5.211861877E0,1.252924276E1
1.576592287E1,-1.224827957E1,-2.424957275E-1,4.511168976E0,1.305487657E1
1.577586287E1,-1.331541046E1,-1.003363495E0,3.412154388E0,1.378222375E1
1.578580187E1,-1.452818848E1,-1.615740051E0,1.661095734E0,1.471183589E1
1.579574187E1,-1.550460800E1,-1.675465851E0,1.392105103E-2,1.559487893E1
1.580568087E1,-1.517439468E1,-1.004710693E0,-7.515870667E-1,1.522618077E1
1.581562087E1,-1.287113434E1,-1.323248291E-1,-9.157955933E-1,1.290435161E1
1.582555987E1,-1.029154861E1,1.384620667E-1,-9.807604980E-1,1.033910227E1
1.583549987E1,-8.645272064E0,-9.400451660E-2,-1.029109955E0,8.706815331E0
1.584543887E1,-7.948920135E0,-6.581813049E-1,-1.093775482E0,8.050768830E0
1.585537887E1,-8.268206177E0,-1.422042847E0,-1.324445801E0,8.493503159E0
1.586531787E1,-9.240434418E0,-2.161654816E0,-1.715732117E0,9.643760494E0
1.587525787E1,-1.028990204E1,-2.627037048E0,-2.139500885E0,1.083332228E1
1.588519687E1,-1.109193420E1,-2.728975067E0,-2.621797943E0,1.171973267E1
1.589513687E1,-1.161419815E1,-2.483784943E0,-3.052452393E0,1.226279951E1
1.590507587E1,-1.173005722E1,-1.972747650E0,-2.919528809E0,1.224784161E1
1.591501587E1,-1.124042542E1,-1.306183777E0,-2.110910339E0,1.151126501E1
1.592495487E1,-1.071591614E1,-6.572831726E-1,-1.184037781E0,1.080114926E1
1.593489487E1,-1.044797333E1,-1.945953369E-2,-4.140390015E-1,1.045619212E1
1.594483387E1,-1.025023453E1,5.703140259E-1,2.215393066E-1,1.026847825E1
1.595477387E1,-9.838740234E0,9.886940002E-1,6.780899048E-1,9.911515078E0
1.596471287E1,-9.339378662E0,1.214873657E0,1.018332367E0,9.472956909E0
1.597465288E1,-8.813971252E0,1.275647278E0,1.307081909E0,9.001212604E0
1.598459187E1,-8.407566376E0,1.183888092E0,1.555265808E0,8.631779371E0
1.599453188E1,-8.067623291E0,1.034648438E0,1.759590912E0,8.321850944E0
1.600447087E1,-7.607180786E0,8.562194824E-1,1.908231812E0,7.889465125E0
1.601441088E1,-7.231611786E0,6.691085815E-1,2.027084656E0,7.540092010E0
1.602434987E1,-6.967710571E0,4.415817261E-1,2.050735474E0,7.276640778E0
1.603428988E1,-6.871460724E0,1.766326904E-1,2.031425629E0,7.167625944E0
1.604422887E1,-6.959477692E0,-1.016386414E-1,2.015259247E0,7.246097569E0
1.605416888E1,-7.085814972E0,-4.333488464E-1,2.099234619E0,7.402928544E0
1.606410787E1,-7.115303650E0,-8.650511169E-1,2.277663574E0,7.520878328E0
1.607404788E1,-7.123536530E0,-1.325643311E0,2.529739380E0,7.674743266E0
1.608398687E1,-7.263495483E0,-1.633403320E0,2.830913086E0,7.964950844E0
1.609392688E1,-7.456593933E0,-1.777254181E0,3.181484070E0,8.299473862E0
1.610386587E1,-7.605983276E0,-1.816921692E0,3.554508362E0,8.589919425E0
1.611380588E1,-7.666158142E0,-1.802701263E0,3.881877594E0,8.780016296E0
1.612374587E1,-7.708819427E0,-1.699865112E0,4.157005463E0,8.921666480E0
1.613368488E1,-7.780670013E0,-1.557660828E0,4.356540527E0,9.052324479E0
1.614362487E1,-7.851173401E0,-1.341809692E0,4.475243683E0,9.136147057E0
1.615356388E1,-7.998766479E0,-8.976832581E-1,4.458328857E0,9.201238864E0
1.616350387E1,-8.104895782E0,-3.947291565E-1,4.347259827E0,9.205640377E0
1.617344288E1,-8.333470459E0,-1.234931946E-1,4.148173828E0,9.309636221E0
1.618338287E1,-8.628057861E0,-8.681945801E-2,3.913761292E0,9.474621234E0
1.619332200E1,-8.872948608E0,-4.180805969E-1,3.656596069E0,9.605972268E0
1.620326200E1,-9.289981384E0,-1.038240967E0,3.368894348E0,9.936354842E0
1.621320100E1,-9.795929260E0,-1.534159698E0,2.995720367E0,1.035800254E1
1.622314100E1,-1.020832169E1,-1.934427338E0,2.654579773E0,1.072374163E1
1.623308000E1,-1.053015244E1,-2.456391907E0,2.476899261E0,1.109292574E1
1.624302000E1,-1.098385895E1,-2.936593323E0,2.834056549E0,1.171753448E1
1.625295900E1,-1.141900406E1,-2.680475922E0,3.863615570E0,1.234933723E1
1.626289900E1,-1.124835892E1,-1.782044220E0,5.420527954E0,1.261282614E1
1.627283800E1,-1.086231171E1,-8.767268372E-1,7.177274780E0,1.304882136E1
1.628277800E1,-1.089763824E1,-2.644999695E-1,8.301886139E0,1.370218205E1
1.629271700E1,-1.188408691E1,1.038839722E-1,8.237220612E0,1.446008704E1
1.630265700E1,-1.370415207E1,5.245092773E-1,7.316335602E0,1.554373380E1
1.631259600E1,-1.530447418E1,1.059945831E0,5.934858398E0,1.644910208E1
1.632253600E1,-1.596789459E1,1.275647278E0,4.277953949E0,1.658016356E1
1.633247500E1,-1.529160095E1,9.069639587E-1,2.814746704E0,1.557492993E1
1.634241500E1,-1.394095963E1,-3.653901672E-1,1.724713440E0,1.405199280E1
1.635235400E1,-1.251532425E1,-1.625918884E0,9.455836487E-1,1.265587143E1
1.636229400E1,-1.067654800E1,-2.073338470E0,3.692820740E-1,1.088226902E1
1.637223300E1,-9.012458496E0,-2.086062012E0,2.245330811E-3,9.250733371E0
1.638217300E1,-7.976313171E0,-1.787433014E0,-2.621049500E-1,8.178336481E0
1.639211200E1,-7.475005646E0,-1.320553894E0,-4.745132446E-1,7.605572616E0
